"","task","trial_type","trial_index","time_elapsed","internal_node_id","subject_id","study_id","session_id","section","width","height","webaudio","browser","browser_version","mobile","os","fullscreen","vsync_rate","webcam","microphone","rt","stimulus","response","success","timeout","failed_images","failed_audio","failed_video","block.x.x","accuracy","slider_start","choices","correct","standardized_response","num_attention_checks_correct","stim_tract","stim_tractT","block.x","P0_Q1.wealthy","P0_Q1.safe","P0_Q1.walkable","P0_Q1.traditional","P0_Q1.diverse","block_fixed","stim_tractT.x","block.y","P0_Q1.violence","P0_Q1.crime","P0_Q1.drug","P0_Q1.schools","P0_Q1.opportunities","stim_tractT.y","block.y.y","P0_Q1.movein","P0_Q1.moveout","P0_Q1.shopping","P0_Q1.walk","P0_Q1.park","P0_Q1.school","age","sex","gender","gender-self-describe","zipcode","surveyComments"
"1","sliderTrial_attention","html-slider-response",18,99861,"0.0-18.0",NA,"656776a7904ae00d6b91d1dd","6568adf5800e9ea660756e1c",7,NA,NA,NA,NA,NA,NA,NA,NA,NA,NA,NA,"null","[""SV_PolicingMSA/MO_1031/IMG_13_1031.jpg"",""SV_PolicingMSA/MO_1031/IMG_9_1031.jpg"",""SV_PolicingMSA/MO_1031/IMG_12_1031.jpg"",""SV_PolicingMSA/MO_1031/IMG_11_1031.jpg"",""SV_PolicingMSA/MO_1031/IMG_7_1031.jpg"",""SV_PolicingMSA/MO_1031/IMG_0_1031.jpg"",""SV_PolicingMSA/MO_1031/IMG_3_1031.jpg"",""SV_PolicingMSA/MO_1031/IMG_2_1031.jpg""]","null",NA,NA,NA,NA,NA,0,NA,4,"[""./assets/img/attnchk.png"",""./assets/img/attnchk.png""]",TRUE,NA,NA,"MO_1031","MO_1031",0,0,1,0,1,1,1,"MO_1031",0,3,3,4,0,0,"MO_1031",0,0,3,0,1,1,1,"30","female","woman","","08071",""
"2","sliderTrial","html-slider-response",19,113181,"0.0-19.0",NA,"656776a7904ae00d6b91d1dd","6568adf5800e9ea660756e1c",7,NA,NA,NA,NA,NA,NA,NA,NA,NA,NA,NA,"13317","[""SV_PolicingMSA/MO_1031/IMG_13_1031.jpg"",""SV_PolicingMSA/MO_1031/IMG_9_1031.jpg"",""SV_PolicingMSA/MO_1031/IMG_12_1031.jpg"",""SV_PolicingMSA/MO_1031/IMG_11_1031.jpg"",""SV_PolicingMSA/MO_1031/IMG_7_1031.jpg"",""SV_PolicingMSA/MO_1031/IMG_0_1031.jpg"",""SV_PolicingMSA/MO_1031/IMG_3_1031.jpg"",""SV_PolicingMSA/MO_1031/IMG_2_1031.jpg""]","5",NA,NA,NA,NA,NA,0,NA,4,"[""./rc_img/cop_condGroup_2_SafeStreets_autoscaled.png"",""./rc_img/cop_condGroup_2_CommunitySafety_autoscaled.png""]",NA,3,NA,"MO_1031","MO_1031",0,0,1,0,1,1,1,"MO_1031",0,3,3,4,0,0,"MO_1031",0,0,3,0,1,1,1,"30","female","woman","","08071",""
"3","sliderTrial","html-slider-response",20,120541,"0.0-20.0",NA,"656776a7904ae00d6b91d1dd","6568adf5800e9ea660756e1c",7,NA,NA,NA,NA,NA,NA,NA,NA,NA,NA,NA,"7358","[""SV_PolicingMSA/MO_1031/IMG_13_1031.jpg"",""SV_PolicingMSA/MO_1031/IMG_9_1031.jpg"",""SV_PolicingMSA/MO_1031/IMG_12_1031.jpg"",""SV_PolicingMSA/MO_1031/IMG_11_1031.jpg"",""SV_PolicingMSA/MO_1031/IMG_7_1031.jpg"",""SV_PolicingMSA/MO_1031/IMG_0_1031.jpg"",""SV_PolicingMSA/MO_1031/IMG_3_1031.jpg"",""SV_PolicingMSA/MO_1031/IMG_2_1031.jpg""]","3",NA,NA,NA,NA,NA,0,NA,4,"[""./rc_img/cop_condGroup_4_CommunitySafety_autoscaled.png"",""./rc_img/cop_condGroup_4_SafeStreets_autoscaled.png""]",NA,3,NA,"MO_1031","MO_1031",0,0,1,0,1,1,1,"MO_1031",0,3,3,4,0,0,"MO_1031",0,0,3,0,1,1,1,"30","female","woman","","08071",""
"4","sliderTrial","html-slider-response",21,126397,"0.0-21.0",NA,"656776a7904ae00d6b91d1dd","6568adf5800e9ea660756e1c",7,NA,NA,NA,NA,NA,NA,NA,NA,NA,NA,NA,"5855","[""SV_PolicingMSA/MO_1031/IMG_13_1031.jpg"",""SV_PolicingMSA/MO_1031/IMG_9_1031.jpg"",""SV_PolicingMSA/MO_1031/IMG_12_1031.jpg"",""SV_PolicingMSA/MO_1031/IMG_11_1031.jpg"",""SV_PolicingMSA/MO_1031/IMG_7_1031.jpg"",""SV_PolicingMSA/MO_1031/IMG_0_1031.jpg"",""SV_PolicingMSA/MO_1031/IMG_3_1031.jpg"",""SV_PolicingMSA/MO_1031/IMG_2_1031.jpg""]","5",NA,NA,NA,NA,NA,0,NA,4,"[""./rc_img/cop_condGroup_10_SafeStreets_autoscaled.png"",""./rc_img/cop_condGroup_10_CommunitySafety_autoscaled.png""]",NA,3,NA,"MO_1031","MO_1031",0,0,1,0,1,1,1,"MO_1031",0,3,3,4,0,0,"MO_1031",0,0,3,0,1,1,1,"30","female","woman","","08071",""
"5","sliderTrial","html-slider-response",22,130789,"0.0-22.0",NA,"656776a7904ae00d6b91d1dd","6568adf5800e9ea660756e1c",7,NA,NA,NA,NA,NA,NA,NA,NA,NA,NA,NA,"4392","[""SV_PolicingMSA/MO_1031/IMG_13_1031.jpg"",""SV_PolicingMSA/MO_1031/IMG_9_1031.jpg"",""SV_PolicingMSA/MO_1031/IMG_12_1031.jpg"",""SV_PolicingMSA/MO_1031/IMG_11_1031.jpg"",""SV_PolicingMSA/MO_1031/IMG_7_1031.jpg"",""SV_PolicingMSA/MO_1031/IMG_0_1031.jpg"",""SV_PolicingMSA/MO_1031/IMG_3_1031.jpg"",""SV_PolicingMSA/MO_1031/IMG_2_1031.jpg""]","2",NA,NA,NA,NA,NA,0,NA,4,"[""./rc_img/cop_condGroup_1_CommunitySafety_autoscaled.png"",""./rc_img/cop_condGroup_1_SafeStreets_autoscaled.png""]",NA,2,NA,"MO_1031","MO_1031",0,0,1,0,1,1,1,"MO_1031",0,3,3,4,0,0,"MO_1031",0,0,3,0,1,1,1,"30","female","woman","","08071",""
"6","sliderTrial","html-slider-response",23,135357,"0.0-23.0",NA,"656776a7904ae00d6b91d1dd","6568adf5800e9ea660756e1c",7,NA,NA,NA,NA,NA,NA,NA,NA,NA,NA,NA,"4566","[""SV_PolicingMSA/MO_1031/IMG_13_1031.jpg"",""SV_PolicingMSA/MO_1031/IMG_9_1031.jpg"",""SV_PolicingMSA/MO_1031/IMG_12_1031.jpg"",""SV_PolicingMSA/MO_1031/IMG_11_1031.jpg"",""SV_PolicingMSA/MO_1031/IMG_7_1031.jpg"",""SV_PolicingMSA/MO_1031/IMG_0_1031.jpg"",""SV_PolicingMSA/MO_1031/IMG_3_1031.jpg"",""SV_PolicingMSA/MO_1031/IMG_2_1031.jpg""]","3",NA,NA,NA,NA,NA,0,NA,4,"[""./rc_img/cop_condGroup_9_CommunitySafety_autoscaled.png"",""./rc_img/cop_condGroup_9_SafeStreets_autoscaled.png""]",NA,3,NA,"MO_1031","MO_1031",0,0,1,0,1,1,1,"MO_1031",0,3,3,4,0,0,"MO_1031",0,0,3,0,1,1,1,"30","female","woman","","08071",""
"7","sliderTrial","html-slider-response",36,201661,"0.0-36.0",NA,"656776a7904ae00d6b91d1dd","6568adf5800e9ea660756e1c",7,NA,NA,NA,NA,NA,NA,NA,NA,NA,NA,NA,"5666","[""SV_PolicingMSA/MO_982/IMG_0_982.jpg"",""SV_PolicingMSA/MO_982/IMG_12_982.jpg"",""SV_PolicingMSA/MO_982/IMG_10_982.jpg"",""SV_PolicingMSA/MO_982/IMG_7_982.jpg"",""SV_PolicingMSA/MO_982/IMG_14_982.jpg"",""SV_PolicingMSA/MO_982/IMG_13_982.jpg"",""SV_PolicingMSA/MO_982/IMG_8_982.jpg"",""SV_PolicingMSA/MO_982/IMG_2_982.jpg""]","6",NA,NA,NA,NA,NA,2,NA,4,"[""./rc_img/cop_condGroup_7_SafeStreets_autoscaled.png"",""./rc_img/cop_condGroup_7_CommunitySafety_autoscaled.png""]",NA,2,NA,"MO_982/","MO_982",2,2,3,4,3,1,3,"MO_982",2,0,1,1,3,2,"MO_982",2,2,1,1,3,3,3,"30","female","woman","","08071",""
"8","sliderTrial","html-slider-response",37,206509,"0.0-37.0",NA,"656776a7904ae00d6b91d1dd","6568adf5800e9ea660756e1c",7,NA,NA,NA,NA,NA,NA,NA,NA,NA,NA,NA,"4846","[""SV_PolicingMSA/MO_982/IMG_0_982.jpg"",""SV_PolicingMSA/MO_982/IMG_12_982.jpg"",""SV_PolicingMSA/MO_982/IMG_10_982.jpg"",""SV_PolicingMSA/MO_982/IMG_7_982.jpg"",""SV_PolicingMSA/MO_982/IMG_14_982.jpg"",""SV_PolicingMSA/MO_982/IMG_13_982.jpg"",""SV_PolicingMSA/MO_982/IMG_8_982.jpg"",""SV_PolicingMSA/MO_982/IMG_2_982.jpg""]","1",NA,NA,NA,NA,NA,2,NA,4,"[""./rc_img/cop_condGroup_13_CommunitySafety_autoscaled.png"",""./rc_img/cop_condGroup_13_SafeStreets_autoscaled.png""]",NA,1,NA,"MO_982/","MO_982",2,2,3,4,3,1,3,"MO_982",2,0,1,1,3,2,"MO_982",2,2,1,1,3,3,3,"30","female","woman","","08071",""
"9","sliderTrial","html-slider-response",38,210109,"0.0-38.0",NA,"656776a7904ae00d6b91d1dd","6568adf5800e9ea660756e1c",7,NA,NA,NA,NA,NA,NA,NA,NA,NA,NA,NA,"3598","[""SV_PolicingMSA/MO_982/IMG_0_982.jpg"",""SV_PolicingMSA/MO_982/IMG_12_982.jpg"",""SV_PolicingMSA/MO_982/IMG_10_982.jpg"",""SV_PolicingMSA/MO_982/IMG_7_982.jpg"",""SV_PolicingMSA/MO_982/IMG_14_982.jpg"",""SV_PolicingMSA/MO_982/IMG_13_982.jpg"",""SV_PolicingMSA/MO_982/IMG_8_982.jpg"",""SV_PolicingMSA/MO_982/IMG_2_982.jpg""]","5",NA,NA,NA,NA,NA,2,NA,4,"[""./rc_img/cop_condGroup_12_CommunitySafety_autoscaled.png"",""./rc_img/cop_condGroup_12_SafeStreets_autoscaled.png""]",NA,5,NA,"MO_982/","MO_982",2,2,3,4,3,1,3,"MO_982",2,0,1,1,3,2,"MO_982",2,2,1,1,3,3,3,"30","female","woman","","08071",""
"10","sliderTrial","html-slider-response",39,215141,"0.0-39.0",NA,"656776a7904ae00d6b91d1dd","6568adf5800e9ea660756e1c",7,NA,NA,NA,NA,NA,NA,NA,NA,NA,NA,NA,"5030","[""SV_PolicingMSA/MO_982/IMG_0_982.jpg"",""SV_PolicingMSA/MO_982/IMG_12_982.jpg"",""SV_PolicingMSA/MO_982/IMG_10_982.jpg"",""SV_PolicingMSA/MO_982/IMG_7_982.jpg"",""SV_PolicingMSA/MO_982/IMG_14_982.jpg"",""SV_PolicingMSA/MO_982/IMG_13_982.jpg"",""SV_PolicingMSA/MO_982/IMG_8_982.jpg"",""SV_PolicingMSA/MO_982/IMG_2_982.jpg""]","5",NA,NA,NA,NA,NA,2,NA,4,"[""./rc_img/cop_condGroup_14_SafeStreets_autoscaled.png"",""./rc_img/cop_condGroup_14_CommunitySafety_autoscaled.png""]",NA,3,NA,"MO_982/","MO_982",2,2,3,4,3,1,3,"MO_982",2,0,1,1,3,2,"MO_982",2,2,1,1,3,3,3,"30","female","woman","","08071",""
"11","sliderTrial","html-slider-response",40,218405,"0.0-40.0",NA,"656776a7904ae00d6b91d1dd","6568adf5800e9ea660756e1c",7,NA,NA,NA,NA,NA,NA,NA,NA,NA,NA,NA,"3264","[""SV_PolicingMSA/MO_982/IMG_0_982.jpg"",""SV_PolicingMSA/MO_982/IMG_12_982.jpg"",""SV_PolicingMSA/MO_982/IMG_10_982.jpg"",""SV_PolicingMSA/MO_982/IMG_7_982.jpg"",""SV_PolicingMSA/MO_982/IMG_14_982.jpg"",""SV_PolicingMSA/MO_982/IMG_13_982.jpg"",""SV_PolicingMSA/MO_982/IMG_8_982.jpg"",""SV_PolicingMSA/MO_982/IMG_2_982.jpg""]","5",NA,NA,NA,NA,NA,2,NA,4,"[""./rc_img/cop_condGroup_15_SafeStreets_autoscaled.png"",""./rc_img/cop_condGroup_15_CommunitySafety_autoscaled.png""]",NA,3,NA,"MO_982/","MO_982",2,2,3,4,3,1,3,"MO_982",2,0,1,1,3,2,"MO_982",2,2,1,1,3,3,3,"30","female","woman","","08071",""
"12","sliderTrial","html-slider-response",53,277126,"0.0-53.0",NA,"656776a7904ae00d6b91d1dd","6568adf5800e9ea660756e1c",7,NA,NA,NA,NA,NA,NA,NA,NA,NA,NA,NA,"3479","[""SV_PolicingMSA/MO_1004/IMG_5_1004.jpg"",""SV_PolicingMSA/MO_1004/IMG_3_1004.jpg"",""SV_PolicingMSA/MO_1004/IMG_0_1004.jpg"",""SV_PolicingMSA/MO_1004/IMG_14_1004.jpg"",""SV_PolicingMSA/MO_1004/IMG_6_1004.jpg"",""SV_PolicingMSA/MO_1004/IMG_9_1004.jpg"",""SV_PolicingMSA/MO_1004/IMG_12_1004.jpg"",""SV_PolicingMSA/MO_1004/IMG_1_1004.jpg""]","5",NA,NA,NA,NA,NA,1,NA,4,"[""./rc_img/cop_condGroup_6_CommunitySafety_autoscaled.png"",""./rc_img/cop_condGroup_6_SafeStreets_autoscaled.png""]",NA,5,NA,"MO_1004","MO_1004",1,1,2,2,2,3,2,"MO_1004",1,2,3,2,1,1,"MO_1004",1,1,2,0,1,1,1,"30","female","woman","","08071",""
"13","sliderTrial","html-slider-response",54,280269,"0.0-54.0",NA,"656776a7904ae00d6b91d1dd","6568adf5800e9ea660756e1c",7,NA,NA,NA,NA,NA,NA,NA,NA,NA,NA,NA,"3142","[""SV_PolicingMSA/MO_1004/IMG_5_1004.jpg"",""SV_PolicingMSA/MO_1004/IMG_3_1004.jpg"",""SV_PolicingMSA/MO_1004/IMG_0_1004.jpg"",""SV_PolicingMSA/MO_1004/IMG_14_1004.jpg"",""SV_PolicingMSA/MO_1004/IMG_6_1004.jpg"",""SV_PolicingMSA/MO_1004/IMG_9_1004.jpg"",""SV_PolicingMSA/MO_1004/IMG_12_1004.jpg"",""SV_PolicingMSA/MO_1004/IMG_1_1004.jpg""]","5",NA,NA,NA,NA,NA,1,NA,4,"[""./rc_img/cop_condGroup_3_CommunitySafety_autoscaled.png"",""./rc_img/cop_condGroup_3_SafeStreets_autoscaled.png""]",NA,5,NA,"MO_1004","MO_1004",1,1,2,2,2,3,2,"MO_1004",1,2,3,2,1,1,"MO_1004",1,1,2,0,1,1,1,"30","female","woman","","08071",""
"14","sliderTrial","html-slider-response",55,283053,"0.0-55.0",NA,"656776a7904ae00d6b91d1dd","6568adf5800e9ea660756e1c",7,NA,NA,NA,NA,NA,NA,NA,NA,NA,NA,NA,"2783","[""SV_PolicingMSA/MO_1004/IMG_5_1004.jpg"",""SV_PolicingMSA/MO_1004/IMG_3_1004.jpg"",""SV_PolicingMSA/MO_1004/IMG_0_1004.jpg"",""SV_PolicingMSA/MO_1004/IMG_14_1004.jpg"",""SV_PolicingMSA/MO_1004/IMG_6_1004.jpg"",""SV_PolicingMSA/MO_1004/IMG_9_1004.jpg"",""SV_PolicingMSA/MO_1004/IMG_12_1004.jpg"",""SV_PolicingMSA/MO_1004/IMG_1_1004.jpg""]","2",NA,NA,NA,NA,NA,1,NA,4,"[""./rc_img/cop_condGroup_5_CommunitySafety_autoscaled.png"",""./rc_img/cop_condGroup_5_SafeStreets_autoscaled.png""]",NA,2,NA,"MO_1004","MO_1004",1,1,2,2,2,3,2,"MO_1004",1,2,3,2,1,1,"MO_1004",1,1,2,0,1,1,1,"30","female","woman","","08071",""
"15","sliderTrial_attention","html-slider-response",56,293062,"0.0-56.0",NA,"656776a7904ae00d6b91d1dd","6568adf5800e9ea660756e1c",7,NA,NA,NA,NA,NA,NA,NA,NA,NA,NA,NA,"null","[""SV_PolicingMSA/MO_1004/IMG_5_1004.jpg"",""SV_PolicingMSA/MO_1004/IMG_3_1004.jpg"",""SV_PolicingMSA/MO_1004/IMG_0_1004.jpg"",""SV_PolicingMSA/MO_1004/IMG_14_1004.jpg"",""SV_PolicingMSA/MO_1004/IMG_6_1004.jpg"",""SV_PolicingMSA/MO_1004/IMG_9_1004.jpg"",""SV_PolicingMSA/MO_1004/IMG_12_1004.jpg"",""SV_PolicingMSA/MO_1004/IMG_1_1004.jpg""]","null",NA,NA,NA,NA,NA,1,NA,4,"[""./assets/img/attnchk.png"",""./assets/img/attnchk.png""]",TRUE,NA,NA,"MO_1004","MO_1004",1,1,2,2,2,3,2,"MO_1004",1,2,3,2,1,1,"MO_1004",1,1,2,0,1,1,1,"30","female","woman","","08071",""
"16","sliderTrial","html-slider-response",57,296565,"0.0-57.0",NA,"656776a7904ae00d6b91d1dd","6568adf5800e9ea660756e1c",7,NA,NA,NA,NA,NA,NA,NA,NA,NA,NA,NA,"3500","[""SV_PolicingMSA/MO_1004/IMG_5_1004.jpg"",""SV_PolicingMSA/MO_1004/IMG_3_1004.jpg"",""SV_PolicingMSA/MO_1004/IMG_0_1004.jpg"",""SV_PolicingMSA/MO_1004/IMG_14_1004.jpg"",""SV_PolicingMSA/MO_1004/IMG_6_1004.jpg"",""SV_PolicingMSA/MO_1004/IMG_9_1004.jpg"",""SV_PolicingMSA/MO_1004/IMG_12_1004.jpg"",""SV_PolicingMSA/MO_1004/IMG_1_1004.jpg""]","3",NA,NA,NA,NA,NA,1,NA,4,"[""./rc_img/cop_condGroup_11_CommunitySafety_autoscaled.png"",""./rc_img/cop_condGroup_11_SafeStreets_autoscaled.png""]",NA,3,NA,"MO_1004","MO_1004",1,1,2,2,2,3,2,"MO_1004",1,2,3,2,1,1,"MO_1004",1,1,2,0,1,1,1,"30","female","woman","","08071",""
"17","sliderTrial","html-slider-response",58,300165,"0.0-58.0",NA,"656776a7904ae00d6b91d1dd","6568adf5800e9ea660756e1c",7,NA,NA,NA,NA,NA,NA,NA,NA,NA,NA,NA,"3598","[""SV_PolicingMSA/MO_1004/IMG_5_1004.jpg"",""SV_PolicingMSA/MO_1004/IMG_3_1004.jpg"",""SV_PolicingMSA/MO_1004/IMG_0_1004.jpg"",""SV_PolicingMSA/MO_1004/IMG_14_1004.jpg"",""SV_PolicingMSA/MO_1004/IMG_6_1004.jpg"",""SV_PolicingMSA/MO_1004/IMG_9_1004.jpg"",""SV_PolicingMSA/MO_1004/IMG_12_1004.jpg"",""SV_PolicingMSA/MO_1004/IMG_1_1004.jpg""]","6",NA,NA,NA,NA,NA,1,NA,4,"[""./rc_img/cop_condGroup_8_SafeStreets_autoscaled.png"",""./rc_img/cop_condGroup_8_CommunitySafety_autoscaled.png""]",NA,2,NA,"MO_1004","MO_1004",1,1,2,2,2,3,2,"MO_1004",1,2,3,2,1,1,"MO_1004",1,1,2,0,1,1,1,"30","female","woman","","08071",""
"18","sliderTrial","html-slider-response",71,356381,"0.0-71.0",NA,"656776a7904ae00d6b91d1dd","6568adf5800e9ea660756e1c",7,NA,NA,NA,NA,NA,NA,NA,NA,NA,NA,NA,"5320","[""SV_PolicingMSA/MO_589/IMG_13_589.jpg"",""SV_PolicingMSA/MO_589/IMG_8_589.jpg"",""SV_PolicingMSA/MO_589/IMG_4_589.jpg"",""SV_PolicingMSA/MO_589/IMG_1_589.jpg"",""SV_PolicingMSA/MO_589/IMG_10_589.jpg"",""SV_PolicingMSA/MO_589/IMG_9_589.jpg"",""SV_PolicingMSA/MO_589/IMG_0_589.jpg"",""SV_PolicingMSA/MO_589/IMG_12_589.jpg""]","6",NA,NA,NA,NA,NA,2,NA,4,"[""./rc_img/cop_condGroup_2_SafeStreets_autoscaled.png"",""./rc_img/cop_condGroup_2_CommunitySafety_autoscaled.png""]",NA,2,NA,"MO_589/","MO_589",2,3,4,0,3,0,4,"MO_589",2,0,0,0,2,1,"MO_589",2,1,2,0,3,3,2,"30","female","woman","","08071",""
"19","sliderTrial","html-slider-response",72,359421,"0.0-72.0",NA,"656776a7904ae00d6b91d1dd","6568adf5800e9ea660756e1c",7,NA,NA,NA,NA,NA,NA,NA,NA,NA,NA,NA,"3038","[""SV_PolicingMSA/MO_589/IMG_13_589.jpg"",""SV_PolicingMSA/MO_589/IMG_8_589.jpg"",""SV_PolicingMSA/MO_589/IMG_4_589.jpg"",""SV_PolicingMSA/MO_589/IMG_1_589.jpg"",""SV_PolicingMSA/MO_589/IMG_10_589.jpg"",""SV_PolicingMSA/MO_589/IMG_9_589.jpg"",""SV_PolicingMSA/MO_589/IMG_0_589.jpg"",""SV_PolicingMSA/MO_589/IMG_12_589.jpg""]","2",NA,NA,NA,NA,NA,2,NA,4,"[""./rc_img/cop_condGroup_4_CommunitySafety_autoscaled.png"",""./rc_img/cop_condGroup_4_SafeStreets_autoscaled.png""]",NA,2,NA,"MO_589/","MO_589",2,3,4,0,3,0,4,"MO_589",2,0,0,0,2,1,"MO_589",2,1,2,0,3,3,2,"30","female","woman","","08071",""
"20","sliderTrial","html-slider-response",73,362269,"0.0-73.0",NA,"656776a7904ae00d6b91d1dd","6568adf5800e9ea660756e1c",7,NA,NA,NA,NA,NA,NA,NA,NA,NA,NA,NA,"2847","[""SV_PolicingMSA/MO_589/IMG_13_589.jpg"",""SV_PolicingMSA/MO_589/IMG_8_589.jpg"",""SV_PolicingMSA/MO_589/IMG_4_589.jpg"",""SV_PolicingMSA/MO_589/IMG_1_589.jpg"",""SV_PolicingMSA/MO_589/IMG_10_589.jpg"",""SV_PolicingMSA/MO_589/IMG_9_589.jpg"",""SV_PolicingMSA/MO_589/IMG_0_589.jpg"",""SV_PolicingMSA/MO_589/IMG_12_589.jpg""]","5",NA,NA,NA,NA,NA,2,NA,4,"[""./rc_img/cop_condGroup_10_SafeStreets_autoscaled.png"",""./rc_img/cop_condGroup_10_CommunitySafety_autoscaled.png""]",NA,3,NA,"MO_589/","MO_589",2,3,4,0,3,0,4,"MO_589",2,0,0,0,2,1,"MO_589",2,1,2,0,3,3,2,"30","female","woman","","08071",""
"21","sliderTrial","html-slider-response",74,365117,"0.0-74.0",NA,"656776a7904ae00d6b91d1dd","6568adf5800e9ea660756e1c",7,NA,NA,NA,NA,NA,NA,NA,NA,NA,NA,NA,"2846","[""SV_PolicingMSA/MO_589/IMG_13_589.jpg"",""SV_PolicingMSA/MO_589/IMG_8_589.jpg"",""SV_PolicingMSA/MO_589/IMG_4_589.jpg"",""SV_PolicingMSA/MO_589/IMG_1_589.jpg"",""SV_PolicingMSA/MO_589/IMG_10_589.jpg"",""SV_PolicingMSA/MO_589/IMG_9_589.jpg"",""SV_PolicingMSA/MO_589/IMG_0_589.jpg"",""SV_PolicingMSA/MO_589/IMG_12_589.jpg""]","2",NA,NA,NA,NA,NA,2,NA,4,"[""./rc_img/cop_condGroup_1_CommunitySafety_autoscaled.png"",""./rc_img/cop_condGroup_1_SafeStreets_autoscaled.png""]",NA,2,NA,"MO_589/","MO_589",2,3,4,0,3,0,4,"MO_589",2,0,0,0,2,1,"MO_589",2,1,2,0,3,3,2,"30","female","woman","","08071",""
"22","sliderTrial","html-slider-response",75,368093,"0.0-75.0",NA,"656776a7904ae00d6b91d1dd","6568adf5800e9ea660756e1c",7,NA,NA,NA,NA,NA,NA,NA,NA,NA,NA,NA,"2976","[""SV_PolicingMSA/MO_589/IMG_13_589.jpg"",""SV_PolicingMSA/MO_589/IMG_8_589.jpg"",""SV_PolicingMSA/MO_589/IMG_4_589.jpg"",""SV_PolicingMSA/MO_589/IMG_1_589.jpg"",""SV_PolicingMSA/MO_589/IMG_10_589.jpg"",""SV_PolicingMSA/MO_589/IMG_9_589.jpg"",""SV_PolicingMSA/MO_589/IMG_0_589.jpg"",""SV_PolicingMSA/MO_589/IMG_12_589.jpg""]","2",NA,NA,NA,NA,NA,2,NA,4,"[""./rc_img/cop_condGroup_9_CommunitySafety_autoscaled.png"",""./rc_img/cop_condGroup_9_SafeStreets_autoscaled.png""]",NA,2,NA,"MO_589/","MO_589",2,3,4,0,3,0,4,"MO_589",2,0,0,0,2,1,"MO_589",2,1,2,0,3,3,2,"30","female","woman","","08071",""
"23","sliderTrial","html-slider-response",89,435038,"0.0-89.0",NA,"656776a7904ae00d6b91d1dd","6568adf5800e9ea660756e1c",7,NA,NA,NA,NA,NA,NA,NA,NA,NA,NA,NA,"3984","[""SV_PolicingMSA/MO_628/IMG_14_628.jpg"",""SV_PolicingMSA/MO_628/IMG_10_628.jpg"",""SV_PolicingMSA/MO_628/IMG_6_628.jpg"",""SV_PolicingMSA/MO_628/IMG_9_628.jpg"",""SV_PolicingMSA/MO_628/IMG_4_628.jpg"",""SV_PolicingMSA/MO_628/IMG_1_628.jpg"",""SV_PolicingMSA/MO_628/IMG_5_628.jpg"",""SV_PolicingMSA/MO_628/IMG_0_628.jpg""]","6",NA,NA,NA,NA,NA,3,NA,4,"[""./rc_img/cop_condGroup_19_SafeStreets_autoscaled.png"",""./rc_img/cop_condGroup_19_CommunitySafety_autoscaled.png""]",NA,2,NA,"MO_628/","MO_628",3,3,4,3,4,2,5,"MO_628",3,0,1,1,3,3,"MO_628",3,3,1,2,3,3,3,"30","female","woman","","08071",""
"24","sliderTrial","html-slider-response",90,438269,"0.0-90.0",NA,"656776a7904ae00d6b91d1dd","6568adf5800e9ea660756e1c",7,NA,NA,NA,NA,NA,NA,NA,NA,NA,NA,NA,"3232","[""SV_PolicingMSA/MO_628/IMG_14_628.jpg"",""SV_PolicingMSA/MO_628/IMG_10_628.jpg"",""SV_PolicingMSA/MO_628/IMG_6_628.jpg"",""SV_PolicingMSA/MO_628/IMG_9_628.jpg"",""SV_PolicingMSA/MO_628/IMG_4_628.jpg"",""SV_PolicingMSA/MO_628/IMG_1_628.jpg"",""SV_PolicingMSA/MO_628/IMG_5_628.jpg"",""SV_PolicingMSA/MO_628/IMG_0_628.jpg""]","2",NA,NA,NA,NA,NA,3,NA,4,"[""./rc_img/cop_condGroup_18_CommunitySafety_autoscaled.png"",""./rc_img/cop_condGroup_18_SafeStreets_autoscaled.png""]",NA,2,NA,"MO_628/","MO_628",3,3,4,3,4,2,5,"MO_628",3,0,1,1,3,3,"MO_628",3,3,1,2,3,3,3,"30","female","woman","","08071",""
"25","sliderTrial","html-slider-response",91,441077,"0.0-91.0",NA,"656776a7904ae00d6b91d1dd","6568adf5800e9ea660756e1c",7,NA,NA,NA,NA,NA,NA,NA,NA,NA,NA,NA,"2807","[""SV_PolicingMSA/MO_628/IMG_14_628.jpg"",""SV_PolicingMSA/MO_628/IMG_10_628.jpg"",""SV_PolicingMSA/MO_628/IMG_6_628.jpg"",""SV_PolicingMSA/MO_628/IMG_9_628.jpg"",""SV_PolicingMSA/MO_628/IMG_4_628.jpg"",""SV_PolicingMSA/MO_628/IMG_1_628.jpg"",""SV_PolicingMSA/MO_628/IMG_5_628.jpg"",""SV_PolicingMSA/MO_628/IMG_0_628.jpg""]","6",NA,NA,NA,NA,NA,3,NA,4,"[""./rc_img/cop_condGroup_17_SafeStreets_autoscaled.png"",""./rc_img/cop_condGroup_17_CommunitySafety_autoscaled.png""]",NA,2,NA,"MO_628/","MO_628",3,3,4,3,4,2,5,"MO_628",3,0,1,1,3,3,"MO_628",3,3,1,2,3,3,3,"30","female","woman","","08071",""
"26","sliderTrial","html-slider-response",92,443710,"0.0-92.0",NA,"656776a7904ae00d6b91d1dd","6568adf5800e9ea660756e1c",7,NA,NA,NA,NA,NA,NA,NA,NA,NA,NA,NA,"2632","[""SV_PolicingMSA/MO_628/IMG_14_628.jpg"",""SV_PolicingMSA/MO_628/IMG_10_628.jpg"",""SV_PolicingMSA/MO_628/IMG_6_628.jpg"",""SV_PolicingMSA/MO_628/IMG_9_628.jpg"",""SV_PolicingMSA/MO_628/IMG_4_628.jpg"",""SV_PolicingMSA/MO_628/IMG_1_628.jpg"",""SV_PolicingMSA/MO_628/IMG_5_628.jpg"",""SV_PolicingMSA/MO_628/IMG_0_628.jpg""]","6",NA,NA,NA,NA,NA,3,NA,4,"[""./rc_img/cop_condGroup_16_SafeStreets_autoscaled.png"",""./rc_img/cop_condGroup_16_CommunitySafety_autoscaled.png""]",NA,2,NA,"MO_628/","MO_628",3,3,4,3,4,2,5,"MO_628",3,0,1,1,3,3,"MO_628",3,3,1,2,3,3,3,"30","female","woman","","08071",""
"27","sliderTrial","html-slider-response",93,447413,"0.0-93.0",NA,"656776a7904ae00d6b91d1dd","6568adf5800e9ea660756e1c",7,NA,NA,NA,NA,NA,NA,NA,NA,NA,NA,NA,"3703","[""SV_PolicingMSA/MO_628/IMG_14_628.jpg"",""SV_PolicingMSA/MO_628/IMG_10_628.jpg"",""SV_PolicingMSA/MO_628/IMG_6_628.jpg"",""SV_PolicingMSA/MO_628/IMG_9_628.jpg"",""SV_PolicingMSA/MO_628/IMG_4_628.jpg"",""SV_PolicingMSA/MO_628/IMG_1_628.jpg"",""SV_PolicingMSA/MO_628/IMG_5_628.jpg"",""SV_PolicingMSA/MO_628/IMG_0_628.jpg""]","7",NA,NA,NA,NA,NA,3,NA,4,"[""./rc_img/cop_condGroup_20_SafeStreets_autoscaled.png"",""./rc_img/cop_condGroup_20_CommunitySafety_autoscaled.png""]",NA,1,NA,"MO_628/","MO_628",3,3,4,3,4,2,5,"MO_628",3,0,1,1,3,3,"MO_628",3,3,1,2,3,3,3,"30","female","woman","","08071",""
"28","sliderTrial","html-slider-response",106,495382,"0.0-106.0",NA,"656776a7904ae00d6b91d1dd","6568adf5800e9ea660756e1c",7,NA,NA,NA,NA,NA,NA,NA,NA,NA,NA,NA,"3600","[""SV_PolicingMSA/MO_60/IMG_7_60.jpg"",""SV_PolicingMSA/MO_60/IMG_10_60.jpg"",""SV_PolicingMSA/MO_60/IMG_14_60.jpg"",""SV_PolicingMSA/MO_60/IMG_3_60.jpg"",""SV_PolicingMSA/MO_60/IMG_0_60.jpg"",""SV_PolicingMSA/MO_60/IMG_12_60.jpg"",""SV_PolicingMSA/MO_60/IMG_5_60.jpg"",""SV_PolicingMSA/MO_60/IMG_13_60.jpg""]","6",NA,NA,NA,NA,NA,4,NA,4,"[""./rc_img/cop_condGroup_7_SafeStreets_autoscaled.png"",""./rc_img/cop_condGroup_7_CommunitySafety_autoscaled.png""]",NA,2,NA,"MO_60/I","MO_60I",4,3,4,1,3,0,7,"MO_60I",4,0,0,1,2,1,"MO_60I",4,1,2,0,3,2,2,"30","female","woman","","08071",""
"29","sliderTrial","html-slider-response",107,499150,"0.0-107.0",NA,"656776a7904ae00d6b91d1dd","6568adf5800e9ea660756e1c",7,NA,NA,NA,NA,NA,NA,NA,NA,NA,NA,NA,"3767","[""SV_PolicingMSA/MO_60/IMG_7_60.jpg"",""SV_PolicingMSA/MO_60/IMG_10_60.jpg"",""SV_PolicingMSA/MO_60/IMG_14_60.jpg"",""SV_PolicingMSA/MO_60/IMG_3_60.jpg"",""SV_PolicingMSA/MO_60/IMG_0_60.jpg"",""SV_PolicingMSA/MO_60/IMG_12_60.jpg"",""SV_PolicingMSA/MO_60/IMG_5_60.jpg"",""SV_PolicingMSA/MO_60/IMG_13_60.jpg""]","2",NA,NA,NA,NA,NA,4,NA,4,"[""./rc_img/cop_condGroup_13_CommunitySafety_autoscaled.png"",""./rc_img/cop_condGroup_13_SafeStreets_autoscaled.png""]",NA,2,NA,"MO_60/I","MO_60I",4,3,4,1,3,0,7,"MO_60I",4,0,0,1,2,1,"MO_60I",4,1,2,0,3,2,2,"30","female","woman","","08071",""
"30","sliderTrial","html-slider-response",108,502092,"0.0-108.0",NA,"656776a7904ae00d6b91d1dd","6568adf5800e9ea660756e1c",7,NA,NA,NA,NA,NA,NA,NA,NA,NA,NA,NA,"2942","[""SV_PolicingMSA/MO_60/IMG_7_60.jpg"",""SV_PolicingMSA/MO_60/IMG_10_60.jpg"",""SV_PolicingMSA/MO_60/IMG_14_60.jpg"",""SV_PolicingMSA/MO_60/IMG_3_60.jpg"",""SV_PolicingMSA/MO_60/IMG_0_60.jpg"",""SV_PolicingMSA/MO_60/IMG_12_60.jpg"",""SV_PolicingMSA/MO_60/IMG_5_60.jpg"",""SV_PolicingMSA/MO_60/IMG_13_60.jpg""]","2",NA,NA,NA,NA,NA,4,NA,4,"[""./rc_img/cop_condGroup_12_CommunitySafety_autoscaled.png"",""./rc_img/cop_condGroup_12_SafeStreets_autoscaled.png""]",NA,2,NA,"MO_60/I","MO_60I",4,3,4,1,3,0,7,"MO_60I",4,0,0,1,2,1,"MO_60I",4,1,2,0,3,2,2,"30","female","woman","","08071",""
"31","sliderTrial","html-slider-response",109,504445,"0.0-109.0",NA,"656776a7904ae00d6b91d1dd","6568adf5800e9ea660756e1c",7,NA,NA,NA,NA,NA,NA,NA,NA,NA,NA,NA,"2351","[""SV_PolicingMSA/MO_60/IMG_7_60.jpg"",""SV_PolicingMSA/MO_60/IMG_10_60.jpg"",""SV_PolicingMSA/MO_60/IMG_14_60.jpg"",""SV_PolicingMSA/MO_60/IMG_3_60.jpg"",""SV_PolicingMSA/MO_60/IMG_0_60.jpg"",""SV_PolicingMSA/MO_60/IMG_12_60.jpg"",""SV_PolicingMSA/MO_60/IMG_5_60.jpg"",""SV_PolicingMSA/MO_60/IMG_13_60.jpg""]","5",NA,NA,NA,NA,NA,4,NA,4,"[""./rc_img/cop_condGroup_14_SafeStreets_autoscaled.png"",""./rc_img/cop_condGroup_14_CommunitySafety_autoscaled.png""]",NA,3,NA,"MO_60/I","MO_60I",4,3,4,1,3,0,7,"MO_60I",4,0,0,1,2,1,"MO_60I",4,1,2,0,3,2,2,"30","female","woman","","08071",""
"32","sliderTrial","html-slider-response",110,508117,"0.0-110.0",NA,"656776a7904ae00d6b91d1dd","6568adf5800e9ea660756e1c",7,NA,NA,NA,NA,NA,NA,NA,NA,NA,NA,NA,"3671","[""SV_PolicingMSA/MO_60/IMG_7_60.jpg"",""SV_PolicingMSA/MO_60/IMG_10_60.jpg"",""SV_PolicingMSA/MO_60/IMG_14_60.jpg"",""SV_PolicingMSA/MO_60/IMG_3_60.jpg"",""SV_PolicingMSA/MO_60/IMG_0_60.jpg"",""SV_PolicingMSA/MO_60/IMG_12_60.jpg"",""SV_PolicingMSA/MO_60/IMG_5_60.jpg"",""SV_PolicingMSA/MO_60/IMG_13_60.jpg""]","3",NA,NA,NA,NA,NA,4,NA,4,"[""./rc_img/cop_condGroup_15_SafeStreets_autoscaled.png"",""./rc_img/cop_condGroup_15_CommunitySafety_autoscaled.png""]",NA,5,NA,"MO_60/I","MO_60I",4,3,4,1,3,0,7,"MO_60I",4,0,0,1,2,1,"MO_60I",4,1,2,0,3,2,2,"30","female","woman","","08071",""
"33","sliderTrial","html-slider-response",123,556445,"0.0-123.0",NA,"656776a7904ae00d6b91d1dd","6568adf5800e9ea660756e1c",7,NA,NA,NA,NA,NA,NA,NA,NA,NA,NA,NA,"3408","[""SV_PolicingMSA/MO_1289/IMG_7_1289.jpg"",""SV_PolicingMSA/MO_1289/IMG_11_1289.jpg"",""SV_PolicingMSA/MO_1289/IMG_5_1289.jpg"",""SV_PolicingMSA/MO_1289/IMG_4_1289.jpg"",""SV_PolicingMSA/MO_1289/IMG_6_1289.jpg"",""SV_PolicingMSA/MO_1289/IMG_3_1289.jpg"",""SV_PolicingMSA/MO_1289/IMG_1_1289.jpg"",""SV_PolicingMSA/MO_1289/IMG_8_1289.jpg""]","5",NA,NA,NA,NA,NA,3,NA,4,"[""./rc_img/cop_condGroup_6_CommunitySafety_autoscaled.png"",""./rc_img/cop_condGroup_6_SafeStreets_autoscaled.png""]",NA,5,NA,"MO_1289","MO_1289",3,4,4,2,2,1,6,"MO_1289",3,0,0,0,3,2,"MO_1289",3,2,1,0,4,3,3,"30","female","woman","","08071",""
"34","sliderTrial","html-slider-response",124,559398,"0.0-124.0",NA,"656776a7904ae00d6b91d1dd","6568adf5800e9ea660756e1c",7,NA,NA,NA,NA,NA,NA,NA,NA,NA,NA,NA,"2951","[""SV_PolicingMSA/MO_1289/IMG_7_1289.jpg"",""SV_PolicingMSA/MO_1289/IMG_11_1289.jpg"",""SV_PolicingMSA/MO_1289/IMG_5_1289.jpg"",""SV_PolicingMSA/MO_1289/IMG_4_1289.jpg"",""SV_PolicingMSA/MO_1289/IMG_6_1289.jpg"",""SV_PolicingMSA/MO_1289/IMG_3_1289.jpg"",""SV_PolicingMSA/MO_1289/IMG_1_1289.jpg"",""SV_PolicingMSA/MO_1289/IMG_8_1289.jpg""]","3",NA,NA,NA,NA,NA,3,NA,4,"[""./rc_img/cop_condGroup_3_CommunitySafety_autoscaled.png"",""./rc_img/cop_condGroup_3_SafeStreets_autoscaled.png""]",NA,3,NA,"MO_1289","MO_1289",3,4,4,2,2,1,6,"MO_1289",3,0,0,0,3,2,"MO_1289",3,2,1,0,4,3,3,"30","female","woman","","08071",""
"35","sliderTrial","html-slider-response",125,561838,"0.0-125.0",NA,"656776a7904ae00d6b91d1dd","6568adf5800e9ea660756e1c",7,NA,NA,NA,NA,NA,NA,NA,NA,NA,NA,NA,"2438","[""SV_PolicingMSA/MO_1289/IMG_7_1289.jpg"",""SV_PolicingMSA/MO_1289/IMG_11_1289.jpg"",""SV_PolicingMSA/MO_1289/IMG_5_1289.jpg"",""SV_PolicingMSA/MO_1289/IMG_4_1289.jpg"",""SV_PolicingMSA/MO_1289/IMG_6_1289.jpg"",""SV_PolicingMSA/MO_1289/IMG_3_1289.jpg"",""SV_PolicingMSA/MO_1289/IMG_1_1289.jpg"",""SV_PolicingMSA/MO_1289/IMG_8_1289.jpg""]","3",NA,NA,NA,NA,NA,3,NA,4,"[""./rc_img/cop_condGroup_5_CommunitySafety_autoscaled.png"",""./rc_img/cop_condGroup_5_SafeStreets_autoscaled.png""]",NA,3,NA,"MO_1289","MO_1289",3,4,4,2,2,1,6,"MO_1289",3,0,0,0,3,2,"MO_1289",3,2,1,0,4,3,3,"30","female","woman","","08071",""
"36","sliderTrial","html-slider-response",126,564877,"0.0-126.0",NA,"656776a7904ae00d6b91d1dd","6568adf5800e9ea660756e1c",7,NA,NA,NA,NA,NA,NA,NA,NA,NA,NA,NA,"3039","[""SV_PolicingMSA/MO_1289/IMG_7_1289.jpg"",""SV_PolicingMSA/MO_1289/IMG_11_1289.jpg"",""SV_PolicingMSA/MO_1289/IMG_5_1289.jpg"",""SV_PolicingMSA/MO_1289/IMG_4_1289.jpg"",""SV_PolicingMSA/MO_1289/IMG_6_1289.jpg"",""SV_PolicingMSA/MO_1289/IMG_3_1289.jpg"",""SV_PolicingMSA/MO_1289/IMG_1_1289.jpg"",""SV_PolicingMSA/MO_1289/IMG_8_1289.jpg""]","3",NA,NA,NA,NA,NA,3,NA,4,"[""./rc_img/cop_condGroup_11_CommunitySafety_autoscaled.png"",""./rc_img/cop_condGroup_11_SafeStreets_autoscaled.png""]",NA,3,NA,"MO_1289","MO_1289",3,4,4,2,2,1,6,"MO_1289",3,0,0,0,3,2,"MO_1289",3,2,1,0,4,3,3,"30","female","woman","","08071",""
"37","sliderTrial","html-slider-response",127,567750,"0.0-127.0",NA,"656776a7904ae00d6b91d1dd","6568adf5800e9ea660756e1c",7,NA,NA,NA,NA,NA,NA,NA,NA,NA,NA,NA,"2871","[""SV_PolicingMSA/MO_1289/IMG_7_1289.jpg"",""SV_PolicingMSA/MO_1289/IMG_11_1289.jpg"",""SV_PolicingMSA/MO_1289/IMG_5_1289.jpg"",""SV_PolicingMSA/MO_1289/IMG_4_1289.jpg"",""SV_PolicingMSA/MO_1289/IMG_6_1289.jpg"",""SV_PolicingMSA/MO_1289/IMG_3_1289.jpg"",""SV_PolicingMSA/MO_1289/IMG_1_1289.jpg"",""SV_PolicingMSA/MO_1289/IMG_8_1289.jpg""]","6",NA,NA,NA,NA,NA,3,NA,4,"[""./rc_img/cop_condGroup_8_SafeStreets_autoscaled.png"",""./rc_img/cop_condGroup_8_CommunitySafety_autoscaled.png""]",NA,2,NA,"MO_1289","MO_1289",3,4,4,2,2,1,6,"MO_1289",3,0,0,0,3,2,"MO_1289",3,2,1,0,4,3,3,"30","female","woman","","08071",""
"38","sliderTrial","html-slider-response",140,618317,"0.0-140.0",NA,"656776a7904ae00d6b91d1dd","6568adf5800e9ea660756e1c",7,NA,NA,NA,NA,NA,NA,NA,NA,NA,NA,NA,"3944","[""SV_PolicingMSA/MO_1278/IMG_6_1278.jpg"",""SV_PolicingMSA/MO_1278/IMG_0_1278.jpg"",""SV_PolicingMSA/MO_1278/IMG_14_1278.jpg"",""SV_PolicingMSA/MO_1278/IMG_4_1278.jpg"",""SV_PolicingMSA/MO_1278/IMG_9_1278.jpg"",""SV_PolicingMSA/MO_1278/IMG_1_1278.jpg"",""SV_PolicingMSA/MO_1278/IMG_2_1278.jpg"",""SV_PolicingMSA/MO_1278/IMG_12_1278.jpg""]","6",NA,NA,NA,NA,NA,5,NA,4,"[""./rc_img/cop_condGroup_19_SafeStreets_autoscaled.png"",""./rc_img/cop_condGroup_19_CommunitySafety_autoscaled.png""]",NA,2,NA,"MO_1278","MO_1278",5,4,4,3,3,2,8,"MO_1278",5,0,0,0,3,2,"MO_1278",5,2,1,1,4,3,4,"30","female","woman","","08071",""
"39","sliderTrial","html-slider-response",141,621302,"0.0-141.0",NA,"656776a7904ae00d6b91d1dd","6568adf5800e9ea660756e1c",7,NA,NA,NA,NA,NA,NA,NA,NA,NA,NA,NA,"2984","[""SV_PolicingMSA/MO_1278/IMG_6_1278.jpg"",""SV_PolicingMSA/MO_1278/IMG_0_1278.jpg"",""SV_PolicingMSA/MO_1278/IMG_14_1278.jpg"",""SV_PolicingMSA/MO_1278/IMG_4_1278.jpg"",""SV_PolicingMSA/MO_1278/IMG_9_1278.jpg"",""SV_PolicingMSA/MO_1278/IMG_1_1278.jpg"",""SV_PolicingMSA/MO_1278/IMG_2_1278.jpg"",""SV_PolicingMSA/MO_1278/IMG_12_1278.jpg""]","3",NA,NA,NA,NA,NA,5,NA,4,"[""./rc_img/cop_condGroup_18_CommunitySafety_autoscaled.png"",""./rc_img/cop_condGroup_18_SafeStreets_autoscaled.png""]",NA,3,NA,"MO_1278","MO_1278",5,4,4,3,3,2,8,"MO_1278",5,0,0,0,3,2,"MO_1278",5,2,1,1,4,3,4,"30","female","woman","","08071",""
"40","sliderTrial","html-slider-response",142,623958,"0.0-142.0",NA,"656776a7904ae00d6b91d1dd","6568adf5800e9ea660756e1c",7,NA,NA,NA,NA,NA,NA,NA,NA,NA,NA,NA,"2655","[""SV_PolicingMSA/MO_1278/IMG_6_1278.jpg"",""SV_PolicingMSA/MO_1278/IMG_0_1278.jpg"",""SV_PolicingMSA/MO_1278/IMG_14_1278.jpg"",""SV_PolicingMSA/MO_1278/IMG_4_1278.jpg"",""SV_PolicingMSA/MO_1278/IMG_9_1278.jpg"",""SV_PolicingMSA/MO_1278/IMG_1_1278.jpg"",""SV_PolicingMSA/MO_1278/IMG_2_1278.jpg"",""SV_PolicingMSA/MO_1278/IMG_12_1278.jpg""]","5",NA,NA,NA,NA,NA,5,NA,4,"[""./rc_img/cop_condGroup_17_SafeStreets_autoscaled.png"",""./rc_img/cop_condGroup_17_CommunitySafety_autoscaled.png""]",NA,3,NA,"MO_1278","MO_1278",5,4,4,3,3,2,8,"MO_1278",5,0,0,0,3,2,"MO_1278",5,2,1,1,4,3,4,"30","female","woman","","08071",""
"41","sliderTrial","html-slider-response",143,627838,"0.0-143.0",NA,"656776a7904ae00d6b91d1dd","6568adf5800e9ea660756e1c",7,NA,NA,NA,NA,NA,NA,NA,NA,NA,NA,NA,"3879","[""SV_PolicingMSA/MO_1278/IMG_6_1278.jpg"",""SV_PolicingMSA/MO_1278/IMG_0_1278.jpg"",""SV_PolicingMSA/MO_1278/IMG_14_1278.jpg"",""SV_PolicingMSA/MO_1278/IMG_4_1278.jpg"",""SV_PolicingMSA/MO_1278/IMG_9_1278.jpg"",""SV_PolicingMSA/MO_1278/IMG_1_1278.jpg"",""SV_PolicingMSA/MO_1278/IMG_2_1278.jpg"",""SV_PolicingMSA/MO_1278/IMG_12_1278.jpg""]","6",NA,NA,NA,NA,NA,5,NA,4,"[""./rc_img/cop_condGroup_16_SafeStreets_autoscaled.png"",""./rc_img/cop_condGroup_16_CommunitySafety_autoscaled.png""]",NA,2,NA,"MO_1278","MO_1278",5,4,4,3,3,2,8,"MO_1278",5,0,0,0,3,2,"MO_1278",5,2,1,1,4,3,4,"30","female","woman","","08071",""
"42","sliderTrial","html-slider-response",144,630477,"0.0-144.0",NA,"656776a7904ae00d6b91d1dd","6568adf5800e9ea660756e1c",7,NA,NA,NA,NA,NA,NA,NA,NA,NA,NA,NA,"2639","[""SV_PolicingMSA/MO_1278/IMG_6_1278.jpg"",""SV_PolicingMSA/MO_1278/IMG_0_1278.jpg"",""SV_PolicingMSA/MO_1278/IMG_14_1278.jpg"",""SV_PolicingMSA/MO_1278/IMG_4_1278.jpg"",""SV_PolicingMSA/MO_1278/IMG_9_1278.jpg"",""SV_PolicingMSA/MO_1278/IMG_1_1278.jpg"",""SV_PolicingMSA/MO_1278/IMG_2_1278.jpg"",""SV_PolicingMSA/MO_1278/IMG_12_1278.jpg""]","5",NA,NA,NA,NA,NA,5,NA,4,"[""./rc_img/cop_condGroup_20_SafeStreets_autoscaled.png"",""./rc_img/cop_condGroup_20_CommunitySafety_autoscaled.png""]",NA,3,NA,"MO_1278","MO_1278",5,4,4,3,3,2,8,"MO_1278",5,0,0,0,3,2,"MO_1278",5,2,1,1,4,3,4,"30","female","woman","","08071",""
