"","task","trial_type","trial_index","time_elapsed","internal_node_id","subject_id","study_id","session_id","section","width","height","webaudio","browser","browser_version","mobile","os","fullscreen","vsync_rate","webcam","microphone","rt","stimulus","response","success","timeout","failed_images","failed_audio","failed_video","block.x.x","accuracy","slider_start","choices","standardized_response","correct","num_attention_checks_correct","stim_tract","stim_tractT","block.x","P0_Q1.wealthy","P0_Q1.safe","P0_Q1.walkable","P0_Q1.traditional","P0_Q1.diverse","block_fixed","stim_tractT.x","block.y","P0_Q1.violence","P0_Q1.crime","P0_Q1.drug","P0_Q1.schools","P0_Q1.opportunities","stim_tractT.y","block.y.y","P0_Q1.movein","P0_Q1.moveout","P0_Q1.shopping","P0_Q1.walk","P0_Q1.park","P0_Q1.school","age","sex","gender","gender-self-describe","zipcode","surveyComments"
"1","sliderTrial","html-slider-response",18,82911,"0.0-18.0",NA,"656776a7904ae00d6b91d1dd","6568ade3272517370d401596",5,NA,NA,NA,NA,NA,NA,NA,NA,NA,NA,NA,"8946","[""SV_PolicingMSA/MI_1103/IMG_5_1103.jpg"",""SV_PolicingMSA/MI_1103/IMG_9_1103.jpg"",""SV_PolicingMSA/MI_1103/IMG_13_1103.jpg"",""SV_PolicingMSA/MI_1103/IMG_8_1103.jpg"",""SV_PolicingMSA/MI_1103/IMG_12_1103.jpg"",""SV_PolicingMSA/MI_1103/IMG_2_1103.jpg"",""SV_PolicingMSA/MI_1103/IMG_0_1103.jpg"",""SV_PolicingMSA/MI_1103/IMG_1_1103.jpg""]","1",NA,NA,NA,NA,NA,5,NA,4,"[""./rc_img/cop_condGroup_7_CommunitySafety_autoscaled.png"",""./rc_img/cop_condGroup_7_SafeStreets_autoscaled.png""]",1,NA,NA,"MI_1103","MI_1103",5,1,1,2,1,1,8,"MI_1103",5,2,2,2,2,2,"MI_1103",5,0,0,0,0,0,0,"19","male","man","","77075",""
"2","sliderTrial","html-slider-response",19,86465,"0.0-19.0",NA,"656776a7904ae00d6b91d1dd","6568ade3272517370d401596",5,NA,NA,NA,NA,NA,NA,NA,NA,NA,NA,NA,"3552","[""SV_PolicingMSA/MI_1103/IMG_5_1103.jpg"",""SV_PolicingMSA/MI_1103/IMG_9_1103.jpg"",""SV_PolicingMSA/MI_1103/IMG_13_1103.jpg"",""SV_PolicingMSA/MI_1103/IMG_8_1103.jpg"",""SV_PolicingMSA/MI_1103/IMG_12_1103.jpg"",""SV_PolicingMSA/MI_1103/IMG_2_1103.jpg"",""SV_PolicingMSA/MI_1103/IMG_0_1103.jpg"",""SV_PolicingMSA/MI_1103/IMG_1_1103.jpg""]","7",NA,NA,NA,NA,NA,5,NA,4,"[""./rc_img/cop_condGroup_13_SafeStreets_autoscaled.png"",""./rc_img/cop_condGroup_13_CommunitySafety_autoscaled.png""]",1,NA,NA,"MI_1103","MI_1103",5,1,1,2,1,1,8,"MI_1103",5,2,2,2,2,2,"MI_1103",5,0,0,0,0,0,0,"19","male","man","","77075",""
"3","sliderTrial","html-slider-response",20,89414,"0.0-20.0",NA,"656776a7904ae00d6b91d1dd","6568ade3272517370d401596",5,NA,NA,NA,NA,NA,NA,NA,NA,NA,NA,NA,"2948","[""SV_PolicingMSA/MI_1103/IMG_5_1103.jpg"",""SV_PolicingMSA/MI_1103/IMG_9_1103.jpg"",""SV_PolicingMSA/MI_1103/IMG_13_1103.jpg"",""SV_PolicingMSA/MI_1103/IMG_8_1103.jpg"",""SV_PolicingMSA/MI_1103/IMG_12_1103.jpg"",""SV_PolicingMSA/MI_1103/IMG_2_1103.jpg"",""SV_PolicingMSA/MI_1103/IMG_0_1103.jpg"",""SV_PolicingMSA/MI_1103/IMG_1_1103.jpg""]","2",NA,NA,NA,NA,NA,5,NA,4,"[""./rc_img/cop_condGroup_17_CommunitySafety_autoscaled.png"",""./rc_img/cop_condGroup_17_SafeStreets_autoscaled.png""]",2,NA,NA,"MI_1103","MI_1103",5,1,1,2,1,1,8,"MI_1103",5,2,2,2,2,2,"MI_1103",5,0,0,0,0,0,0,"19","male","man","","77075",""
"4","sliderTrial","html-slider-response",21,91526,"0.0-21.0",NA,"656776a7904ae00d6b91d1dd","6568ade3272517370d401596",5,NA,NA,NA,NA,NA,NA,NA,NA,NA,NA,NA,"2110","[""SV_PolicingMSA/MI_1103/IMG_5_1103.jpg"",""SV_PolicingMSA/MI_1103/IMG_9_1103.jpg"",""SV_PolicingMSA/MI_1103/IMG_13_1103.jpg"",""SV_PolicingMSA/MI_1103/IMG_8_1103.jpg"",""SV_PolicingMSA/MI_1103/IMG_12_1103.jpg"",""SV_PolicingMSA/MI_1103/IMG_2_1103.jpg"",""SV_PolicingMSA/MI_1103/IMG_0_1103.jpg"",""SV_PolicingMSA/MI_1103/IMG_1_1103.jpg""]","7",NA,NA,NA,NA,NA,5,NA,4,"[""./rc_img/cop_condGroup_8_SafeStreets_autoscaled.png"",""./rc_img/cop_condGroup_8_CommunitySafety_autoscaled.png""]",1,NA,NA,"MI_1103","MI_1103",5,1,1,2,1,1,8,"MI_1103",5,2,2,2,2,2,"MI_1103",5,0,0,0,0,0,0,"19","male","man","","77075",""
"5","sliderTrial","html-slider-response",22,95428,"0.0-22.0",NA,"656776a7904ae00d6b91d1dd","6568ade3272517370d401596",5,NA,NA,NA,NA,NA,NA,NA,NA,NA,NA,NA,"3899","[""SV_PolicingMSA/MI_1103/IMG_5_1103.jpg"",""SV_PolicingMSA/MI_1103/IMG_9_1103.jpg"",""SV_PolicingMSA/MI_1103/IMG_13_1103.jpg"",""SV_PolicingMSA/MI_1103/IMG_8_1103.jpg"",""SV_PolicingMSA/MI_1103/IMG_12_1103.jpg"",""SV_PolicingMSA/MI_1103/IMG_2_1103.jpg"",""SV_PolicingMSA/MI_1103/IMG_0_1103.jpg"",""SV_PolicingMSA/MI_1103/IMG_1_1103.jpg""]","7",NA,NA,NA,NA,NA,5,NA,4,"[""./rc_img/cop_condGroup_9_SafeStreets_autoscaled.png"",""./rc_img/cop_condGroup_9_CommunitySafety_autoscaled.png""]",1,NA,NA,"MI_1103","MI_1103",5,1,1,2,1,1,8,"MI_1103",5,2,2,2,2,2,"MI_1103",5,0,0,0,0,0,0,"19","male","man","","77075",""
"6","sliderTrial","html-slider-response",35,135561,"0.0-35.0",NA,"656776a7904ae00d6b91d1dd","6568ade3272517370d401596",5,NA,NA,NA,NA,NA,NA,NA,NA,NA,NA,NA,"5002","[""SV_PolicingMSA/MI_1868/IMG_10_1868.jpg"",""SV_PolicingMSA/MI_1868/IMG_4_1868.jpg"",""SV_PolicingMSA/MI_1868/IMG_13_1868.jpg"",""SV_PolicingMSA/MI_1868/IMG_3_1868.jpg"",""SV_PolicingMSA/MI_1868/IMG_1_1868.jpg"",""SV_PolicingMSA/MI_1868/IMG_11_1868.jpg"",""SV_PolicingMSA/MI_1868/IMG_0_1868.jpg"",""SV_PolicingMSA/MI_1868/IMG_8_1868.jpg""]","5",NA,NA,NA,NA,NA,2,NA,4,"[""./rc_img/cop_condGroup_15_CommunitySafety_autoscaled.png"",""./rc_img/cop_condGroup_15_SafeStreets_autoscaled.png""]",5,NA,NA,"MI_1868","MI_1868",2,1,1,2,1,1,3,"MI_1868",2,2,2,3,1,1,"MI_1868",2,0,0,0,0,0,0,"19","male","man","","77075",""
"7","sliderTrial","html-slider-response",36,138007,"0.0-36.0",NA,"656776a7904ae00d6b91d1dd","6568ade3272517370d401596",5,NA,NA,NA,NA,NA,NA,NA,NA,NA,NA,NA,"2444","[""SV_PolicingMSA/MI_1868/IMG_10_1868.jpg"",""SV_PolicingMSA/MI_1868/IMG_4_1868.jpg"",""SV_PolicingMSA/MI_1868/IMG_13_1868.jpg"",""SV_PolicingMSA/MI_1868/IMG_3_1868.jpg"",""SV_PolicingMSA/MI_1868/IMG_1_1868.jpg"",""SV_PolicingMSA/MI_1868/IMG_11_1868.jpg"",""SV_PolicingMSA/MI_1868/IMG_0_1868.jpg"",""SV_PolicingMSA/MI_1868/IMG_8_1868.jpg""]","3",NA,NA,NA,NA,NA,2,NA,4,"[""./rc_img/cop_condGroup_6_SafeStreets_autoscaled.png"",""./rc_img/cop_condGroup_6_CommunitySafety_autoscaled.png""]",5,NA,NA,"MI_1868","MI_1868",2,1,1,2,1,1,3,"MI_1868",2,2,2,3,1,1,"MI_1868",2,0,0,0,0,0,0,"19","male","man","","77075",""
"8","sliderTrial","html-slider-response",37,139934,"0.0-37.0",NA,"656776a7904ae00d6b91d1dd","6568ade3272517370d401596",5,NA,NA,NA,NA,NA,NA,NA,NA,NA,NA,NA,"1924","[""SV_PolicingMSA/MI_1868/IMG_10_1868.jpg"",""SV_PolicingMSA/MI_1868/IMG_4_1868.jpg"",""SV_PolicingMSA/MI_1868/IMG_13_1868.jpg"",""SV_PolicingMSA/MI_1868/IMG_3_1868.jpg"",""SV_PolicingMSA/MI_1868/IMG_1_1868.jpg"",""SV_PolicingMSA/MI_1868/IMG_11_1868.jpg"",""SV_PolicingMSA/MI_1868/IMG_0_1868.jpg"",""SV_PolicingMSA/MI_1868/IMG_8_1868.jpg""]","5",NA,NA,NA,NA,NA,2,NA,4,"[""./rc_img/cop_condGroup_1_CommunitySafety_autoscaled.png"",""./rc_img/cop_condGroup_1_SafeStreets_autoscaled.png""]",5,NA,NA,"MI_1868","MI_1868",2,1,1,2,1,1,3,"MI_1868",2,2,2,3,1,1,"MI_1868",2,0,0,0,0,0,0,"19","male","man","","77075",""
"9","sliderTrial","html-slider-response",38,142194,"0.0-38.0",NA,"656776a7904ae00d6b91d1dd","6568ade3272517370d401596",5,NA,NA,NA,NA,NA,NA,NA,NA,NA,NA,NA,"2259","[""SV_PolicingMSA/MI_1868/IMG_10_1868.jpg"",""SV_PolicingMSA/MI_1868/IMG_4_1868.jpg"",""SV_PolicingMSA/MI_1868/IMG_13_1868.jpg"",""SV_PolicingMSA/MI_1868/IMG_3_1868.jpg"",""SV_PolicingMSA/MI_1868/IMG_1_1868.jpg"",""SV_PolicingMSA/MI_1868/IMG_11_1868.jpg"",""SV_PolicingMSA/MI_1868/IMG_0_1868.jpg"",""SV_PolicingMSA/MI_1868/IMG_8_1868.jpg""]","2",NA,NA,NA,NA,NA,2,NA,4,"[""./rc_img/cop_condGroup_4_CommunitySafety_autoscaled.png"",""./rc_img/cop_condGroup_4_SafeStreets_autoscaled.png""]",2,NA,NA,"MI_1868","MI_1868",2,1,1,2,1,1,3,"MI_1868",2,2,2,3,1,1,"MI_1868",2,0,0,0,0,0,0,"19","male","man","","77075",""
"10","sliderTrial","html-slider-response",39,144270,"0.0-39.0",NA,"656776a7904ae00d6b91d1dd","6568ade3272517370d401596",5,NA,NA,NA,NA,NA,NA,NA,NA,NA,NA,NA,"2074","[""SV_PolicingMSA/MI_1868/IMG_10_1868.jpg"",""SV_PolicingMSA/MI_1868/IMG_4_1868.jpg"",""SV_PolicingMSA/MI_1868/IMG_13_1868.jpg"",""SV_PolicingMSA/MI_1868/IMG_3_1868.jpg"",""SV_PolicingMSA/MI_1868/IMG_1_1868.jpg"",""SV_PolicingMSA/MI_1868/IMG_11_1868.jpg"",""SV_PolicingMSA/MI_1868/IMG_0_1868.jpg"",""SV_PolicingMSA/MI_1868/IMG_8_1868.jpg""]","6",NA,NA,NA,NA,NA,2,NA,4,"[""./rc_img/cop_condGroup_19_SafeStreets_autoscaled.png"",""./rc_img/cop_condGroup_19_CommunitySafety_autoscaled.png""]",2,NA,NA,"MI_1868","MI_1868",2,1,1,2,1,1,3,"MI_1868",2,2,2,3,1,1,"MI_1868",2,0,0,0,0,0,0,"19","male","man","","77075",""
"11","sliderTrial","html-slider-response",52,225331,"0.0-52.0",NA,"656776a7904ae00d6b91d1dd","6568ade3272517370d401596",5,NA,NA,NA,NA,NA,NA,NA,NA,NA,NA,NA,"3325","[""SV_PolicingMSA/MI_1808/IMG_10_1808.jpg"",""SV_PolicingMSA/MI_1808/IMG_4_1808.jpg"",""SV_PolicingMSA/MI_1808/IMG_0_1808.jpg"",""SV_PolicingMSA/MI_1808/IMG_5_1808.jpg"",""SV_PolicingMSA/MI_1808/IMG_7_1808.jpg"",""SV_PolicingMSA/MI_1808/IMG_3_1808.jpg"",""SV_PolicingMSA/MI_1808/IMG_13_1808.jpg"",""SV_PolicingMSA/MI_1808/IMG_14_1808.jpg""]","5",NA,NA,NA,NA,NA,1,NA,4,"[""./rc_img/cop_condGroup_2_SafeStreets_autoscaled.png"",""./rc_img/cop_condGroup_2_CommunitySafety_autoscaled.png""]",3,NA,NA,"MI_1808","MI_1808",1,1,1,1,1,1,2,"MI_1808",1,1,1,1,1,1,"MI_1808",1,0,0,0,0,0,0,"19","male","man","","77075",""
"12","sliderTrial_attention","html-slider-response",53,235480,"0.0-53.0",NA,"656776a7904ae00d6b91d1dd","6568ade3272517370d401596",5,NA,NA,NA,NA,NA,NA,NA,NA,NA,NA,NA,"null","[""SV_PolicingMSA/MI_1808/IMG_10_1808.jpg"",""SV_PolicingMSA/MI_1808/IMG_4_1808.jpg"",""SV_PolicingMSA/MI_1808/IMG_0_1808.jpg"",""SV_PolicingMSA/MI_1808/IMG_5_1808.jpg"",""SV_PolicingMSA/MI_1808/IMG_7_1808.jpg"",""SV_PolicingMSA/MI_1808/IMG_3_1808.jpg"",""SV_PolicingMSA/MI_1808/IMG_13_1808.jpg"",""SV_PolicingMSA/MI_1808/IMG_14_1808.jpg""]","null",NA,NA,NA,NA,NA,1,NA,4,"[""./assets/img/attnchk.png"",""./assets/img/attnchk.png""]",NA,TRUE,NA,"MI_1808","MI_1808",1,1,1,1,1,1,2,"MI_1808",1,1,1,1,1,1,"MI_1808",1,0,0,0,0,0,0,"19","male","man","","77075",""
"13","sliderTrial","html-slider-response",54,243633,"0.0-54.0",NA,"656776a7904ae00d6b91d1dd","6568ade3272517370d401596",5,NA,NA,NA,NA,NA,NA,NA,NA,NA,NA,NA,"8151","[""SV_PolicingMSA/MI_1808/IMG_10_1808.jpg"",""SV_PolicingMSA/MI_1808/IMG_4_1808.jpg"",""SV_PolicingMSA/MI_1808/IMG_0_1808.jpg"",""SV_PolicingMSA/MI_1808/IMG_5_1808.jpg"",""SV_PolicingMSA/MI_1808/IMG_7_1808.jpg"",""SV_PolicingMSA/MI_1808/IMG_3_1808.jpg"",""SV_PolicingMSA/MI_1808/IMG_13_1808.jpg"",""SV_PolicingMSA/MI_1808/IMG_14_1808.jpg""]","5",NA,NA,NA,NA,NA,1,NA,4,"[""./rc_img/cop_condGroup_20_SafeStreets_autoscaled.png"",""./rc_img/cop_condGroup_20_CommunitySafety_autoscaled.png""]",3,NA,NA,"MI_1808","MI_1808",1,1,1,1,1,1,2,"MI_1808",1,1,1,1,1,1,"MI_1808",1,0,0,0,0,0,0,"19","male","man","","77075",""
"14","sliderTrial","html-slider-response",55,245481,"0.0-55.0",NA,"656776a7904ae00d6b91d1dd","6568ade3272517370d401596",5,NA,NA,NA,NA,NA,NA,NA,NA,NA,NA,NA,"1845","[""SV_PolicingMSA/MI_1808/IMG_10_1808.jpg"",""SV_PolicingMSA/MI_1808/IMG_4_1808.jpg"",""SV_PolicingMSA/MI_1808/IMG_0_1808.jpg"",""SV_PolicingMSA/MI_1808/IMG_5_1808.jpg"",""SV_PolicingMSA/MI_1808/IMG_7_1808.jpg"",""SV_PolicingMSA/MI_1808/IMG_3_1808.jpg"",""SV_PolicingMSA/MI_1808/IMG_13_1808.jpg"",""SV_PolicingMSA/MI_1808/IMG_14_1808.jpg""]","2",NA,NA,NA,NA,NA,1,NA,4,"[""./rc_img/cop_condGroup_3_CommunitySafety_autoscaled.png"",""./rc_img/cop_condGroup_3_SafeStreets_autoscaled.png""]",2,NA,NA,"MI_1808","MI_1808",1,1,1,1,1,1,2,"MI_1808",1,1,1,1,1,1,"MI_1808",1,0,0,0,0,0,0,"19","male","man","","77075",""
"15","sliderTrial","html-slider-response",56,248644,"0.0-56.0",NA,"656776a7904ae00d6b91d1dd","6568ade3272517370d401596",5,NA,NA,NA,NA,NA,NA,NA,NA,NA,NA,NA,"3162","[""SV_PolicingMSA/MI_1808/IMG_10_1808.jpg"",""SV_PolicingMSA/MI_1808/IMG_4_1808.jpg"",""SV_PolicingMSA/MI_1808/IMG_0_1808.jpg"",""SV_PolicingMSA/MI_1808/IMG_5_1808.jpg"",""SV_PolicingMSA/MI_1808/IMG_7_1808.jpg"",""SV_PolicingMSA/MI_1808/IMG_3_1808.jpg"",""SV_PolicingMSA/MI_1808/IMG_13_1808.jpg"",""SV_PolicingMSA/MI_1808/IMG_14_1808.jpg""]","2",NA,NA,NA,NA,NA,1,NA,4,"[""./rc_img/cop_condGroup_18_CommunitySafety_autoscaled.png"",""./rc_img/cop_condGroup_18_SafeStreets_autoscaled.png""]",2,NA,NA,"MI_1808","MI_1808",1,1,1,1,1,1,2,"MI_1808",1,1,1,1,1,1,"MI_1808",1,0,0,0,0,0,0,"19","male","man","","77075",""
"16","sliderTrial","html-slider-response",57,251125,"0.0-57.0",NA,"656776a7904ae00d6b91d1dd","6568ade3272517370d401596",5,NA,NA,NA,NA,NA,NA,NA,NA,NA,NA,NA,"2479","[""SV_PolicingMSA/MI_1808/IMG_10_1808.jpg"",""SV_PolicingMSA/MI_1808/IMG_4_1808.jpg"",""SV_PolicingMSA/MI_1808/IMG_0_1808.jpg"",""SV_PolicingMSA/MI_1808/IMG_5_1808.jpg"",""SV_PolicingMSA/MI_1808/IMG_7_1808.jpg"",""SV_PolicingMSA/MI_1808/IMG_3_1808.jpg"",""SV_PolicingMSA/MI_1808/IMG_13_1808.jpg"",""SV_PolicingMSA/MI_1808/IMG_14_1808.jpg""]","6",NA,NA,NA,NA,NA,1,NA,4,"[""./rc_img/cop_condGroup_5_CommunitySafety_autoscaled.png"",""./rc_img/cop_condGroup_5_SafeStreets_autoscaled.png""]",6,NA,NA,"MI_1808","MI_1808",1,1,1,1,1,1,2,"MI_1808",1,1,1,1,1,1,"MI_1808",1,0,0,0,0,0,0,"19","male","man","","77075",""
"17","sliderTrial","html-slider-response",70,283168,"0.0-70.0",NA,"656776a7904ae00d6b91d1dd","6568ade3272517370d401596",5,NA,NA,NA,NA,NA,NA,NA,NA,NA,NA,NA,"2995","[""SV_PolicingMSA/MI_2582/IMG_11_2582.jpg"",""SV_PolicingMSA/MI_2582/IMG_4_2582.jpg"",""SV_PolicingMSA/MI_2582/IMG_3_2582.jpg"",""SV_PolicingMSA/MI_2582/IMG_1_2582.jpg"",""SV_PolicingMSA/MI_2582/IMG_9_2582.jpg"",""SV_PolicingMSA/MI_2582/IMG_10_2582.jpg"",""SV_PolicingMSA/MI_2582/IMG_7_2582.jpg"",""SV_PolicingMSA/MI_2582/IMG_5_2582.jpg""]","5",NA,NA,NA,NA,NA,3,NA,4,"[""./rc_img/cop_condGroup_2_SafeStreets_autoscaled.png"",""./rc_img/cop_condGroup_2_CommunitySafety_autoscaled.png""]",3,NA,NA,"MI_2582","MI_2582",3,1,2,2,2,1,5,"MI_2582",3,1,1,1,1,1,"MI_2582",3,0,0,0,0,0,0,"19","male","man","","77075",""
"18","sliderTrial","html-slider-response",71,285471,"0.0-71.0",NA,"656776a7904ae00d6b91d1dd","6568ade3272517370d401596",5,NA,NA,NA,NA,NA,NA,NA,NA,NA,NA,NA,"2301","[""SV_PolicingMSA/MI_2582/IMG_11_2582.jpg"",""SV_PolicingMSA/MI_2582/IMG_4_2582.jpg"",""SV_PolicingMSA/MI_2582/IMG_3_2582.jpg"",""SV_PolicingMSA/MI_2582/IMG_1_2582.jpg"",""SV_PolicingMSA/MI_2582/IMG_9_2582.jpg"",""SV_PolicingMSA/MI_2582/IMG_10_2582.jpg"",""SV_PolicingMSA/MI_2582/IMG_7_2582.jpg"",""SV_PolicingMSA/MI_2582/IMG_5_2582.jpg""]","7",NA,NA,NA,NA,NA,3,NA,4,"[""./rc_img/cop_condGroup_20_SafeStreets_autoscaled.png"",""./rc_img/cop_condGroup_20_CommunitySafety_autoscaled.png""]",1,NA,NA,"MI_2582","MI_2582",3,1,2,2,2,1,5,"MI_2582",3,1,1,1,1,1,"MI_2582",3,0,0,0,0,0,0,"19","male","man","","77075",""
"19","sliderTrial","html-slider-response",72,287150,"0.0-72.0",NA,"656776a7904ae00d6b91d1dd","6568ade3272517370d401596",5,NA,NA,NA,NA,NA,NA,NA,NA,NA,NA,NA,"1677","[""SV_PolicingMSA/MI_2582/IMG_11_2582.jpg"",""SV_PolicingMSA/MI_2582/IMG_4_2582.jpg"",""SV_PolicingMSA/MI_2582/IMG_3_2582.jpg"",""SV_PolicingMSA/MI_2582/IMG_1_2582.jpg"",""SV_PolicingMSA/MI_2582/IMG_9_2582.jpg"",""SV_PolicingMSA/MI_2582/IMG_10_2582.jpg"",""SV_PolicingMSA/MI_2582/IMG_7_2582.jpg"",""SV_PolicingMSA/MI_2582/IMG_5_2582.jpg""]","1",NA,NA,NA,NA,NA,3,NA,4,"[""./rc_img/cop_condGroup_3_CommunitySafety_autoscaled.png"",""./rc_img/cop_condGroup_3_SafeStreets_autoscaled.png""]",1,NA,NA,"MI_2582","MI_2582",3,1,2,2,2,1,5,"MI_2582",3,1,1,1,1,1,"MI_2582",3,0,0,0,0,0,0,"19","male","man","","77075",""
"20","sliderTrial","html-slider-response",73,290098,"0.0-73.0",NA,"656776a7904ae00d6b91d1dd","6568ade3272517370d401596",5,NA,NA,NA,NA,NA,NA,NA,NA,NA,NA,NA,"2947","[""SV_PolicingMSA/MI_2582/IMG_11_2582.jpg"",""SV_PolicingMSA/MI_2582/IMG_4_2582.jpg"",""SV_PolicingMSA/MI_2582/IMG_3_2582.jpg"",""SV_PolicingMSA/MI_2582/IMG_1_2582.jpg"",""SV_PolicingMSA/MI_2582/IMG_9_2582.jpg"",""SV_PolicingMSA/MI_2582/IMG_10_2582.jpg"",""SV_PolicingMSA/MI_2582/IMG_7_2582.jpg"",""SV_PolicingMSA/MI_2582/IMG_5_2582.jpg""]","1",NA,NA,NA,NA,NA,3,NA,4,"[""./rc_img/cop_condGroup_18_CommunitySafety_autoscaled.png"",""./rc_img/cop_condGroup_18_SafeStreets_autoscaled.png""]",1,NA,NA,"MI_2582","MI_2582",3,1,2,2,2,1,5,"MI_2582",3,1,1,1,1,1,"MI_2582",3,0,0,0,0,0,0,"19","male","man","","77075",""
"21","sliderTrial","html-slider-response",74,292928,"0.0-74.0",NA,"656776a7904ae00d6b91d1dd","6568ade3272517370d401596",5,NA,NA,NA,NA,NA,NA,NA,NA,NA,NA,NA,"2828","[""SV_PolicingMSA/MI_2582/IMG_11_2582.jpg"",""SV_PolicingMSA/MI_2582/IMG_4_2582.jpg"",""SV_PolicingMSA/MI_2582/IMG_3_2582.jpg"",""SV_PolicingMSA/MI_2582/IMG_1_2582.jpg"",""SV_PolicingMSA/MI_2582/IMG_9_2582.jpg"",""SV_PolicingMSA/MI_2582/IMG_10_2582.jpg"",""SV_PolicingMSA/MI_2582/IMG_7_2582.jpg"",""SV_PolicingMSA/MI_2582/IMG_5_2582.jpg""]","1",NA,NA,NA,NA,NA,3,NA,4,"[""./rc_img/cop_condGroup_5_CommunitySafety_autoscaled.png"",""./rc_img/cop_condGroup_5_SafeStreets_autoscaled.png""]",1,NA,NA,"MI_2582","MI_2582",3,1,2,2,2,1,5,"MI_2582",3,1,1,1,1,1,"MI_2582",3,0,0,0,0,0,0,"19","male","man","","77075",""
"22","sliderTrial","html-slider-response",88,346910,"0.0-88.0",NA,"656776a7904ae00d6b91d1dd","6568ade3272517370d401596",5,NA,NA,NA,NA,NA,NA,NA,NA,NA,NA,NA,"2267","[""SV_PolicingMSA/MI_1804/IMG_12_1804.jpg"",""SV_PolicingMSA/MI_1804/IMG_0_1804.jpg"",""SV_PolicingMSA/MI_1804/IMG_8_1804.jpg"",""SV_PolicingMSA/MI_1804/IMG_9_1804.jpg"",""SV_PolicingMSA/MI_1804/IMG_3_1804.jpg"",""SV_PolicingMSA/MI_1804/IMG_14_1804.jpg"",""SV_PolicingMSA/MI_1804/IMG_7_1804.jpg"",""SV_PolicingMSA/MI_1804/IMG_5_1804.jpg""]","2",NA,NA,NA,NA,NA,0,NA,4,"[""./rc_img/cop_condGroup_14_CommunitySafety_autoscaled.png"",""./rc_img/cop_condGroup_14_SafeStreets_autoscaled.png""]",2,NA,NA,"MI_1804","MI_1804",0,2,2,2,2,2,1,"MI_1804",0,1,1,1,1,1,"MI_1804",0,1,1,1,1,1,1,"19","male","man","","77075",""
"23","sliderTrial","html-slider-response",89,348871,"0.0-89.0",NA,"656776a7904ae00d6b91d1dd","6568ade3272517370d401596",5,NA,NA,NA,NA,NA,NA,NA,NA,NA,NA,NA,"1960","[""SV_PolicingMSA/MI_1804/IMG_12_1804.jpg"",""SV_PolicingMSA/MI_1804/IMG_0_1804.jpg"",""SV_PolicingMSA/MI_1804/IMG_8_1804.jpg"",""SV_PolicingMSA/MI_1804/IMG_9_1804.jpg"",""SV_PolicingMSA/MI_1804/IMG_3_1804.jpg"",""SV_PolicingMSA/MI_1804/IMG_14_1804.jpg"",""SV_PolicingMSA/MI_1804/IMG_7_1804.jpg"",""SV_PolicingMSA/MI_1804/IMG_5_1804.jpg""]","1",NA,NA,NA,NA,NA,0,NA,4,"[""./rc_img/cop_condGroup_10_CommunitySafety_autoscaled.png"",""./rc_img/cop_condGroup_10_SafeStreets_autoscaled.png""]",1,NA,NA,"MI_1804","MI_1804",0,2,2,2,2,2,1,"MI_1804",0,1,1,1,1,1,"MI_1804",0,1,1,1,1,1,1,"19","male","man","","77075",""
"24","sliderTrial","html-slider-response",90,350962,"0.0-90.0",NA,"656776a7904ae00d6b91d1dd","6568ade3272517370d401596",5,NA,NA,NA,NA,NA,NA,NA,NA,NA,NA,NA,"2089","[""SV_PolicingMSA/MI_1804/IMG_12_1804.jpg"",""SV_PolicingMSA/MI_1804/IMG_0_1804.jpg"",""SV_PolicingMSA/MI_1804/IMG_8_1804.jpg"",""SV_PolicingMSA/MI_1804/IMG_9_1804.jpg"",""SV_PolicingMSA/MI_1804/IMG_3_1804.jpg"",""SV_PolicingMSA/MI_1804/IMG_14_1804.jpg"",""SV_PolicingMSA/MI_1804/IMG_7_1804.jpg"",""SV_PolicingMSA/MI_1804/IMG_5_1804.jpg""]","7",NA,NA,NA,NA,NA,0,NA,4,"[""./rc_img/cop_condGroup_12_SafeStreets_autoscaled.png"",""./rc_img/cop_condGroup_12_CommunitySafety_autoscaled.png""]",1,NA,NA,"MI_1804","MI_1804",0,2,2,2,2,2,1,"MI_1804",0,1,1,1,1,1,"MI_1804",0,1,1,1,1,1,1,"19","male","man","","77075",""
"25","sliderTrial","html-slider-response",91,353208,"0.0-91.0",NA,"656776a7904ae00d6b91d1dd","6568ade3272517370d401596",5,NA,NA,NA,NA,NA,NA,NA,NA,NA,NA,NA,"2244","[""SV_PolicingMSA/MI_1804/IMG_12_1804.jpg"",""SV_PolicingMSA/MI_1804/IMG_0_1804.jpg"",""SV_PolicingMSA/MI_1804/IMG_8_1804.jpg"",""SV_PolicingMSA/MI_1804/IMG_9_1804.jpg"",""SV_PolicingMSA/MI_1804/IMG_3_1804.jpg"",""SV_PolicingMSA/MI_1804/IMG_14_1804.jpg"",""SV_PolicingMSA/MI_1804/IMG_7_1804.jpg"",""SV_PolicingMSA/MI_1804/IMG_5_1804.jpg""]","6",NA,NA,NA,NA,NA,0,NA,4,"[""./rc_img/cop_condGroup_11_SafeStreets_autoscaled.png"",""./rc_img/cop_condGroup_11_CommunitySafety_autoscaled.png""]",2,NA,NA,"MI_1804","MI_1804",0,2,2,2,2,2,1,"MI_1804",0,1,1,1,1,1,"MI_1804",0,1,1,1,1,1,1,"19","male","man","","77075",""
"26","sliderTrial_attention","html-slider-response",92,363223,"0.0-92.0",NA,"656776a7904ae00d6b91d1dd","6568ade3272517370d401596",5,NA,NA,NA,NA,NA,NA,NA,NA,NA,NA,NA,"null","[""SV_PolicingMSA/MI_1804/IMG_12_1804.jpg"",""SV_PolicingMSA/MI_1804/IMG_0_1804.jpg"",""SV_PolicingMSA/MI_1804/IMG_8_1804.jpg"",""SV_PolicingMSA/MI_1804/IMG_9_1804.jpg"",""SV_PolicingMSA/MI_1804/IMG_3_1804.jpg"",""SV_PolicingMSA/MI_1804/IMG_14_1804.jpg"",""SV_PolicingMSA/MI_1804/IMG_7_1804.jpg"",""SV_PolicingMSA/MI_1804/IMG_5_1804.jpg""]","null",NA,NA,NA,NA,NA,0,NA,4,"[""./assets/img/attnchk.png"",""./assets/img/attnchk.png""]",NA,TRUE,NA,"MI_1804","MI_1804",0,2,2,2,2,2,1,"MI_1804",0,1,1,1,1,1,"MI_1804",0,1,1,1,1,1,1,"19","male","man","","77075",""
"27","sliderTrial","html-slider-response",93,365023,"0.0-93.0",NA,"656776a7904ae00d6b91d1dd","6568ade3272517370d401596",5,NA,NA,NA,NA,NA,NA,NA,NA,NA,NA,NA,"1798","[""SV_PolicingMSA/MI_1804/IMG_12_1804.jpg"",""SV_PolicingMSA/MI_1804/IMG_0_1804.jpg"",""SV_PolicingMSA/MI_1804/IMG_8_1804.jpg"",""SV_PolicingMSA/MI_1804/IMG_9_1804.jpg"",""SV_PolicingMSA/MI_1804/IMG_3_1804.jpg"",""SV_PolicingMSA/MI_1804/IMG_14_1804.jpg"",""SV_PolicingMSA/MI_1804/IMG_7_1804.jpg"",""SV_PolicingMSA/MI_1804/IMG_5_1804.jpg""]","6",NA,NA,NA,NA,NA,0,NA,4,"[""./rc_img/cop_condGroup_16_SafeStreets_autoscaled.png"",""./rc_img/cop_condGroup_16_CommunitySafety_autoscaled.png""]",2,NA,NA,"MI_1804","MI_1804",0,2,2,2,2,2,1,"MI_1804",0,1,1,1,1,1,"MI_1804",0,1,1,1,1,1,1,"19","male","man","","77075",""
"28","sliderTrial","html-slider-response",106,396735,"0.0-106.0",NA,"656776a7904ae00d6b91d1dd","6568ade3272517370d401596",5,NA,NA,NA,NA,NA,NA,NA,NA,NA,NA,NA,"4158","[""SV_PolicingMSA/MI_2578/IMG_12_2578.jpg"",""SV_PolicingMSA/MI_2578/IMG_1_2578.jpg"",""SV_PolicingMSA/MI_2578/IMG_4_2578.jpg"",""SV_PolicingMSA/MI_2578/IMG_9_2578.jpg"",""SV_PolicingMSA/MI_2578/IMG_0_2578.jpg"",""SV_PolicingMSA/MI_2578/IMG_7_2578.jpg"",""SV_PolicingMSA/MI_2578/IMG_6_2578.jpg"",""SV_PolicingMSA/MI_2578/IMG_11_2578.jpg""]","3",NA,NA,NA,NA,NA,2,NA,4,"[""./rc_img/cop_condGroup_14_CommunitySafety_autoscaled.png"",""./rc_img/cop_condGroup_14_SafeStreets_autoscaled.png""]",3,NA,NA,"MI_2578","MI_2578",2,1,1,1,2,1,4,"MI_2578",2,1,1,1,1,1,"MI_2578",2,0,0,0,0,0,0,"19","male","man","","77075",""
"29","sliderTrial","html-slider-response",107,398967,"0.0-107.0",NA,"656776a7904ae00d6b91d1dd","6568ade3272517370d401596",5,NA,NA,NA,NA,NA,NA,NA,NA,NA,NA,NA,"2231","[""SV_PolicingMSA/MI_2578/IMG_12_2578.jpg"",""SV_PolicingMSA/MI_2578/IMG_1_2578.jpg"",""SV_PolicingMSA/MI_2578/IMG_4_2578.jpg"",""SV_PolicingMSA/MI_2578/IMG_9_2578.jpg"",""SV_PolicingMSA/MI_2578/IMG_0_2578.jpg"",""SV_PolicingMSA/MI_2578/IMG_7_2578.jpg"",""SV_PolicingMSA/MI_2578/IMG_6_2578.jpg"",""SV_PolicingMSA/MI_2578/IMG_11_2578.jpg""]","2",NA,NA,NA,NA,NA,2,NA,4,"[""./rc_img/cop_condGroup_10_CommunitySafety_autoscaled.png"",""./rc_img/cop_condGroup_10_SafeStreets_autoscaled.png""]",2,NA,NA,"MI_2578","MI_2578",2,1,1,1,2,1,4,"MI_2578",2,1,1,1,1,1,"MI_2578",2,0,0,0,0,0,0,"19","male","man","","77075",""
"30","sliderTrial","html-slider-response",108,401619,"0.0-108.0",NA,"656776a7904ae00d6b91d1dd","6568ade3272517370d401596",5,NA,NA,NA,NA,NA,NA,NA,NA,NA,NA,NA,"2649","[""SV_PolicingMSA/MI_2578/IMG_12_2578.jpg"",""SV_PolicingMSA/MI_2578/IMG_1_2578.jpg"",""SV_PolicingMSA/MI_2578/IMG_4_2578.jpg"",""SV_PolicingMSA/MI_2578/IMG_9_2578.jpg"",""SV_PolicingMSA/MI_2578/IMG_0_2578.jpg"",""SV_PolicingMSA/MI_2578/IMG_7_2578.jpg"",""SV_PolicingMSA/MI_2578/IMG_6_2578.jpg"",""SV_PolicingMSA/MI_2578/IMG_11_2578.jpg""]","3",NA,NA,NA,NA,NA,2,NA,4,"[""./rc_img/cop_condGroup_12_SafeStreets_autoscaled.png"",""./rc_img/cop_condGroup_12_CommunitySafety_autoscaled.png""]",5,NA,NA,"MI_2578","MI_2578",2,1,1,1,2,1,4,"MI_2578",2,1,1,1,1,1,"MI_2578",2,0,0,0,0,0,0,"19","male","man","","77075",""
"31","sliderTrial","html-slider-response",109,402962,"0.0-109.0",NA,"656776a7904ae00d6b91d1dd","6568ade3272517370d401596",5,NA,NA,NA,NA,NA,NA,NA,NA,NA,NA,NA,"1342","[""SV_PolicingMSA/MI_2578/IMG_12_2578.jpg"",""SV_PolicingMSA/MI_2578/IMG_1_2578.jpg"",""SV_PolicingMSA/MI_2578/IMG_4_2578.jpg"",""SV_PolicingMSA/MI_2578/IMG_9_2578.jpg"",""SV_PolicingMSA/MI_2578/IMG_0_2578.jpg"",""SV_PolicingMSA/MI_2578/IMG_7_2578.jpg"",""SV_PolicingMSA/MI_2578/IMG_6_2578.jpg"",""SV_PolicingMSA/MI_2578/IMG_11_2578.jpg""]","5",NA,NA,NA,NA,NA,2,NA,4,"[""./rc_img/cop_condGroup_11_SafeStreets_autoscaled.png"",""./rc_img/cop_condGroup_11_CommunitySafety_autoscaled.png""]",3,NA,NA,"MI_2578","MI_2578",2,1,1,1,2,1,4,"MI_2578",2,1,1,1,1,1,"MI_2578",2,0,0,0,0,0,0,"19","male","man","","77075",""
"32","sliderTrial","html-slider-response",110,405934,"0.0-110.0",NA,"656776a7904ae00d6b91d1dd","6568ade3272517370d401596",5,NA,NA,NA,NA,NA,NA,NA,NA,NA,NA,NA,"2969","[""SV_PolicingMSA/MI_2578/IMG_12_2578.jpg"",""SV_PolicingMSA/MI_2578/IMG_1_2578.jpg"",""SV_PolicingMSA/MI_2578/IMG_4_2578.jpg"",""SV_PolicingMSA/MI_2578/IMG_9_2578.jpg"",""SV_PolicingMSA/MI_2578/IMG_0_2578.jpg"",""SV_PolicingMSA/MI_2578/IMG_7_2578.jpg"",""SV_PolicingMSA/MI_2578/IMG_6_2578.jpg"",""SV_PolicingMSA/MI_2578/IMG_11_2578.jpg""]","5",NA,NA,NA,NA,NA,2,NA,4,"[""./rc_img/cop_condGroup_16_SafeStreets_autoscaled.png"",""./rc_img/cop_condGroup_16_CommunitySafety_autoscaled.png""]",3,NA,NA,"MI_2578","MI_2578",2,1,1,1,2,1,4,"MI_2578",2,1,1,1,1,1,"MI_2578",2,0,0,0,0,0,0,"19","male","man","","77075",""
"33","sliderTrial","html-slider-response",123,434844,"0.0-123.0",NA,"656776a7904ae00d6b91d1dd","6568ade3272517370d401596",5,NA,NA,NA,NA,NA,NA,NA,NA,NA,NA,NA,"2721","[""SV_PolicingMSA/MI_2715/IMG_5_2715.jpg"",""SV_PolicingMSA/MI_2715/IMG_12_2715.jpg"",""SV_PolicingMSA/MI_2715/IMG_10_2715.jpg"",""SV_PolicingMSA/MI_2715/IMG_8_2715.jpg"",""SV_PolicingMSA/MI_2715/IMG_6_2715.jpg"",""SV_PolicingMSA/MI_2715/IMG_4_2715.jpg"",""SV_PolicingMSA/MI_2715/IMG_3_2715.jpg"",""SV_PolicingMSA/MI_2715/IMG_0_2715.jpg""]","3",NA,NA,NA,NA,NA,4,NA,4,"[""./rc_img/cop_condGroup_15_CommunitySafety_autoscaled.png"",""./rc_img/cop_condGroup_15_SafeStreets_autoscaled.png""]",3,NA,NA,"MI_2715","MI_2715",4,1,1,1,1,1,7,"MI_2715",4,1,1,1,1,1,"MI_2715",4,0,0,0,0,0,0,"19","male","man","","77075",""
"34","sliderTrial","html-slider-response",124,436764,"0.0-124.0",NA,"656776a7904ae00d6b91d1dd","6568ade3272517370d401596",5,NA,NA,NA,NA,NA,NA,NA,NA,NA,NA,NA,"1917","[""SV_PolicingMSA/MI_2715/IMG_5_2715.jpg"",""SV_PolicingMSA/MI_2715/IMG_12_2715.jpg"",""SV_PolicingMSA/MI_2715/IMG_10_2715.jpg"",""SV_PolicingMSA/MI_2715/IMG_8_2715.jpg"",""SV_PolicingMSA/MI_2715/IMG_6_2715.jpg"",""SV_PolicingMSA/MI_2715/IMG_4_2715.jpg"",""SV_PolicingMSA/MI_2715/IMG_3_2715.jpg"",""SV_PolicingMSA/MI_2715/IMG_0_2715.jpg""]","6",NA,NA,NA,NA,NA,4,NA,4,"[""./rc_img/cop_condGroup_6_SafeStreets_autoscaled.png"",""./rc_img/cop_condGroup_6_CommunitySafety_autoscaled.png""]",2,NA,NA,"MI_2715","MI_2715",4,1,1,1,1,1,7,"MI_2715",4,1,1,1,1,1,"MI_2715",4,0,0,0,0,0,0,"19","male","man","","77075",""
"35","sliderTrial","html-slider-response",125,438321,"0.0-125.0",NA,"656776a7904ae00d6b91d1dd","6568ade3272517370d401596",5,NA,NA,NA,NA,NA,NA,NA,NA,NA,NA,NA,"1555","[""SV_PolicingMSA/MI_2715/IMG_5_2715.jpg"",""SV_PolicingMSA/MI_2715/IMG_12_2715.jpg"",""SV_PolicingMSA/MI_2715/IMG_10_2715.jpg"",""SV_PolicingMSA/MI_2715/IMG_8_2715.jpg"",""SV_PolicingMSA/MI_2715/IMG_6_2715.jpg"",""SV_PolicingMSA/MI_2715/IMG_4_2715.jpg"",""SV_PolicingMSA/MI_2715/IMG_3_2715.jpg"",""SV_PolicingMSA/MI_2715/IMG_0_2715.jpg""]","2",NA,NA,NA,NA,NA,4,NA,4,"[""./rc_img/cop_condGroup_1_CommunitySafety_autoscaled.png"",""./rc_img/cop_condGroup_1_SafeStreets_autoscaled.png""]",2,NA,NA,"MI_2715","MI_2715",4,1,1,1,1,1,7,"MI_2715",4,1,1,1,1,1,"MI_2715",4,0,0,0,0,0,0,"19","male","man","","77075",""
"36","sliderTrial","html-slider-response",126,440680,"0.0-126.0",NA,"656776a7904ae00d6b91d1dd","6568ade3272517370d401596",5,NA,NA,NA,NA,NA,NA,NA,NA,NA,NA,NA,"2357","[""SV_PolicingMSA/MI_2715/IMG_5_2715.jpg"",""SV_PolicingMSA/MI_2715/IMG_12_2715.jpg"",""SV_PolicingMSA/MI_2715/IMG_10_2715.jpg"",""SV_PolicingMSA/MI_2715/IMG_8_2715.jpg"",""SV_PolicingMSA/MI_2715/IMG_6_2715.jpg"",""SV_PolicingMSA/MI_2715/IMG_4_2715.jpg"",""SV_PolicingMSA/MI_2715/IMG_3_2715.jpg"",""SV_PolicingMSA/MI_2715/IMG_0_2715.jpg""]","2",NA,NA,NA,NA,NA,4,NA,4,"[""./rc_img/cop_condGroup_4_CommunitySafety_autoscaled.png"",""./rc_img/cop_condGroup_4_SafeStreets_autoscaled.png""]",2,NA,NA,"MI_2715","MI_2715",4,1,1,1,1,1,7,"MI_2715",4,1,1,1,1,1,"MI_2715",4,0,0,0,0,0,0,"19","male","man","","77075",""
"37","sliderTrial","html-slider-response",127,443204,"0.0-127.0",NA,"656776a7904ae00d6b91d1dd","6568ade3272517370d401596",5,NA,NA,NA,NA,NA,NA,NA,NA,NA,NA,NA,"2522","[""SV_PolicingMSA/MI_2715/IMG_5_2715.jpg"",""SV_PolicingMSA/MI_2715/IMG_12_2715.jpg"",""SV_PolicingMSA/MI_2715/IMG_10_2715.jpg"",""SV_PolicingMSA/MI_2715/IMG_8_2715.jpg"",""SV_PolicingMSA/MI_2715/IMG_6_2715.jpg"",""SV_PolicingMSA/MI_2715/IMG_4_2715.jpg"",""SV_PolicingMSA/MI_2715/IMG_3_2715.jpg"",""SV_PolicingMSA/MI_2715/IMG_0_2715.jpg""]","6",NA,NA,NA,NA,NA,4,NA,4,"[""./rc_img/cop_condGroup_19_SafeStreets_autoscaled.png"",""./rc_img/cop_condGroup_19_CommunitySafety_autoscaled.png""]",2,NA,NA,"MI_2715","MI_2715",4,1,1,1,1,1,7,"MI_2715",4,1,1,1,1,1,"MI_2715",4,0,0,0,0,0,0,"19","male","man","","77075",""
"38","sliderTrial","html-slider-response",140,482479,"0.0-140.0",NA,"656776a7904ae00d6b91d1dd","6568ade3272517370d401596",5,NA,NA,NA,NA,NA,NA,NA,NA,NA,NA,NA,"2431","[""SV_PolicingMSA/MI_1822/IMG_7_1822.jpg"",""SV_PolicingMSA/MI_1822/IMG_9_1822.jpg"",""SV_PolicingMSA/MI_1822/IMG_10_1822.jpg"",""SV_PolicingMSA/MI_1822/IMG_3_1822.jpg"",""SV_PolicingMSA/MI_1822/IMG_6_1822.jpg"",""SV_PolicingMSA/MI_1822/IMG_0_1822.jpg"",""SV_PolicingMSA/MI_1822/IMG_4_1822.jpg"",""SV_PolicingMSA/MI_1822/IMG_5_1822.jpg""]","3",NA,NA,NA,NA,NA,3,NA,4,"[""./rc_img/cop_condGroup_7_CommunitySafety_autoscaled.png"",""./rc_img/cop_condGroup_7_SafeStreets_autoscaled.png""]",3,NA,NA,"MI_1822","MI_1822",3,2,2,2,2,2,6,"MI_1822",3,1,1,1,1,1,"MI_1822",3,1,1,1,1,1,1,"19","male","man","","77075",""
"39","sliderTrial","html-slider-response",141,486083,"0.0-141.0",NA,"656776a7904ae00d6b91d1dd","6568ade3272517370d401596",5,NA,NA,NA,NA,NA,NA,NA,NA,NA,NA,NA,"3602","[""SV_PolicingMSA/MI_1822/IMG_7_1822.jpg"",""SV_PolicingMSA/MI_1822/IMG_9_1822.jpg"",""SV_PolicingMSA/MI_1822/IMG_10_1822.jpg"",""SV_PolicingMSA/MI_1822/IMG_3_1822.jpg"",""SV_PolicingMSA/MI_1822/IMG_6_1822.jpg"",""SV_PolicingMSA/MI_1822/IMG_0_1822.jpg"",""SV_PolicingMSA/MI_1822/IMG_4_1822.jpg"",""SV_PolicingMSA/MI_1822/IMG_5_1822.jpg""]","2",NA,NA,NA,NA,NA,3,NA,4,"[""./rc_img/cop_condGroup_13_SafeStreets_autoscaled.png"",""./rc_img/cop_condGroup_13_CommunitySafety_autoscaled.png""]",6,NA,NA,"MI_1822","MI_1822",3,2,2,2,2,2,6,"MI_1822",3,1,1,1,1,1,"MI_1822",3,1,1,1,1,1,1,"19","male","man","","77075",""
"40","sliderTrial","html-slider-response",142,489417,"0.0-142.0",NA,"656776a7904ae00d6b91d1dd","6568ade3272517370d401596",5,NA,NA,NA,NA,NA,NA,NA,NA,NA,NA,NA,"3333","[""SV_PolicingMSA/MI_1822/IMG_7_1822.jpg"",""SV_PolicingMSA/MI_1822/IMG_9_1822.jpg"",""SV_PolicingMSA/MI_1822/IMG_10_1822.jpg"",""SV_PolicingMSA/MI_1822/IMG_3_1822.jpg"",""SV_PolicingMSA/MI_1822/IMG_6_1822.jpg"",""SV_PolicingMSA/MI_1822/IMG_0_1822.jpg"",""SV_PolicingMSA/MI_1822/IMG_4_1822.jpg"",""SV_PolicingMSA/MI_1822/IMG_5_1822.jpg""]","3",NA,NA,NA,NA,NA,3,NA,4,"[""./rc_img/cop_condGroup_17_CommunitySafety_autoscaled.png"",""./rc_img/cop_condGroup_17_SafeStreets_autoscaled.png""]",3,NA,NA,"MI_1822","MI_1822",3,2,2,2,2,2,6,"MI_1822",3,1,1,1,1,1,"MI_1822",3,1,1,1,1,1,1,"19","male","man","","77075",""
"41","sliderTrial","html-slider-response",143,491734,"0.0-143.0",NA,"656776a7904ae00d6b91d1dd","6568ade3272517370d401596",5,NA,NA,NA,NA,NA,NA,NA,NA,NA,NA,NA,"2315","[""SV_PolicingMSA/MI_1822/IMG_7_1822.jpg"",""SV_PolicingMSA/MI_1822/IMG_9_1822.jpg"",""SV_PolicingMSA/MI_1822/IMG_10_1822.jpg"",""SV_PolicingMSA/MI_1822/IMG_3_1822.jpg"",""SV_PolicingMSA/MI_1822/IMG_6_1822.jpg"",""SV_PolicingMSA/MI_1822/IMG_0_1822.jpg"",""SV_PolicingMSA/MI_1822/IMG_4_1822.jpg"",""SV_PolicingMSA/MI_1822/IMG_5_1822.jpg""]","6",NA,NA,NA,NA,NA,3,NA,4,"[""./rc_img/cop_condGroup_8_SafeStreets_autoscaled.png"",""./rc_img/cop_condGroup_8_CommunitySafety_autoscaled.png""]",2,NA,NA,"MI_1822","MI_1822",3,2,2,2,2,2,6,"MI_1822",3,1,1,1,1,1,"MI_1822",3,1,1,1,1,1,1,"19","male","man","","77075",""
"42","sliderTrial","html-slider-response",144,493753,"0.0-144.0",NA,"656776a7904ae00d6b91d1dd","6568ade3272517370d401596",5,NA,NA,NA,NA,NA,NA,NA,NA,NA,NA,NA,"2017","[""SV_PolicingMSA/MI_1822/IMG_7_1822.jpg"",""SV_PolicingMSA/MI_1822/IMG_9_1822.jpg"",""SV_PolicingMSA/MI_1822/IMG_10_1822.jpg"",""SV_PolicingMSA/MI_1822/IMG_3_1822.jpg"",""SV_PolicingMSA/MI_1822/IMG_6_1822.jpg"",""SV_PolicingMSA/MI_1822/IMG_0_1822.jpg"",""SV_PolicingMSA/MI_1822/IMG_4_1822.jpg"",""SV_PolicingMSA/MI_1822/IMG_5_1822.jpg""]","3",NA,NA,NA,NA,NA,3,NA,4,"[""./rc_img/cop_condGroup_9_SafeStreets_autoscaled.png"",""./rc_img/cop_condGroup_9_CommunitySafety_autoscaled.png""]",5,NA,NA,"MI_1822","MI_1822",3,2,2,2,2,2,6,"MI_1822",3,1,1,1,1,1,"MI_1822",3,1,1,1,1,1,1,"19","male","man","","77075",""
