"","task","trial_type","trial_index","time_elapsed","internal_node_id","subject_id","study_id","session_id","section","width","height","webaudio","browser","browser_version","mobile","os","fullscreen","vsync_rate","webcam","microphone","rt","stimulus","response","success","timeout","failed_images","failed_audio","failed_video","block.x.x","accuracy","slider_start","choices","standardized_response","correct","num_attention_checks_correct","stim_tract","stim_tractT","block.x","P0_Q1.wealthy","P0_Q1.safe","P0_Q1.walkable","P0_Q1.traditional","P0_Q1.diverse","block_fixed","stim_tractT.x","block.y","P0_Q1.violence","P0_Q1.crime","P0_Q1.drug","P0_Q1.schools","P0_Q1.opportunities","stim_tractT.y","block.y.y","P0_Q1.movein","P0_Q1.moveout","P0_Q1.shopping","P0_Q1.walk","P0_Q1.park","P0_Q1.school","age","sex","gender","gender-self-describe","zipcode","surveyComments"
"1","sliderTrial","html-slider-response",18,113796,"0.0-18.0",NA,"656776a7904ae00d6b91d1dd","6568ac32da819028e0decbaa",1,NA,NA,NA,NA,NA,NA,NA,NA,NA,NA,NA,"3537","[""SV_PolicingMSA/CA_2011/IMG_0_2011.jpg"",""SV_PolicingMSA/CA_2011/IMG_1_2011.jpg"",""SV_PolicingMSA/CA_2011/IMG_6_2011.jpg"",""SV_PolicingMSA/CA_2011/IMG_14_2011.jpg"",""SV_PolicingMSA/CA_2011/IMG_9_2011.jpg"",""SV_PolicingMSA/CA_2011/IMG_13_2011.jpg"",""SV_PolicingMSA/CA_2011/IMG_11_2011.jpg"",""SV_PolicingMSA/CA_2011/IMG_5_2011.jpg""]","6",NA,NA,NA,NA,NA,2,NA,4,"[""./rc_img/cop_condGroup_7_SafeStreets_autoscaled.png"",""./rc_img/cop_condGroup_7_CommunitySafety_autoscaled.png""]",2,NA,NA,"CA_2011","CA_2011",2,2,2,2,2,2,3,"CA_2011",2,1,1,1,2,2,"CA_2011",2,2,1,2,2,2,2,"30","male","man","","80910","none"
"2","sliderTrial","html-slider-response",19,116861,"0.0-19.0",NA,"656776a7904ae00d6b91d1dd","6568ac32da819028e0decbaa",1,NA,NA,NA,NA,NA,NA,NA,NA,NA,NA,NA,"3062","[""SV_PolicingMSA/CA_2011/IMG_0_2011.jpg"",""SV_PolicingMSA/CA_2011/IMG_1_2011.jpg"",""SV_PolicingMSA/CA_2011/IMG_6_2011.jpg"",""SV_PolicingMSA/CA_2011/IMG_14_2011.jpg"",""SV_PolicingMSA/CA_2011/IMG_9_2011.jpg"",""SV_PolicingMSA/CA_2011/IMG_13_2011.jpg"",""SV_PolicingMSA/CA_2011/IMG_11_2011.jpg"",""SV_PolicingMSA/CA_2011/IMG_5_2011.jpg""]","6",NA,NA,NA,NA,NA,2,NA,4,"[""./rc_img/cop_condGroup_16_SafeStreets_autoscaled.png"",""./rc_img/cop_condGroup_16_CommunitySafety_autoscaled.png""]",2,NA,NA,"CA_2011","CA_2011",2,2,2,2,2,2,3,"CA_2011",2,1,1,1,2,2,"CA_2011",2,2,1,2,2,2,2,"30","male","man","","80910","none"
"3","sliderTrial","html-slider-response",20,120445,"0.0-20.0",NA,"656776a7904ae00d6b91d1dd","6568ac32da819028e0decbaa",1,NA,NA,NA,NA,NA,NA,NA,NA,NA,NA,NA,"3582","[""SV_PolicingMSA/CA_2011/IMG_0_2011.jpg"",""SV_PolicingMSA/CA_2011/IMG_1_2011.jpg"",""SV_PolicingMSA/CA_2011/IMG_6_2011.jpg"",""SV_PolicingMSA/CA_2011/IMG_14_2011.jpg"",""SV_PolicingMSA/CA_2011/IMG_9_2011.jpg"",""SV_PolicingMSA/CA_2011/IMG_13_2011.jpg"",""SV_PolicingMSA/CA_2011/IMG_11_2011.jpg"",""SV_PolicingMSA/CA_2011/IMG_5_2011.jpg""]","1",NA,NA,NA,NA,NA,2,NA,4,"[""./rc_img/cop_condGroup_11_CommunitySafety_autoscaled.png"",""./rc_img/cop_condGroup_11_SafeStreets_autoscaled.png""]",1,NA,NA,"CA_2011","CA_2011",2,2,2,2,2,2,3,"CA_2011",2,1,1,1,2,2,"CA_2011",2,2,1,2,2,2,2,"30","male","man","","80910","none"
"4","sliderTrial","html-slider-response",21,124143,"0.0-21.0",NA,"656776a7904ae00d6b91d1dd","6568ac32da819028e0decbaa",1,NA,NA,NA,NA,NA,NA,NA,NA,NA,NA,NA,"3695","[""SV_PolicingMSA/CA_2011/IMG_0_2011.jpg"",""SV_PolicingMSA/CA_2011/IMG_1_2011.jpg"",""SV_PolicingMSA/CA_2011/IMG_6_2011.jpg"",""SV_PolicingMSA/CA_2011/IMG_14_2011.jpg"",""SV_PolicingMSA/CA_2011/IMG_9_2011.jpg"",""SV_PolicingMSA/CA_2011/IMG_13_2011.jpg"",""SV_PolicingMSA/CA_2011/IMG_11_2011.jpg"",""SV_PolicingMSA/CA_2011/IMG_5_2011.jpg""]","2",NA,NA,NA,NA,NA,2,NA,4,"[""./rc_img/cop_condGroup_18_CommunitySafety_autoscaled.png"",""./rc_img/cop_condGroup_18_SafeStreets_autoscaled.png""]",2,NA,NA,"CA_2011","CA_2011",2,2,2,2,2,2,3,"CA_2011",2,1,1,1,2,2,"CA_2011",2,2,1,2,2,2,2,"30","male","man","","80910","none"
"5","sliderTrial","html-slider-response",22,127211,"0.0-22.0",NA,"656776a7904ae00d6b91d1dd","6568ac32da819028e0decbaa",1,NA,NA,NA,NA,NA,NA,NA,NA,NA,NA,NA,"3066","[""SV_PolicingMSA/CA_2011/IMG_0_2011.jpg"",""SV_PolicingMSA/CA_2011/IMG_1_2011.jpg"",""SV_PolicingMSA/CA_2011/IMG_6_2011.jpg"",""SV_PolicingMSA/CA_2011/IMG_14_2011.jpg"",""SV_PolicingMSA/CA_2011/IMG_9_2011.jpg"",""SV_PolicingMSA/CA_2011/IMG_13_2011.jpg"",""SV_PolicingMSA/CA_2011/IMG_11_2011.jpg"",""SV_PolicingMSA/CA_2011/IMG_5_2011.jpg""]","2",NA,NA,NA,NA,NA,2,NA,4,"[""./rc_img/cop_condGroup_14_CommunitySafety_autoscaled.png"",""./rc_img/cop_condGroup_14_SafeStreets_autoscaled.png""]",2,NA,NA,"CA_2011","CA_2011",2,2,2,2,2,2,3,"CA_2011",2,1,1,1,2,2,"CA_2011",2,2,1,2,2,2,2,"30","male","man","","80910","none"
"6","sliderTrial","html-slider-response",35,197523,"0.0-35.0",NA,"656776a7904ae00d6b91d1dd","6568ac32da819028e0decbaa",1,NA,NA,NA,NA,NA,NA,NA,NA,NA,NA,NA,"5290","[""SV_PolicingMSA/CA_2537/IMG_10_2537.jpg"",""SV_PolicingMSA/CA_2537/IMG_4_2537.jpg"",""SV_PolicingMSA/CA_2537/IMG_9_2537.jpg"",""SV_PolicingMSA/CA_2537/IMG_8_2537.jpg"",""SV_PolicingMSA/CA_2537/IMG_6_2537.jpg"",""SV_PolicingMSA/CA_2537/IMG_7_2537.jpg"",""SV_PolicingMSA/CA_2537/IMG_12_2537.jpg"",""SV_PolicingMSA/CA_2537/IMG_2_2537.jpg""]","1",NA,NA,NA,NA,NA,2,NA,4,"[""./rc_img/cop_condGroup_13_CommunitySafety_autoscaled.png"",""./rc_img/cop_condGroup_13_SafeStreets_autoscaled.png""]",1,NA,NA,"CA_2537","CA_2537",2,1,2,2,2,2,4,"CA_2537",2,1,1,1,2,2,"CA_2537",2,2,1,2,2,2,2,"30","male","man","","80910","none"
"7","sliderTrial","html-slider-response",36,202124,"0.0-36.0",NA,"656776a7904ae00d6b91d1dd","6568ac32da819028e0decbaa",1,NA,NA,NA,NA,NA,NA,NA,NA,NA,NA,NA,"4599","[""SV_PolicingMSA/CA_2537/IMG_10_2537.jpg"",""SV_PolicingMSA/CA_2537/IMG_4_2537.jpg"",""SV_PolicingMSA/CA_2537/IMG_9_2537.jpg"",""SV_PolicingMSA/CA_2537/IMG_8_2537.jpg"",""SV_PolicingMSA/CA_2537/IMG_6_2537.jpg"",""SV_PolicingMSA/CA_2537/IMG_7_2537.jpg"",""SV_PolicingMSA/CA_2537/IMG_12_2537.jpg"",""SV_PolicingMSA/CA_2537/IMG_2_2537.jpg""]","1",NA,NA,NA,NA,NA,2,NA,4,"[""./rc_img/cop_condGroup_20_CommunitySafety_autoscaled.png"",""./rc_img/cop_condGroup_20_SafeStreets_autoscaled.png""]",1,NA,NA,"CA_2537","CA_2537",2,1,2,2,2,2,4,"CA_2537",2,1,1,1,2,2,"CA_2537",2,2,1,2,2,2,2,"30","male","man","","80910","none"
"8","sliderTrial","html-slider-response",37,205393,"0.0-37.0",NA,"656776a7904ae00d6b91d1dd","6568ac32da819028e0decbaa",1,NA,NA,NA,NA,NA,NA,NA,NA,NA,NA,NA,"3267","[""SV_PolicingMSA/CA_2537/IMG_10_2537.jpg"",""SV_PolicingMSA/CA_2537/IMG_4_2537.jpg"",""SV_PolicingMSA/CA_2537/IMG_9_2537.jpg"",""SV_PolicingMSA/CA_2537/IMG_8_2537.jpg"",""SV_PolicingMSA/CA_2537/IMG_6_2537.jpg"",""SV_PolicingMSA/CA_2537/IMG_7_2537.jpg"",""SV_PolicingMSA/CA_2537/IMG_12_2537.jpg"",""SV_PolicingMSA/CA_2537/IMG_2_2537.jpg""]","7",NA,NA,NA,NA,NA,2,NA,4,"[""./rc_img/cop_condGroup_4_SafeStreets_autoscaled.png"",""./rc_img/cop_condGroup_4_CommunitySafety_autoscaled.png""]",1,NA,NA,"CA_2537","CA_2537",2,1,2,2,2,2,4,"CA_2537",2,1,1,1,2,2,"CA_2537",2,2,1,2,2,2,2,"30","male","man","","80910","none"
"9","sliderTrial","html-slider-response",38,210324,"0.0-38.0",NA,"656776a7904ae00d6b91d1dd","6568ac32da819028e0decbaa",1,NA,NA,NA,NA,NA,NA,NA,NA,NA,NA,NA,"4929","[""SV_PolicingMSA/CA_2537/IMG_10_2537.jpg"",""SV_PolicingMSA/CA_2537/IMG_4_2537.jpg"",""SV_PolicingMSA/CA_2537/IMG_9_2537.jpg"",""SV_PolicingMSA/CA_2537/IMG_8_2537.jpg"",""SV_PolicingMSA/CA_2537/IMG_6_2537.jpg"",""SV_PolicingMSA/CA_2537/IMG_7_2537.jpg"",""SV_PolicingMSA/CA_2537/IMG_12_2537.jpg"",""SV_PolicingMSA/CA_2537/IMG_2_2537.jpg""]","7",NA,NA,NA,NA,NA,2,NA,4,"[""./rc_img/cop_condGroup_19_SafeStreets_autoscaled.png"",""./rc_img/cop_condGroup_19_CommunitySafety_autoscaled.png""]",1,NA,NA,"CA_2537","CA_2537",2,1,2,2,2,2,4,"CA_2537",2,1,1,1,2,2,"CA_2537",2,2,1,2,2,2,2,"30","male","man","","80910","none"
"10","sliderTrial","html-slider-response",39,214189,"0.0-39.0",NA,"656776a7904ae00d6b91d1dd","6568ac32da819028e0decbaa",1,NA,NA,NA,NA,NA,NA,NA,NA,NA,NA,NA,"3863","[""SV_PolicingMSA/CA_2537/IMG_10_2537.jpg"",""SV_PolicingMSA/CA_2537/IMG_4_2537.jpg"",""SV_PolicingMSA/CA_2537/IMG_9_2537.jpg"",""SV_PolicingMSA/CA_2537/IMG_8_2537.jpg"",""SV_PolicingMSA/CA_2537/IMG_6_2537.jpg"",""SV_PolicingMSA/CA_2537/IMG_7_2537.jpg"",""SV_PolicingMSA/CA_2537/IMG_12_2537.jpg"",""SV_PolicingMSA/CA_2537/IMG_2_2537.jpg""]","2",NA,NA,NA,NA,NA,2,NA,4,"[""./rc_img/cop_condGroup_15_CommunitySafety_autoscaled.png"",""./rc_img/cop_condGroup_15_SafeStreets_autoscaled.png""]",2,NA,NA,"CA_2537","CA_2537",2,1,2,2,2,2,4,"CA_2537",2,1,1,1,2,2,"CA_2537",2,2,1,2,2,2,2,"30","male","man","","80910","none"
"11","sliderTrial","html-slider-response",52,255873,"0.0-52.0",NA,"656776a7904ae00d6b91d1dd","6568ac32da819028e0decbaa",1,NA,NA,NA,NA,NA,NA,NA,NA,NA,NA,NA,"3808","[""SV_PolicingMSA/CA_2009/IMG_8_2009.jpg"",""SV_PolicingMSA/CA_2009/IMG_9_2009.jpg"",""SV_PolicingMSA/CA_2009/IMG_1_2009.jpg"",""SV_PolicingMSA/CA_2009/IMG_6_2009.jpg"",""SV_PolicingMSA/CA_2009/IMG_5_2009.jpg"",""SV_PolicingMSA/CA_2009/IMG_2_2009.jpg"",""SV_PolicingMSA/CA_2009/IMG_0_2009.jpg"",""SV_PolicingMSA/CA_2009/IMG_3_2009.jpg""]","1",NA,NA,NA,NA,NA,1,NA,4,"[""./rc_img/cop_condGroup_10_CommunitySafety_autoscaled.png"",""./rc_img/cop_condGroup_10_SafeStreets_autoscaled.png""]",1,NA,NA,"CA_2009","CA_2009",1,1,2,2,2,2,2,"CA_2009",1,1,1,1,2,2,"CA_2009",1,2,1,2,2,2,2,"30","male","man","","80910","none"
"12","sliderTrial","html-slider-response",53,258955,"0.0-53.0",NA,"656776a7904ae00d6b91d1dd","6568ac32da819028e0decbaa",1,NA,NA,NA,NA,NA,NA,NA,NA,NA,NA,NA,"3081","[""SV_PolicingMSA/CA_2009/IMG_8_2009.jpg"",""SV_PolicingMSA/CA_2009/IMG_9_2009.jpg"",""SV_PolicingMSA/CA_2009/IMG_1_2009.jpg"",""SV_PolicingMSA/CA_2009/IMG_6_2009.jpg"",""SV_PolicingMSA/CA_2009/IMG_5_2009.jpg"",""SV_PolicingMSA/CA_2009/IMG_2_2009.jpg"",""SV_PolicingMSA/CA_2009/IMG_0_2009.jpg"",""SV_PolicingMSA/CA_2009/IMG_3_2009.jpg""]","6",NA,NA,NA,NA,NA,1,NA,4,"[""./rc_img/cop_condGroup_2_SafeStreets_autoscaled.png"",""./rc_img/cop_condGroup_2_CommunitySafety_autoscaled.png""]",2,NA,NA,"CA_2009","CA_2009",1,1,2,2,2,2,2,"CA_2009",1,1,1,1,2,2,"CA_2009",1,2,1,2,2,2,2,"30","male","man","","80910","none"
"13","sliderTrial_attention","html-slider-response",54,268970,"0.0-54.0",NA,"656776a7904ae00d6b91d1dd","6568ac32da819028e0decbaa",1,NA,NA,NA,NA,NA,NA,NA,NA,NA,NA,NA,"null","[""SV_PolicingMSA/CA_2009/IMG_8_2009.jpg"",""SV_PolicingMSA/CA_2009/IMG_9_2009.jpg"",""SV_PolicingMSA/CA_2009/IMG_1_2009.jpg"",""SV_PolicingMSA/CA_2009/IMG_6_2009.jpg"",""SV_PolicingMSA/CA_2009/IMG_5_2009.jpg"",""SV_PolicingMSA/CA_2009/IMG_2_2009.jpg"",""SV_PolicingMSA/CA_2009/IMG_0_2009.jpg"",""SV_PolicingMSA/CA_2009/IMG_3_2009.jpg""]","null",NA,NA,NA,NA,NA,1,NA,4,"[""./assets/img/attnchk.png"",""./assets/img/attnchk.png""]",NA,TRUE,NA,"CA_2009","CA_2009",1,1,2,2,2,2,2,"CA_2009",1,1,1,1,2,2,"CA_2009",1,2,1,2,2,2,2,"30","male","man","","80910","none"
"14","sliderTrial","html-slider-response",55,273291,"0.0-55.0",NA,"656776a7904ae00d6b91d1dd","6568ac32da819028e0decbaa",1,NA,NA,NA,NA,NA,NA,NA,NA,NA,NA,NA,"4318","[""SV_PolicingMSA/CA_2009/IMG_8_2009.jpg"",""SV_PolicingMSA/CA_2009/IMG_9_2009.jpg"",""SV_PolicingMSA/CA_2009/IMG_1_2009.jpg"",""SV_PolicingMSA/CA_2009/IMG_6_2009.jpg"",""SV_PolicingMSA/CA_2009/IMG_5_2009.jpg"",""SV_PolicingMSA/CA_2009/IMG_2_2009.jpg"",""SV_PolicingMSA/CA_2009/IMG_0_2009.jpg"",""SV_PolicingMSA/CA_2009/IMG_3_2009.jpg""]","6",NA,NA,NA,NA,NA,1,NA,4,"[""./rc_img/cop_condGroup_6_SafeStreets_autoscaled.png"",""./rc_img/cop_condGroup_6_CommunitySafety_autoscaled.png""]",2,NA,NA,"CA_2009","CA_2009",1,1,2,2,2,2,2,"CA_2009",1,1,1,1,2,2,"CA_2009",1,2,1,2,2,2,2,"30","male","man","","80910","none"
"15","sliderTrial","html-slider-response",56,276871,"0.0-56.0",NA,"656776a7904ae00d6b91d1dd","6568ac32da819028e0decbaa",1,NA,NA,NA,NA,NA,NA,NA,NA,NA,NA,NA,"3579","[""SV_PolicingMSA/CA_2009/IMG_8_2009.jpg"",""SV_PolicingMSA/CA_2009/IMG_9_2009.jpg"",""SV_PolicingMSA/CA_2009/IMG_1_2009.jpg"",""SV_PolicingMSA/CA_2009/IMG_6_2009.jpg"",""SV_PolicingMSA/CA_2009/IMG_5_2009.jpg"",""SV_PolicingMSA/CA_2009/IMG_2_2009.jpg"",""SV_PolicingMSA/CA_2009/IMG_0_2009.jpg"",""SV_PolicingMSA/CA_2009/IMG_3_2009.jpg""]","2",NA,NA,NA,NA,NA,1,NA,4,"[""./rc_img/cop_condGroup_12_CommunitySafety_autoscaled.png"",""./rc_img/cop_condGroup_12_SafeStreets_autoscaled.png""]",2,NA,NA,"CA_2009","CA_2009",1,1,2,2,2,2,2,"CA_2009",1,1,1,1,2,2,"CA_2009",1,2,1,2,2,2,2,"30","male","man","","80910","none"
"16","sliderTrial","html-slider-response",57,281854,"0.0-57.0",NA,"656776a7904ae00d6b91d1dd","6568ac32da819028e0decbaa",1,NA,NA,NA,NA,NA,NA,NA,NA,NA,NA,NA,"4981","[""SV_PolicingMSA/CA_2009/IMG_8_2009.jpg"",""SV_PolicingMSA/CA_2009/IMG_9_2009.jpg"",""SV_PolicingMSA/CA_2009/IMG_1_2009.jpg"",""SV_PolicingMSA/CA_2009/IMG_6_2009.jpg"",""SV_PolicingMSA/CA_2009/IMG_5_2009.jpg"",""SV_PolicingMSA/CA_2009/IMG_2_2009.jpg"",""SV_PolicingMSA/CA_2009/IMG_0_2009.jpg"",""SV_PolicingMSA/CA_2009/IMG_3_2009.jpg""]","1",NA,NA,NA,NA,NA,1,NA,4,"[""./rc_img/cop_condGroup_1_CommunitySafety_autoscaled.png"",""./rc_img/cop_condGroup_1_SafeStreets_autoscaled.png""]",1,NA,NA,"CA_2009","CA_2009",1,1,2,2,2,2,2,"CA_2009",1,1,1,1,2,2,"CA_2009",1,2,1,2,2,2,2,"30","male","man","","80910","none"
"17","sliderTrial","html-slider-response",70,329402,"0.0-70.0",NA,"656776a7904ae00d6b91d1dd","6568ac32da819028e0decbaa",1,NA,NA,NA,NA,NA,NA,NA,NA,NA,NA,NA,"4972","[""SV_PolicingMSA/CA_8990/IMG_8_8990.jpg"",""SV_PolicingMSA/CA_8990/IMG_9_8990.jpg"",""SV_PolicingMSA/CA_8990/IMG_13_8990.jpg"",""SV_PolicingMSA/CA_8990/IMG_5_8990.jpg"",""SV_PolicingMSA/CA_8990/IMG_2_8990.jpg"",""SV_PolicingMSA/CA_8990/IMG_14_8990.jpg"",""SV_PolicingMSA/CA_8990/IMG_12_8990.jpg"",""SV_PolicingMSA/CA_8990/IMG_10_8990.jpg""]","6",NA,NA,NA,NA,NA,3,NA,4,"[""./rc_img/cop_condGroup_5_SafeStreets_autoscaled.png"",""./rc_img/cop_condGroup_5_CommunitySafety_autoscaled.png""]",2,NA,NA,"CA_8990","CA_8990",3,1,2,2,2,2,5,"CA_8990",3,1,1,1,2,2,"CA_8990",3,2,1,2,2,2,2,"30","male","man","","80910","none"
"18","sliderTrial","html-slider-response",71,332919,"0.0-71.0",NA,"656776a7904ae00d6b91d1dd","6568ac32da819028e0decbaa",1,NA,NA,NA,NA,NA,NA,NA,NA,NA,NA,NA,"3515","[""SV_PolicingMSA/CA_8990/IMG_8_8990.jpg"",""SV_PolicingMSA/CA_8990/IMG_9_8990.jpg"",""SV_PolicingMSA/CA_8990/IMG_13_8990.jpg"",""SV_PolicingMSA/CA_8990/IMG_5_8990.jpg"",""SV_PolicingMSA/CA_8990/IMG_2_8990.jpg"",""SV_PolicingMSA/CA_8990/IMG_14_8990.jpg"",""SV_PolicingMSA/CA_8990/IMG_12_8990.jpg"",""SV_PolicingMSA/CA_8990/IMG_10_8990.jpg""]","1",NA,NA,NA,NA,NA,3,NA,4,"[""./rc_img/cop_condGroup_9_CommunitySafety_autoscaled.png"",""./rc_img/cop_condGroup_9_SafeStreets_autoscaled.png""]",1,NA,NA,"CA_8990","CA_8990",3,1,2,2,2,2,5,"CA_8990",3,1,1,1,2,2,"CA_8990",3,2,1,2,2,2,2,"30","male","man","","80910","none"
"19","sliderTrial","html-slider-response",72,336717,"0.0-72.0",NA,"656776a7904ae00d6b91d1dd","6568ac32da819028e0decbaa",1,NA,NA,NA,NA,NA,NA,NA,NA,NA,NA,NA,"3795","[""SV_PolicingMSA/CA_8990/IMG_8_8990.jpg"",""SV_PolicingMSA/CA_8990/IMG_9_8990.jpg"",""SV_PolicingMSA/CA_8990/IMG_13_8990.jpg"",""SV_PolicingMSA/CA_8990/IMG_5_8990.jpg"",""SV_PolicingMSA/CA_8990/IMG_2_8990.jpg"",""SV_PolicingMSA/CA_8990/IMG_14_8990.jpg"",""SV_PolicingMSA/CA_8990/IMG_12_8990.jpg"",""SV_PolicingMSA/CA_8990/IMG_10_8990.jpg""]","7",NA,NA,NA,NA,NA,3,NA,4,"[""./rc_img/cop_condGroup_3_SafeStreets_autoscaled.png"",""./rc_img/cop_condGroup_3_CommunitySafety_autoscaled.png""]",1,NA,NA,"CA_8990","CA_8990",3,1,2,2,2,2,5,"CA_8990",3,1,1,1,2,2,"CA_8990",3,2,1,2,2,2,2,"30","male","man","","80910","none"
"20","sliderTrial","html-slider-response",73,340102,"0.0-73.0",NA,"656776a7904ae00d6b91d1dd","6568ac32da819028e0decbaa",1,NA,NA,NA,NA,NA,NA,NA,NA,NA,NA,NA,"3382","[""SV_PolicingMSA/CA_8990/IMG_8_8990.jpg"",""SV_PolicingMSA/CA_8990/IMG_9_8990.jpg"",""SV_PolicingMSA/CA_8990/IMG_13_8990.jpg"",""SV_PolicingMSA/CA_8990/IMG_5_8990.jpg"",""SV_PolicingMSA/CA_8990/IMG_2_8990.jpg"",""SV_PolicingMSA/CA_8990/IMG_14_8990.jpg"",""SV_PolicingMSA/CA_8990/IMG_12_8990.jpg"",""SV_PolicingMSA/CA_8990/IMG_10_8990.jpg""]","1",NA,NA,NA,NA,NA,3,NA,4,"[""./rc_img/cop_condGroup_17_CommunitySafety_autoscaled.png"",""./rc_img/cop_condGroup_17_SafeStreets_autoscaled.png""]",1,NA,NA,"CA_8990","CA_8990",3,1,2,2,2,2,5,"CA_8990",3,1,1,1,2,2,"CA_8990",3,2,1,2,2,2,2,"30","male","man","","80910","none"
"21","sliderTrial","html-slider-response",74,343818,"0.0-74.0",NA,"656776a7904ae00d6b91d1dd","6568ac32da819028e0decbaa",1,NA,NA,NA,NA,NA,NA,NA,NA,NA,NA,NA,"3715","[""SV_PolicingMSA/CA_8990/IMG_8_8990.jpg"",""SV_PolicingMSA/CA_8990/IMG_9_8990.jpg"",""SV_PolicingMSA/CA_8990/IMG_13_8990.jpg"",""SV_PolicingMSA/CA_8990/IMG_5_8990.jpg"",""SV_PolicingMSA/CA_8990/IMG_2_8990.jpg"",""SV_PolicingMSA/CA_8990/IMG_14_8990.jpg"",""SV_PolicingMSA/CA_8990/IMG_12_8990.jpg"",""SV_PolicingMSA/CA_8990/IMG_10_8990.jpg""]","1",NA,NA,NA,NA,NA,3,NA,4,"[""./rc_img/cop_condGroup_8_CommunitySafety_autoscaled.png"",""./rc_img/cop_condGroup_8_SafeStreets_autoscaled.png""]",1,NA,NA,"CA_8990","CA_8990",3,1,2,2,2,2,5,"CA_8990",3,1,1,1,2,2,"CA_8990",3,2,1,2,2,2,2,"30","male","man","","80910","none"
"22","sliderTrial","html-slider-response",88,462746,"0.0-88.0",NA,"656776a7904ae00d6b91d1dd","6568ac32da819028e0decbaa",1,NA,NA,NA,NA,NA,NA,NA,NA,NA,NA,NA,"4503","[""SV_PolicingMSA/CA_2534/IMG_14_2534.jpg"",""SV_PolicingMSA/CA_2534/IMG_5_2534.jpg"",""SV_PolicingMSA/CA_2534/IMG_1_2534.jpg"",""SV_PolicingMSA/CA_2534/IMG_11_2534.jpg"",""SV_PolicingMSA/CA_2534/IMG_8_2534.jpg"",""SV_PolicingMSA/CA_2534/IMG_10_2534.jpg"",""SV_PolicingMSA/CA_2534/IMG_4_2534.jpg"",""SV_PolicingMSA/CA_2534/IMG_6_2534.jpg""]","1",NA,NA,NA,NA,NA,0,NA,4,"[""./rc_img/cop_condGroup_13_CommunitySafety_autoscaled.png"",""./rc_img/cop_condGroup_13_SafeStreets_autoscaled.png""]",1,NA,NA,"CA_2534","CA_2534",0,2,2,2,2,2,1,"CA_2534",0,1,1,1,2,2,"CA_2534",0,2,1,2,2,2,2,"30","male","man","","80910","none"
"23","sliderTrial","html-slider-response",89,467525,"0.0-89.0",NA,"656776a7904ae00d6b91d1dd","6568ac32da819028e0decbaa",1,NA,NA,NA,NA,NA,NA,NA,NA,NA,NA,NA,"4776","[""SV_PolicingMSA/CA_2534/IMG_14_2534.jpg"",""SV_PolicingMSA/CA_2534/IMG_5_2534.jpg"",""SV_PolicingMSA/CA_2534/IMG_1_2534.jpg"",""SV_PolicingMSA/CA_2534/IMG_11_2534.jpg"",""SV_PolicingMSA/CA_2534/IMG_8_2534.jpg"",""SV_PolicingMSA/CA_2534/IMG_10_2534.jpg"",""SV_PolicingMSA/CA_2534/IMG_4_2534.jpg"",""SV_PolicingMSA/CA_2534/IMG_6_2534.jpg""]","1",NA,NA,NA,NA,NA,0,NA,4,"[""./rc_img/cop_condGroup_20_CommunitySafety_autoscaled.png"",""./rc_img/cop_condGroup_20_SafeStreets_autoscaled.png""]",1,NA,NA,"CA_2534","CA_2534",0,2,2,2,2,2,1,"CA_2534",0,1,1,1,2,2,"CA_2534",0,2,1,2,2,2,2,"30","male","man","","80910","none"
"24","sliderTrial_attention","html-slider-response",90,477538,"0.0-90.0",NA,"656776a7904ae00d6b91d1dd","6568ac32da819028e0decbaa",1,NA,NA,NA,NA,NA,NA,NA,NA,NA,NA,NA,"null","[""SV_PolicingMSA/CA_2534/IMG_14_2534.jpg"",""SV_PolicingMSA/CA_2534/IMG_5_2534.jpg"",""SV_PolicingMSA/CA_2534/IMG_1_2534.jpg"",""SV_PolicingMSA/CA_2534/IMG_11_2534.jpg"",""SV_PolicingMSA/CA_2534/IMG_8_2534.jpg"",""SV_PolicingMSA/CA_2534/IMG_10_2534.jpg"",""SV_PolicingMSA/CA_2534/IMG_4_2534.jpg"",""SV_PolicingMSA/CA_2534/IMG_6_2534.jpg""]","null",NA,NA,NA,NA,NA,0,NA,4,"[""./assets/img/attnchk.png"",""./assets/img/attnchk.png""]",NA,TRUE,NA,"CA_2534","CA_2534",0,2,2,2,2,2,1,"CA_2534",0,1,1,1,2,2,"CA_2534",0,2,1,2,2,2,2,"30","male","man","","80910","none"
"25","sliderTrial","html-slider-response",91,481329,"0.0-91.0",NA,"656776a7904ae00d6b91d1dd","6568ac32da819028e0decbaa",1,NA,NA,NA,NA,NA,NA,NA,NA,NA,NA,NA,"3788","[""SV_PolicingMSA/CA_2534/IMG_14_2534.jpg"",""SV_PolicingMSA/CA_2534/IMG_5_2534.jpg"",""SV_PolicingMSA/CA_2534/IMG_1_2534.jpg"",""SV_PolicingMSA/CA_2534/IMG_11_2534.jpg"",""SV_PolicingMSA/CA_2534/IMG_8_2534.jpg"",""SV_PolicingMSA/CA_2534/IMG_10_2534.jpg"",""SV_PolicingMSA/CA_2534/IMG_4_2534.jpg"",""SV_PolicingMSA/CA_2534/IMG_6_2534.jpg""]","7",NA,NA,NA,NA,NA,0,NA,4,"[""./rc_img/cop_condGroup_4_SafeStreets_autoscaled.png"",""./rc_img/cop_condGroup_4_CommunitySafety_autoscaled.png""]",1,NA,NA,"CA_2534","CA_2534",0,2,2,2,2,2,1,"CA_2534",0,1,1,1,2,2,"CA_2534",0,2,1,2,2,2,2,"30","male","man","","80910","none"
"26","sliderTrial","html-slider-response",92,485245,"0.0-92.0",NA,"656776a7904ae00d6b91d1dd","6568ac32da819028e0decbaa",1,NA,NA,NA,NA,NA,NA,NA,NA,NA,NA,NA,"3914","[""SV_PolicingMSA/CA_2534/IMG_14_2534.jpg"",""SV_PolicingMSA/CA_2534/IMG_5_2534.jpg"",""SV_PolicingMSA/CA_2534/IMG_1_2534.jpg"",""SV_PolicingMSA/CA_2534/IMG_11_2534.jpg"",""SV_PolicingMSA/CA_2534/IMG_8_2534.jpg"",""SV_PolicingMSA/CA_2534/IMG_10_2534.jpg"",""SV_PolicingMSA/CA_2534/IMG_4_2534.jpg"",""SV_PolicingMSA/CA_2534/IMG_6_2534.jpg""]","1",NA,NA,NA,NA,NA,0,NA,4,"[""./rc_img/cop_condGroup_19_SafeStreets_autoscaled.png"",""./rc_img/cop_condGroup_19_CommunitySafety_autoscaled.png""]",7,NA,NA,"CA_2534","CA_2534",0,2,2,2,2,2,1,"CA_2534",0,1,1,1,2,2,"CA_2534",0,2,1,2,2,2,2,"30","male","man","","80910","none"
"27","sliderTrial","html-slider-response",93,489014,"0.0-93.0",NA,"656776a7904ae00d6b91d1dd","6568ac32da819028e0decbaa",1,NA,NA,NA,NA,NA,NA,NA,NA,NA,NA,NA,"3767","[""SV_PolicingMSA/CA_2534/IMG_14_2534.jpg"",""SV_PolicingMSA/CA_2534/IMG_5_2534.jpg"",""SV_PolicingMSA/CA_2534/IMG_1_2534.jpg"",""SV_PolicingMSA/CA_2534/IMG_11_2534.jpg"",""SV_PolicingMSA/CA_2534/IMG_8_2534.jpg"",""SV_PolicingMSA/CA_2534/IMG_10_2534.jpg"",""SV_PolicingMSA/CA_2534/IMG_4_2534.jpg"",""SV_PolicingMSA/CA_2534/IMG_6_2534.jpg""]","1",NA,NA,NA,NA,NA,0,NA,4,"[""./rc_img/cop_condGroup_15_CommunitySafety_autoscaled.png"",""./rc_img/cop_condGroup_15_SafeStreets_autoscaled.png""]",1,NA,NA,"CA_2534","CA_2534",0,2,2,2,2,2,1,"CA_2534",0,1,1,1,2,2,"CA_2534",0,2,1,2,2,2,2,"30","male","man","","80910","none"
"28","sliderTrial","html-slider-response",106,536010,"0.0-106.0",NA,"656776a7904ae00d6b91d1dd","6568ac32da819028e0decbaa",1,NA,NA,NA,NA,NA,NA,NA,NA,NA,NA,NA,"3458","[""SV_PolicingMSA/CA_5098/IMG_5_5098.jpg"",""SV_PolicingMSA/CA_5098/IMG_2_5098.jpg"",""SV_PolicingMSA/CA_5098/IMG_0_5098.jpg"",""SV_PolicingMSA/CA_5098/IMG_14_5098.jpg"",""SV_PolicingMSA/CA_5098/IMG_7_5098.jpg"",""SV_PolicingMSA/CA_5098/IMG_4_5098.jpg"",""SV_PolicingMSA/CA_5098/IMG_11_5098.jpg"",""SV_PolicingMSA/CA_5098/IMG_13_5098.jpg""]","7",NA,NA,NA,NA,NA,5,NA,4,"[""./rc_img/cop_condGroup_5_SafeStreets_autoscaled.png"",""./rc_img/cop_condGroup_5_CommunitySafety_autoscaled.png""]",1,NA,NA,"CA_5098","CA_5098",5,1,2,2,2,2,8,"CA_5098",5,1,1,1,2,2,"CA_5098",5,2,1,2,2,2,2,"30","male","man","","80910","none"
"29","sliderTrial","html-slider-response",107,540143,"0.0-107.0",NA,"656776a7904ae00d6b91d1dd","6568ac32da819028e0decbaa",1,NA,NA,NA,NA,NA,NA,NA,NA,NA,NA,NA,"4131","[""SV_PolicingMSA/CA_5098/IMG_5_5098.jpg"",""SV_PolicingMSA/CA_5098/IMG_2_5098.jpg"",""SV_PolicingMSA/CA_5098/IMG_0_5098.jpg"",""SV_PolicingMSA/CA_5098/IMG_14_5098.jpg"",""SV_PolicingMSA/CA_5098/IMG_7_5098.jpg"",""SV_PolicingMSA/CA_5098/IMG_4_5098.jpg"",""SV_PolicingMSA/CA_5098/IMG_11_5098.jpg"",""SV_PolicingMSA/CA_5098/IMG_13_5098.jpg""]","1",NA,NA,NA,NA,NA,5,NA,4,"[""./rc_img/cop_condGroup_9_CommunitySafety_autoscaled.png"",""./rc_img/cop_condGroup_9_SafeStreets_autoscaled.png""]",1,NA,NA,"CA_5098","CA_5098",5,1,2,2,2,2,8,"CA_5098",5,1,1,1,2,2,"CA_5098",5,2,1,2,2,2,2,"30","male","man","","80910","none"
"30","sliderTrial","html-slider-response",108,543460,"0.0-108.0",NA,"656776a7904ae00d6b91d1dd","6568ac32da819028e0decbaa",1,NA,NA,NA,NA,NA,NA,NA,NA,NA,NA,NA,"3315","[""SV_PolicingMSA/CA_5098/IMG_5_5098.jpg"",""SV_PolicingMSA/CA_5098/IMG_2_5098.jpg"",""SV_PolicingMSA/CA_5098/IMG_0_5098.jpg"",""SV_PolicingMSA/CA_5098/IMG_14_5098.jpg"",""SV_PolicingMSA/CA_5098/IMG_7_5098.jpg"",""SV_PolicingMSA/CA_5098/IMG_4_5098.jpg"",""SV_PolicingMSA/CA_5098/IMG_11_5098.jpg"",""SV_PolicingMSA/CA_5098/IMG_13_5098.jpg""]","7",NA,NA,NA,NA,NA,5,NA,4,"[""./rc_img/cop_condGroup_3_SafeStreets_autoscaled.png"",""./rc_img/cop_condGroup_3_CommunitySafety_autoscaled.png""]",1,NA,NA,"CA_5098","CA_5098",5,1,2,2,2,2,8,"CA_5098",5,1,1,1,2,2,"CA_5098",5,2,1,2,2,2,2,"30","male","man","","80910","none"
"31","sliderTrial","html-slider-response",109,546342,"0.0-109.0",NA,"656776a7904ae00d6b91d1dd","6568ac32da819028e0decbaa",1,NA,NA,NA,NA,NA,NA,NA,NA,NA,NA,NA,"2879","[""SV_PolicingMSA/CA_5098/IMG_5_5098.jpg"",""SV_PolicingMSA/CA_5098/IMG_2_5098.jpg"",""SV_PolicingMSA/CA_5098/IMG_0_5098.jpg"",""SV_PolicingMSA/CA_5098/IMG_14_5098.jpg"",""SV_PolicingMSA/CA_5098/IMG_7_5098.jpg"",""SV_PolicingMSA/CA_5098/IMG_4_5098.jpg"",""SV_PolicingMSA/CA_5098/IMG_11_5098.jpg"",""SV_PolicingMSA/CA_5098/IMG_13_5098.jpg""]","1",NA,NA,NA,NA,NA,5,NA,4,"[""./rc_img/cop_condGroup_17_CommunitySafety_autoscaled.png"",""./rc_img/cop_condGroup_17_SafeStreets_autoscaled.png""]",1,NA,NA,"CA_5098","CA_5098",5,1,2,2,2,2,8,"CA_5098",5,1,1,1,2,2,"CA_5098",5,2,1,2,2,2,2,"30","male","man","","80910","none"
"32","sliderTrial","html-slider-response",110,551628,"0.0-110.0",NA,"656776a7904ae00d6b91d1dd","6568ac32da819028e0decbaa",1,NA,NA,NA,NA,NA,NA,NA,NA,NA,NA,NA,"5284","[""SV_PolicingMSA/CA_5098/IMG_5_5098.jpg"",""SV_PolicingMSA/CA_5098/IMG_2_5098.jpg"",""SV_PolicingMSA/CA_5098/IMG_0_5098.jpg"",""SV_PolicingMSA/CA_5098/IMG_14_5098.jpg"",""SV_PolicingMSA/CA_5098/IMG_7_5098.jpg"",""SV_PolicingMSA/CA_5098/IMG_4_5098.jpg"",""SV_PolicingMSA/CA_5098/IMG_11_5098.jpg"",""SV_PolicingMSA/CA_5098/IMG_13_5098.jpg""]","1",NA,NA,NA,NA,NA,5,NA,4,"[""./rc_img/cop_condGroup_8_CommunitySafety_autoscaled.png"",""./rc_img/cop_condGroup_8_SafeStreets_autoscaled.png""]",1,NA,NA,"CA_5098","CA_5098",5,1,2,2,2,2,8,"CA_5098",5,1,1,1,2,2,"CA_5098",5,2,1,2,2,2,2,"30","male","man","","80910","none"
"33","sliderTrial","html-slider-response",123,599690,"0.0-123.0",NA,"656776a7904ae00d6b91d1dd","6568ac32da819028e0decbaa",1,NA,NA,NA,NA,NA,NA,NA,NA,NA,NA,NA,"3939","[""SV_PolicingMSA/CA_2555/IMG_8_2555.jpg"",""SV_PolicingMSA/CA_2555/IMG_13_2555.jpg"",""SV_PolicingMSA/CA_2555/IMG_3_2555.jpg"",""SV_PolicingMSA/CA_2555/IMG_14_2555.jpg"",""SV_PolicingMSA/CA_2555/IMG_9_2555.jpg"",""SV_PolicingMSA/CA_2555/IMG_6_2555.jpg"",""SV_PolicingMSA/CA_2555/IMG_2_2555.jpg"",""SV_PolicingMSA/CA_2555/IMG_7_2555.jpg""]","1",NA,NA,NA,NA,NA,3,NA,4,"[""./rc_img/cop_condGroup_10_CommunitySafety_autoscaled.png"",""./rc_img/cop_condGroup_10_SafeStreets_autoscaled.png""]",1,NA,NA,"CA_2555","CA_2555",3,3,3,3,3,3,6,"CA_2555",3,0,0,0,3,3,"CA_2555",3,4,0,3,3,3,3,"30","male","man","","80910","none"
"34","sliderTrial","html-slider-response",124,603041,"0.0-124.0",NA,"656776a7904ae00d6b91d1dd","6568ac32da819028e0decbaa",1,NA,NA,NA,NA,NA,NA,NA,NA,NA,NA,NA,"3349","[""SV_PolicingMSA/CA_2555/IMG_8_2555.jpg"",""SV_PolicingMSA/CA_2555/IMG_13_2555.jpg"",""SV_PolicingMSA/CA_2555/IMG_3_2555.jpg"",""SV_PolicingMSA/CA_2555/IMG_14_2555.jpg"",""SV_PolicingMSA/CA_2555/IMG_9_2555.jpg"",""SV_PolicingMSA/CA_2555/IMG_6_2555.jpg"",""SV_PolicingMSA/CA_2555/IMG_2_2555.jpg"",""SV_PolicingMSA/CA_2555/IMG_7_2555.jpg""]","4",NA,NA,NA,NA,NA,3,NA,4,"[""./rc_img/cop_condGroup_2_SafeStreets_autoscaled.png"",""./rc_img/cop_condGroup_2_CommunitySafety_autoscaled.png""]",4,NA,NA,"CA_2555","CA_2555",3,3,3,3,3,3,6,"CA_2555",3,0,0,0,3,3,"CA_2555",3,4,0,3,3,3,3,"30","male","man","","80910","none"
"35","sliderTrial","html-slider-response",125,607608,"0.0-125.0",NA,"656776a7904ae00d6b91d1dd","6568ac32da819028e0decbaa",1,NA,NA,NA,NA,NA,NA,NA,NA,NA,NA,NA,"4565","[""SV_PolicingMSA/CA_2555/IMG_8_2555.jpg"",""SV_PolicingMSA/CA_2555/IMG_13_2555.jpg"",""SV_PolicingMSA/CA_2555/IMG_3_2555.jpg"",""SV_PolicingMSA/CA_2555/IMG_14_2555.jpg"",""SV_PolicingMSA/CA_2555/IMG_9_2555.jpg"",""SV_PolicingMSA/CA_2555/IMG_6_2555.jpg"",""SV_PolicingMSA/CA_2555/IMG_2_2555.jpg"",""SV_PolicingMSA/CA_2555/IMG_7_2555.jpg""]","7",NA,NA,NA,NA,NA,3,NA,4,"[""./rc_img/cop_condGroup_6_SafeStreets_autoscaled.png"",""./rc_img/cop_condGroup_6_CommunitySafety_autoscaled.png""]",1,NA,NA,"CA_2555","CA_2555",3,3,3,3,3,3,6,"CA_2555",3,0,0,0,3,3,"CA_2555",3,4,0,3,3,3,3,"30","male","man","","80910","none"
"36","sliderTrial","html-slider-response",126,611556,"0.0-126.0",NA,"656776a7904ae00d6b91d1dd","6568ac32da819028e0decbaa",1,NA,NA,NA,NA,NA,NA,NA,NA,NA,NA,NA,"3946","[""SV_PolicingMSA/CA_2555/IMG_8_2555.jpg"",""SV_PolicingMSA/CA_2555/IMG_13_2555.jpg"",""SV_PolicingMSA/CA_2555/IMG_3_2555.jpg"",""SV_PolicingMSA/CA_2555/IMG_14_2555.jpg"",""SV_PolicingMSA/CA_2555/IMG_9_2555.jpg"",""SV_PolicingMSA/CA_2555/IMG_6_2555.jpg"",""SV_PolicingMSA/CA_2555/IMG_2_2555.jpg"",""SV_PolicingMSA/CA_2555/IMG_7_2555.jpg""]","1",NA,NA,NA,NA,NA,3,NA,4,"[""./rc_img/cop_condGroup_12_CommunitySafety_autoscaled.png"",""./rc_img/cop_condGroup_12_SafeStreets_autoscaled.png""]",1,NA,NA,"CA_2555","CA_2555",3,3,3,3,3,3,6,"CA_2555",3,0,0,0,3,3,"CA_2555",3,4,0,3,3,3,3,"30","male","man","","80910","none"
"37","sliderTrial","html-slider-response",127,614872,"0.0-127.0",NA,"656776a7904ae00d6b91d1dd","6568ac32da819028e0decbaa",1,NA,NA,NA,NA,NA,NA,NA,NA,NA,NA,NA,"3313","[""SV_PolicingMSA/CA_2555/IMG_8_2555.jpg"",""SV_PolicingMSA/CA_2555/IMG_13_2555.jpg"",""SV_PolicingMSA/CA_2555/IMG_3_2555.jpg"",""SV_PolicingMSA/CA_2555/IMG_14_2555.jpg"",""SV_PolicingMSA/CA_2555/IMG_9_2555.jpg"",""SV_PolicingMSA/CA_2555/IMG_6_2555.jpg"",""SV_PolicingMSA/CA_2555/IMG_2_2555.jpg"",""SV_PolicingMSA/CA_2555/IMG_7_2555.jpg""]","1",NA,NA,NA,NA,NA,3,NA,4,"[""./rc_img/cop_condGroup_1_CommunitySafety_autoscaled.png"",""./rc_img/cop_condGroup_1_SafeStreets_autoscaled.png""]",1,NA,NA,"CA_2555","CA_2555",3,3,3,3,3,3,6,"CA_2555",3,0,0,0,3,3,"CA_2555",3,4,0,3,3,3,3,"30","male","man","","80910","none"
"38","sliderTrial","html-slider-response",140,664304,"0.0-140.0",NA,"656776a7904ae00d6b91d1dd","6568ac32da819028e0decbaa",1,NA,NA,NA,NA,NA,NA,NA,NA,NA,NA,NA,"3841","[""SV_PolicingMSA/CA_8565/IMG_3_8565.jpg"",""SV_PolicingMSA/CA_8565/IMG_12_8565.jpg"",""SV_PolicingMSA/CA_8565/IMG_5_8565.jpg"",""SV_PolicingMSA/CA_8565/IMG_7_8565.jpg"",""SV_PolicingMSA/CA_8565/IMG_1_8565.jpg"",""SV_PolicingMSA/CA_8565/IMG_2_8565.jpg"",""SV_PolicingMSA/CA_8565/IMG_8_8565.jpg"",""SV_PolicingMSA/CA_8565/IMG_6_8565.jpg""]","7",NA,NA,NA,NA,NA,4,NA,4,"[""./rc_img/cop_condGroup_7_SafeStreets_autoscaled.png"",""./rc_img/cop_condGroup_7_CommunitySafety_autoscaled.png""]",1,NA,NA,"CA_8565","CA_8565",4,2,3,3,3,3,7,"CA_8565",4,0,0,0,2,2,"CA_8565",4,3,0,3,3,3,3,"30","male","man","","80910","none"
"39","sliderTrial","html-slider-response",141,667570,"0.0-141.0",NA,"656776a7904ae00d6b91d1dd","6568ac32da819028e0decbaa",1,NA,NA,NA,NA,NA,NA,NA,NA,NA,NA,NA,"3263","[""SV_PolicingMSA/CA_8565/IMG_3_8565.jpg"",""SV_PolicingMSA/CA_8565/IMG_12_8565.jpg"",""SV_PolicingMSA/CA_8565/IMG_5_8565.jpg"",""SV_PolicingMSA/CA_8565/IMG_7_8565.jpg"",""SV_PolicingMSA/CA_8565/IMG_1_8565.jpg"",""SV_PolicingMSA/CA_8565/IMG_2_8565.jpg"",""SV_PolicingMSA/CA_8565/IMG_8_8565.jpg"",""SV_PolicingMSA/CA_8565/IMG_6_8565.jpg""]","7",NA,NA,NA,NA,NA,4,NA,4,"[""./rc_img/cop_condGroup_16_SafeStreets_autoscaled.png"",""./rc_img/cop_condGroup_16_CommunitySafety_autoscaled.png""]",1,NA,NA,"CA_8565","CA_8565",4,2,3,3,3,3,7,"CA_8565",4,0,0,0,2,2,"CA_8565",4,3,0,3,3,3,3,"30","male","man","","80910","none"
"40","sliderTrial","html-slider-response",142,671586,"0.0-142.0",NA,"656776a7904ae00d6b91d1dd","6568ac32da819028e0decbaa",1,NA,NA,NA,NA,NA,NA,NA,NA,NA,NA,NA,"4014","[""SV_PolicingMSA/CA_8565/IMG_3_8565.jpg"",""SV_PolicingMSA/CA_8565/IMG_12_8565.jpg"",""SV_PolicingMSA/CA_8565/IMG_5_8565.jpg"",""SV_PolicingMSA/CA_8565/IMG_7_8565.jpg"",""SV_PolicingMSA/CA_8565/IMG_1_8565.jpg"",""SV_PolicingMSA/CA_8565/IMG_2_8565.jpg"",""SV_PolicingMSA/CA_8565/IMG_8_8565.jpg"",""SV_PolicingMSA/CA_8565/IMG_6_8565.jpg""]","1",NA,NA,NA,NA,NA,4,NA,4,"[""./rc_img/cop_condGroup_11_CommunitySafety_autoscaled.png"",""./rc_img/cop_condGroup_11_SafeStreets_autoscaled.png""]",1,NA,NA,"CA_8565","CA_8565",4,2,3,3,3,3,7,"CA_8565",4,0,0,0,2,2,"CA_8565",4,3,0,3,3,3,3,"30","male","man","","80910","none"
"41","sliderTrial","html-slider-response",143,675952,"0.0-143.0",NA,"656776a7904ae00d6b91d1dd","6568ac32da819028e0decbaa",1,NA,NA,NA,NA,NA,NA,NA,NA,NA,NA,NA,"4365","[""SV_PolicingMSA/CA_8565/IMG_3_8565.jpg"",""SV_PolicingMSA/CA_8565/IMG_12_8565.jpg"",""SV_PolicingMSA/CA_8565/IMG_5_8565.jpg"",""SV_PolicingMSA/CA_8565/IMG_7_8565.jpg"",""SV_PolicingMSA/CA_8565/IMG_1_8565.jpg"",""SV_PolicingMSA/CA_8565/IMG_2_8565.jpg"",""SV_PolicingMSA/CA_8565/IMG_8_8565.jpg"",""SV_PolicingMSA/CA_8565/IMG_6_8565.jpg""]","1",NA,NA,NA,NA,NA,4,NA,4,"[""./rc_img/cop_condGroup_18_CommunitySafety_autoscaled.png"",""./rc_img/cop_condGroup_18_SafeStreets_autoscaled.png""]",1,NA,NA,"CA_8565","CA_8565",4,2,3,3,3,3,7,"CA_8565",4,0,0,0,2,2,"CA_8565",4,3,0,3,3,3,3,"30","male","man","","80910","none"
"42","sliderTrial","html-slider-response",144,681237,"0.0-144.0",NA,"656776a7904ae00d6b91d1dd","6568ac32da819028e0decbaa",1,NA,NA,NA,NA,NA,NA,NA,NA,NA,NA,NA,"5282","[""SV_PolicingMSA/CA_8565/IMG_3_8565.jpg"",""SV_PolicingMSA/CA_8565/IMG_12_8565.jpg"",""SV_PolicingMSA/CA_8565/IMG_5_8565.jpg"",""SV_PolicingMSA/CA_8565/IMG_7_8565.jpg"",""SV_PolicingMSA/CA_8565/IMG_1_8565.jpg"",""SV_PolicingMSA/CA_8565/IMG_2_8565.jpg"",""SV_PolicingMSA/CA_8565/IMG_8_8565.jpg"",""SV_PolicingMSA/CA_8565/IMG_6_8565.jpg""]","1",NA,NA,NA,NA,NA,4,NA,4,"[""./rc_img/cop_condGroup_14_CommunitySafety_autoscaled.png"",""./rc_img/cop_condGroup_14_SafeStreets_autoscaled.png""]",1,NA,NA,"CA_8565","CA_8565",4,2,3,3,3,3,7,"CA_8565",4,0,0,0,2,2,"CA_8565",4,3,0,3,3,3,3,"30","male","man","","80910","none"
