"","task","trial_type","trial_index","time_elapsed","internal_node_id","subject_id","study_id","session_id","section","width","height","webaudio","browser","browser_version","mobile","os","fullscreen","vsync_rate","webcam","microphone","rt","stimulus","response","success","timeout","failed_images","failed_audio","failed_video","block.x.x","accuracy","slider_start","choices","standardized_response","correct","num_attention_checks_correct","stim_tract","stim_tractT","block.x","P0_Q1.wealthy","P0_Q1.safe","P0_Q1.walkable","P0_Q1.traditional","P0_Q1.diverse","block_fixed","stim_tractT.x","block.y","P0_Q1.violence","P0_Q1.crime","P0_Q1.drug","P0_Q1.schools","P0_Q1.opportunities","stim_tractT.y","block.y.y","P0_Q1.movein","P0_Q1.moveout","P0_Q1.shopping","P0_Q1.walk","P0_Q1.park","P0_Q1.school","age","sex","gender","gender-self-describe","zipcode","surveyComments"
"1","sliderTrial","html-slider-response",18,122892,"0.0-18.0",NA,"656776a7904ae00d6b91d1dd","6568aa21965e65deb9e70d5c",13,NA,NA,NA,NA,NA,NA,NA,NA,NA,NA,NA,"16849","[""SV_PolicingMSA/CA_6489/IMG_1_6489.jpg"",""SV_PolicingMSA/CA_6489/IMG_6_6489.jpg"",""SV_PolicingMSA/CA_6489/IMG_7_6489.jpg"",""SV_PolicingMSA/CA_6489/IMG_4_6489.jpg"",""SV_PolicingMSA/CA_6489/IMG_12_6489.jpg"",""SV_PolicingMSA/CA_6489/IMG_8_6489.jpg"",""SV_PolicingMSA/CA_6489/IMG_0_6489.jpg"",""SV_PolicingMSA/CA_6489/IMG_9_6489.jpg""]","4",NA,NA,NA,NA,NA,2,NA,4,"[""./rc_img/cop_condGroup_17_SafeStreets_autoscaled.png"",""./rc_img/cop_condGroup_17_CommunitySafety_autoscaled.png""]",4,NA,NA,"CA_6489","CA_6489",2,3,4,4,2,2,3,"CA_6489",2,1,1,1,3,3,"CA_6489",2,3,1,3,3,3,3,"51","male","man","","21222","No"
"2","sliderTrial","html-slider-response",19,129305,"0.0-19.0",NA,"656776a7904ae00d6b91d1dd","6568aa21965e65deb9e70d5c",13,NA,NA,NA,NA,NA,NA,NA,NA,NA,NA,NA,"6412","[""SV_PolicingMSA/CA_6489/IMG_1_6489.jpg"",""SV_PolicingMSA/CA_6489/IMG_6_6489.jpg"",""SV_PolicingMSA/CA_6489/IMG_7_6489.jpg"",""SV_PolicingMSA/CA_6489/IMG_4_6489.jpg"",""SV_PolicingMSA/CA_6489/IMG_12_6489.jpg"",""SV_PolicingMSA/CA_6489/IMG_8_6489.jpg"",""SV_PolicingMSA/CA_6489/IMG_0_6489.jpg"",""SV_PolicingMSA/CA_6489/IMG_9_6489.jpg""]","4",NA,NA,NA,NA,NA,2,NA,4,"[""./rc_img/cop_condGroup_9_SafeStreets_autoscaled.png"",""./rc_img/cop_condGroup_9_CommunitySafety_autoscaled.png""]",4,NA,NA,"CA_6489","CA_6489",2,3,4,4,2,2,3,"CA_6489",2,1,1,1,3,3,"CA_6489",2,3,1,3,3,3,3,"51","male","man","","21222","No"
"3","sliderTrial","html-slider-response",20,130511,"0.0-20.0",NA,"656776a7904ae00d6b91d1dd","6568aa21965e65deb9e70d5c",13,NA,NA,NA,NA,NA,NA,NA,NA,NA,NA,NA,"1204","[""SV_PolicingMSA/CA_6489/IMG_1_6489.jpg"",""SV_PolicingMSA/CA_6489/IMG_6_6489.jpg"",""SV_PolicingMSA/CA_6489/IMG_7_6489.jpg"",""SV_PolicingMSA/CA_6489/IMG_4_6489.jpg"",""SV_PolicingMSA/CA_6489/IMG_12_6489.jpg"",""SV_PolicingMSA/CA_6489/IMG_8_6489.jpg"",""SV_PolicingMSA/CA_6489/IMG_0_6489.jpg"",""SV_PolicingMSA/CA_6489/IMG_9_6489.jpg""]","4",NA,NA,NA,NA,NA,2,NA,4,"[""./rc_img/cop_condGroup_12_CommunitySafety_autoscaled.png"",""./rc_img/cop_condGroup_12_SafeStreets_autoscaled.png""]",4,NA,NA,"CA_6489","CA_6489",2,3,4,4,2,2,3,"CA_6489",2,1,1,1,3,3,"CA_6489",2,3,1,3,3,3,3,"51","male","man","","21222","No"
"4","sliderTrial","html-slider-response",21,135019,"0.0-21.0",NA,"656776a7904ae00d6b91d1dd","6568aa21965e65deb9e70d5c",13,NA,NA,NA,NA,NA,NA,NA,NA,NA,NA,NA,"4507","[""SV_PolicingMSA/CA_6489/IMG_1_6489.jpg"",""SV_PolicingMSA/CA_6489/IMG_6_6489.jpg"",""SV_PolicingMSA/CA_6489/IMG_7_6489.jpg"",""SV_PolicingMSA/CA_6489/IMG_4_6489.jpg"",""SV_PolicingMSA/CA_6489/IMG_12_6489.jpg"",""SV_PolicingMSA/CA_6489/IMG_8_6489.jpg"",""SV_PolicingMSA/CA_6489/IMG_0_6489.jpg"",""SV_PolicingMSA/CA_6489/IMG_9_6489.jpg""]","4",NA,NA,NA,NA,NA,2,NA,4,"[""./rc_img/cop_condGroup_16_SafeStreets_autoscaled.png"",""./rc_img/cop_condGroup_16_CommunitySafety_autoscaled.png""]",4,NA,NA,"CA_6489","CA_6489",2,3,4,4,2,2,3,"CA_6489",2,1,1,1,3,3,"CA_6489",2,3,1,3,3,3,3,"51","male","man","","21222","No"
"5","sliderTrial","html-slider-response",22,136451,"0.0-22.0",NA,"656776a7904ae00d6b91d1dd","6568aa21965e65deb9e70d5c",13,NA,NA,NA,NA,NA,NA,NA,NA,NA,NA,NA,"1431","[""SV_PolicingMSA/CA_6489/IMG_1_6489.jpg"",""SV_PolicingMSA/CA_6489/IMG_6_6489.jpg"",""SV_PolicingMSA/CA_6489/IMG_7_6489.jpg"",""SV_PolicingMSA/CA_6489/IMG_4_6489.jpg"",""SV_PolicingMSA/CA_6489/IMG_12_6489.jpg"",""SV_PolicingMSA/CA_6489/IMG_8_6489.jpg"",""SV_PolicingMSA/CA_6489/IMG_0_6489.jpg"",""SV_PolicingMSA/CA_6489/IMG_9_6489.jpg""]","4",NA,NA,NA,NA,NA,2,NA,4,"[""./rc_img/cop_condGroup_6_SafeStreets_autoscaled.png"",""./rc_img/cop_condGroup_6_CommunitySafety_autoscaled.png""]",4,NA,NA,"CA_6489","CA_6489",2,3,4,4,2,2,3,"CA_6489",2,1,1,1,3,3,"CA_6489",2,3,1,3,3,3,3,"51","male","man","","21222","No"
"6","sliderTrial","html-slider-response",35,181224,"0.0-35.0",NA,"656776a7904ae00d6b91d1dd","6568aa21965e65deb9e70d5c",13,NA,NA,NA,NA,NA,NA,NA,NA,NA,NA,NA,"3386","[""SV_PolicingMSA/CA_5812/IMG_7_5812.jpg"",""SV_PolicingMSA/CA_5812/IMG_2_5812.jpg"",""SV_PolicingMSA/CA_5812/IMG_1_5812.jpg"",""SV_PolicingMSA/CA_5812/IMG_4_5812.jpg"",""SV_PolicingMSA/CA_5812/IMG_5_5812.jpg"",""SV_PolicingMSA/CA_5812/IMG_9_5812.jpg"",""SV_PolicingMSA/CA_5812/IMG_14_5812.jpg"",""SV_PolicingMSA/CA_5812/IMG_11_5812.jpg""]","4",NA,NA,NA,NA,NA,3,NA,4,"[""./rc_img/cop_condGroup_7_CommunitySafety_autoscaled.png"",""./rc_img/cop_condGroup_7_SafeStreets_autoscaled.png""]",4,NA,NA,"CA_5812","CA_5812",3,1,2,2,2,2,5,"CA_5812",3,2,2,2,2,2,"CA_5812",3,2,2,2,2,2,2,"51","male","man","","21222","No"
"7","sliderTrial","html-slider-response",36,183684,"0.0-36.0",NA,"656776a7904ae00d6b91d1dd","6568aa21965e65deb9e70d5c",13,NA,NA,NA,NA,NA,NA,NA,NA,NA,NA,NA,"2459","[""SV_PolicingMSA/CA_5812/IMG_7_5812.jpg"",""SV_PolicingMSA/CA_5812/IMG_2_5812.jpg"",""SV_PolicingMSA/CA_5812/IMG_1_5812.jpg"",""SV_PolicingMSA/CA_5812/IMG_4_5812.jpg"",""SV_PolicingMSA/CA_5812/IMG_5_5812.jpg"",""SV_PolicingMSA/CA_5812/IMG_9_5812.jpg"",""SV_PolicingMSA/CA_5812/IMG_14_5812.jpg"",""SV_PolicingMSA/CA_5812/IMG_11_5812.jpg""]","4",NA,NA,NA,NA,NA,3,NA,4,"[""./rc_img/cop_condGroup_11_SafeStreets_autoscaled.png"",""./rc_img/cop_condGroup_11_CommunitySafety_autoscaled.png""]",4,NA,NA,"CA_5812","CA_5812",3,1,2,2,2,2,5,"CA_5812",3,2,2,2,2,2,"CA_5812",3,2,2,2,2,2,2,"51","male","man","","21222","No"
"8","sliderTrial","html-slider-response",37,187157,"0.0-37.0",NA,"656776a7904ae00d6b91d1dd","6568aa21965e65deb9e70d5c",13,NA,NA,NA,NA,NA,NA,NA,NA,NA,NA,NA,"3472","[""SV_PolicingMSA/CA_5812/IMG_7_5812.jpg"",""SV_PolicingMSA/CA_5812/IMG_2_5812.jpg"",""SV_PolicingMSA/CA_5812/IMG_1_5812.jpg"",""SV_PolicingMSA/CA_5812/IMG_4_5812.jpg"",""SV_PolicingMSA/CA_5812/IMG_5_5812.jpg"",""SV_PolicingMSA/CA_5812/IMG_9_5812.jpg"",""SV_PolicingMSA/CA_5812/IMG_14_5812.jpg"",""SV_PolicingMSA/CA_5812/IMG_11_5812.jpg""]","4",NA,NA,NA,NA,NA,3,NA,4,"[""./rc_img/cop_condGroup_13_CommunitySafety_autoscaled.png"",""./rc_img/cop_condGroup_13_SafeStreets_autoscaled.png""]",4,NA,NA,"CA_5812","CA_5812",3,1,2,2,2,2,5,"CA_5812",3,2,2,2,2,2,"CA_5812",3,2,2,2,2,2,2,"51","male","man","","21222","No"
"9","sliderTrial","html-slider-response",38,187950,"0.0-38.0",NA,"656776a7904ae00d6b91d1dd","6568aa21965e65deb9e70d5c",13,NA,NA,NA,NA,NA,NA,NA,NA,NA,NA,NA,"793","[""SV_PolicingMSA/CA_5812/IMG_7_5812.jpg"",""SV_PolicingMSA/CA_5812/IMG_2_5812.jpg"",""SV_PolicingMSA/CA_5812/IMG_1_5812.jpg"",""SV_PolicingMSA/CA_5812/IMG_4_5812.jpg"",""SV_PolicingMSA/CA_5812/IMG_5_5812.jpg"",""SV_PolicingMSA/CA_5812/IMG_9_5812.jpg"",""SV_PolicingMSA/CA_5812/IMG_14_5812.jpg"",""SV_PolicingMSA/CA_5812/IMG_11_5812.jpg""]","4",NA,NA,NA,NA,NA,3,NA,4,"[""./rc_img/cop_condGroup_20_SafeStreets_autoscaled.png"",""./rc_img/cop_condGroup_20_CommunitySafety_autoscaled.png""]",4,NA,NA,"CA_5812","CA_5812",3,1,2,2,2,2,5,"CA_5812",3,2,2,2,2,2,"CA_5812",3,2,2,2,2,2,2,"51","male","man","","21222","No"
"10","sliderTrial","html-slider-response",39,188683,"0.0-39.0",NA,"656776a7904ae00d6b91d1dd","6568aa21965e65deb9e70d5c",13,NA,NA,NA,NA,NA,NA,NA,NA,NA,NA,NA,"731","[""SV_PolicingMSA/CA_5812/IMG_7_5812.jpg"",""SV_PolicingMSA/CA_5812/IMG_2_5812.jpg"",""SV_PolicingMSA/CA_5812/IMG_1_5812.jpg"",""SV_PolicingMSA/CA_5812/IMG_4_5812.jpg"",""SV_PolicingMSA/CA_5812/IMG_5_5812.jpg"",""SV_PolicingMSA/CA_5812/IMG_9_5812.jpg"",""SV_PolicingMSA/CA_5812/IMG_14_5812.jpg"",""SV_PolicingMSA/CA_5812/IMG_11_5812.jpg""]","4",NA,NA,NA,NA,NA,3,NA,4,"[""./rc_img/cop_condGroup_10_CommunitySafety_autoscaled.png"",""./rc_img/cop_condGroup_10_SafeStreets_autoscaled.png""]",4,NA,NA,"CA_5812","CA_5812",3,1,2,2,2,2,5,"CA_5812",3,2,2,2,2,2,"CA_5812",3,2,2,2,2,2,2,"51","male","man","","21222","No"
"11","sliderTrial","html-slider-response",52,240439,"0.0-52.0",NA,"656776a7904ae00d6b91d1dd","6568aa21965e65deb9e70d5c",13,NA,NA,NA,NA,NA,NA,NA,NA,NA,NA,NA,"4017","[""SV_PolicingMSA/CA_2994/IMG_7_2994.jpg"",""SV_PolicingMSA/CA_2994/IMG_10_2994.jpg"",""SV_PolicingMSA/CA_2994/IMG_1_2994.jpg"",""SV_PolicingMSA/CA_2994/IMG_11_2994.jpg"",""SV_PolicingMSA/CA_2994/IMG_0_2994.jpg"",""SV_PolicingMSA/CA_2994/IMG_12_2994.jpg"",""SV_PolicingMSA/CA_2994/IMG_9_2994.jpg"",""SV_PolicingMSA/CA_2994/IMG_14_2994.jpg""]","4",NA,NA,NA,NA,NA,1,NA,4,"[""./rc_img/cop_condGroup_5_SafeStreets_autoscaled.png"",""./rc_img/cop_condGroup_5_CommunitySafety_autoscaled.png""]",4,NA,NA,"CA_2994","CA_2994",1,2,2,2,2,2,2,"CA_2994",1,2,2,2,2,2,"CA_2994",1,2,1,2,2,2,2,"51","male","man","","21222","No"
"12","sliderTrial","html-slider-response",53,241445,"0.0-53.0",NA,"656776a7904ae00d6b91d1dd","6568aa21965e65deb9e70d5c",13,NA,NA,NA,NA,NA,NA,NA,NA,NA,NA,NA,"1006","[""SV_PolicingMSA/CA_2994/IMG_7_2994.jpg"",""SV_PolicingMSA/CA_2994/IMG_10_2994.jpg"",""SV_PolicingMSA/CA_2994/IMG_1_2994.jpg"",""SV_PolicingMSA/CA_2994/IMG_11_2994.jpg"",""SV_PolicingMSA/CA_2994/IMG_0_2994.jpg"",""SV_PolicingMSA/CA_2994/IMG_12_2994.jpg"",""SV_PolicingMSA/CA_2994/IMG_9_2994.jpg"",""SV_PolicingMSA/CA_2994/IMG_14_2994.jpg""]","4",NA,NA,NA,NA,NA,1,NA,4,"[""./rc_img/cop_condGroup_19_CommunitySafety_autoscaled.png"",""./rc_img/cop_condGroup_19_SafeStreets_autoscaled.png""]",4,NA,NA,"CA_2994","CA_2994",1,2,2,2,2,2,2,"CA_2994",1,2,2,2,2,2,"CA_2994",1,2,1,2,2,2,2,"51","male","man","","21222","No"
"13","sliderTrial","html-slider-response",54,241997,"0.0-54.0",NA,"656776a7904ae00d6b91d1dd","6568aa21965e65deb9e70d5c",13,NA,NA,NA,NA,NA,NA,NA,NA,NA,NA,NA,"551","[""SV_PolicingMSA/CA_2994/IMG_7_2994.jpg"",""SV_PolicingMSA/CA_2994/IMG_10_2994.jpg"",""SV_PolicingMSA/CA_2994/IMG_1_2994.jpg"",""SV_PolicingMSA/CA_2994/IMG_11_2994.jpg"",""SV_PolicingMSA/CA_2994/IMG_0_2994.jpg"",""SV_PolicingMSA/CA_2994/IMG_12_2994.jpg"",""SV_PolicingMSA/CA_2994/IMG_9_2994.jpg"",""SV_PolicingMSA/CA_2994/IMG_14_2994.jpg""]","4",NA,NA,NA,NA,NA,1,NA,4,"[""./rc_img/cop_condGroup_3_CommunitySafety_autoscaled.png"",""./rc_img/cop_condGroup_3_SafeStreets_autoscaled.png""]",4,NA,NA,"CA_2994","CA_2994",1,2,2,2,2,2,2,"CA_2994",1,2,2,2,2,2,"CA_2994",1,2,1,2,2,2,2,"51","male","man","","21222","No"
"14","sliderTrial","html-slider-response",55,242479,"0.0-55.0",NA,"656776a7904ae00d6b91d1dd","6568aa21965e65deb9e70d5c",13,NA,NA,NA,NA,NA,NA,NA,NA,NA,NA,NA,"481","[""SV_PolicingMSA/CA_2994/IMG_7_2994.jpg"",""SV_PolicingMSA/CA_2994/IMG_10_2994.jpg"",""SV_PolicingMSA/CA_2994/IMG_1_2994.jpg"",""SV_PolicingMSA/CA_2994/IMG_11_2994.jpg"",""SV_PolicingMSA/CA_2994/IMG_0_2994.jpg"",""SV_PolicingMSA/CA_2994/IMG_12_2994.jpg"",""SV_PolicingMSA/CA_2994/IMG_9_2994.jpg"",""SV_PolicingMSA/CA_2994/IMG_14_2994.jpg""]","4",NA,NA,NA,NA,NA,1,NA,4,"[""./rc_img/cop_condGroup_15_CommunitySafety_autoscaled.png"",""./rc_img/cop_condGroup_15_SafeStreets_autoscaled.png""]",4,NA,NA,"CA_2994","CA_2994",1,2,2,2,2,2,2,"CA_2994",1,2,2,2,2,2,"CA_2994",1,2,1,2,2,2,2,"51","male","man","","21222","No"
"15","sliderTrial_attention","html-slider-response",56,252489,"0.0-56.0",NA,"656776a7904ae00d6b91d1dd","6568aa21965e65deb9e70d5c",13,NA,NA,NA,NA,NA,NA,NA,NA,NA,NA,NA,"null","[""SV_PolicingMSA/CA_2994/IMG_7_2994.jpg"",""SV_PolicingMSA/CA_2994/IMG_10_2994.jpg"",""SV_PolicingMSA/CA_2994/IMG_1_2994.jpg"",""SV_PolicingMSA/CA_2994/IMG_11_2994.jpg"",""SV_PolicingMSA/CA_2994/IMG_0_2994.jpg"",""SV_PolicingMSA/CA_2994/IMG_12_2994.jpg"",""SV_PolicingMSA/CA_2994/IMG_9_2994.jpg"",""SV_PolicingMSA/CA_2994/IMG_14_2994.jpg""]","null",NA,NA,NA,NA,NA,1,NA,4,"[""./assets/img/attnchk.png"",""./assets/img/attnchk.png""]",NA,TRUE,NA,"CA_2994","CA_2994",1,2,2,2,2,2,2,"CA_2994",1,2,2,2,2,2,"CA_2994",1,2,1,2,2,2,2,"51","male","man","","21222","No"
"16","sliderTrial","html-slider-response",57,256846,"0.0-57.0",NA,"656776a7904ae00d6b91d1dd","6568aa21965e65deb9e70d5c",13,NA,NA,NA,NA,NA,NA,NA,NA,NA,NA,NA,"4355","[""SV_PolicingMSA/CA_2994/IMG_7_2994.jpg"",""SV_PolicingMSA/CA_2994/IMG_10_2994.jpg"",""SV_PolicingMSA/CA_2994/IMG_1_2994.jpg"",""SV_PolicingMSA/CA_2994/IMG_11_2994.jpg"",""SV_PolicingMSA/CA_2994/IMG_0_2994.jpg"",""SV_PolicingMSA/CA_2994/IMG_12_2994.jpg"",""SV_PolicingMSA/CA_2994/IMG_9_2994.jpg"",""SV_PolicingMSA/CA_2994/IMG_14_2994.jpg""]","4",NA,NA,NA,NA,NA,1,NA,4,"[""./rc_img/cop_condGroup_4_SafeStreets_autoscaled.png"",""./rc_img/cop_condGroup_4_CommunitySafety_autoscaled.png""]",4,NA,NA,"CA_2994","CA_2994",1,2,2,2,2,2,2,"CA_2994",1,2,2,2,2,2,"CA_2994",1,2,1,2,2,2,2,"51","male","man","","21222","No"
"17","sliderTrial","html-slider-response",70,294637,"0.0-70.0",NA,"656776a7904ae00d6b91d1dd","6568aa21965e65deb9e70d5c",13,NA,NA,NA,NA,NA,NA,NA,NA,NA,NA,NA,"2953","[""SV_PolicingMSA/CA_3476/IMG_12_3476.jpg"",""SV_PolicingMSA/CA_3476/IMG_2_3476.jpg"",""SV_PolicingMSA/CA_3476/IMG_7_3476.jpg"",""SV_PolicingMSA/CA_3476/IMG_14_3476.jpg"",""SV_PolicingMSA/CA_3476/IMG_1_3476.jpg"",""SV_PolicingMSA/CA_3476/IMG_8_3476.jpg"",""SV_PolicingMSA/CA_3476/IMG_10_3476.jpg"",""SV_PolicingMSA/CA_3476/IMG_3_3476.jpg""]","4",NA,NA,NA,NA,NA,2,NA,4,"[""./rc_img/cop_condGroup_18_SafeStreets_autoscaled.png"",""./rc_img/cop_condGroup_18_CommunitySafety_autoscaled.png""]",4,NA,NA,"CA_3476","CA_3476",2,1,2,2,2,2,4,"CA_3476",2,2,2,2,2,2,"CA_3476",2,2,2,2,2,2,2,"51","male","man","","21222","No"
"18","sliderTrial","html-slider-response",71,295523,"0.0-71.0",NA,"656776a7904ae00d6b91d1dd","6568aa21965e65deb9e70d5c",13,NA,NA,NA,NA,NA,NA,NA,NA,NA,NA,NA,"886","[""SV_PolicingMSA/CA_3476/IMG_12_3476.jpg"",""SV_PolicingMSA/CA_3476/IMG_2_3476.jpg"",""SV_PolicingMSA/CA_3476/IMG_7_3476.jpg"",""SV_PolicingMSA/CA_3476/IMG_14_3476.jpg"",""SV_PolicingMSA/CA_3476/IMG_1_3476.jpg"",""SV_PolicingMSA/CA_3476/IMG_8_3476.jpg"",""SV_PolicingMSA/CA_3476/IMG_10_3476.jpg"",""SV_PolicingMSA/CA_3476/IMG_3_3476.jpg""]","4",NA,NA,NA,NA,NA,2,NA,4,"[""./rc_img/cop_condGroup_14_SafeStreets_autoscaled.png"",""./rc_img/cop_condGroup_14_CommunitySafety_autoscaled.png""]",4,NA,NA,"CA_3476","CA_3476",2,1,2,2,2,2,4,"CA_3476",2,2,2,2,2,2,"CA_3476",2,2,2,2,2,2,2,"51","male","man","","21222","No"
"19","sliderTrial","html-slider-response",72,296427,"0.0-72.0",NA,"656776a7904ae00d6b91d1dd","6568aa21965e65deb9e70d5c",13,NA,NA,NA,NA,NA,NA,NA,NA,NA,NA,NA,"903","[""SV_PolicingMSA/CA_3476/IMG_12_3476.jpg"",""SV_PolicingMSA/CA_3476/IMG_2_3476.jpg"",""SV_PolicingMSA/CA_3476/IMG_7_3476.jpg"",""SV_PolicingMSA/CA_3476/IMG_14_3476.jpg"",""SV_PolicingMSA/CA_3476/IMG_1_3476.jpg"",""SV_PolicingMSA/CA_3476/IMG_8_3476.jpg"",""SV_PolicingMSA/CA_3476/IMG_10_3476.jpg"",""SV_PolicingMSA/CA_3476/IMG_3_3476.jpg""]","4",NA,NA,NA,NA,NA,2,NA,4,"[""./rc_img/cop_condGroup_1_CommunitySafety_autoscaled.png"",""./rc_img/cop_condGroup_1_SafeStreets_autoscaled.png""]",4,NA,NA,"CA_3476","CA_3476",2,1,2,2,2,2,4,"CA_3476",2,2,2,2,2,2,"CA_3476",2,2,2,2,2,2,2,"51","male","man","","21222","No"
"20","sliderTrial","html-slider-response",73,297632,"0.0-73.0",NA,"656776a7904ae00d6b91d1dd","6568aa21965e65deb9e70d5c",13,NA,NA,NA,NA,NA,NA,NA,NA,NA,NA,NA,"1205","[""SV_PolicingMSA/CA_3476/IMG_12_3476.jpg"",""SV_PolicingMSA/CA_3476/IMG_2_3476.jpg"",""SV_PolicingMSA/CA_3476/IMG_7_3476.jpg"",""SV_PolicingMSA/CA_3476/IMG_14_3476.jpg"",""SV_PolicingMSA/CA_3476/IMG_1_3476.jpg"",""SV_PolicingMSA/CA_3476/IMG_8_3476.jpg"",""SV_PolicingMSA/CA_3476/IMG_10_3476.jpg"",""SV_PolicingMSA/CA_3476/IMG_3_3476.jpg""]","4",NA,NA,NA,NA,NA,2,NA,4,"[""./rc_img/cop_condGroup_2_SafeStreets_autoscaled.png"",""./rc_img/cop_condGroup_2_CommunitySafety_autoscaled.png""]",4,NA,NA,"CA_3476","CA_3476",2,1,2,2,2,2,4,"CA_3476",2,2,2,2,2,2,"CA_3476",2,2,2,2,2,2,2,"51","male","man","","21222","No"
"21","sliderTrial","html-slider-response",74,298295,"0.0-74.0",NA,"656776a7904ae00d6b91d1dd","6568aa21965e65deb9e70d5c",13,NA,NA,NA,NA,NA,NA,NA,NA,NA,NA,NA,"661","[""SV_PolicingMSA/CA_3476/IMG_12_3476.jpg"",""SV_PolicingMSA/CA_3476/IMG_2_3476.jpg"",""SV_PolicingMSA/CA_3476/IMG_7_3476.jpg"",""SV_PolicingMSA/CA_3476/IMG_14_3476.jpg"",""SV_PolicingMSA/CA_3476/IMG_1_3476.jpg"",""SV_PolicingMSA/CA_3476/IMG_8_3476.jpg"",""SV_PolicingMSA/CA_3476/IMG_10_3476.jpg"",""SV_PolicingMSA/CA_3476/IMG_3_3476.jpg""]","4",NA,NA,NA,NA,NA,2,NA,4,"[""./rc_img/cop_condGroup_8_CommunitySafety_autoscaled.png"",""./rc_img/cop_condGroup_8_SafeStreets_autoscaled.png""]",4,NA,NA,"CA_3476","CA_3476",2,1,2,2,2,2,4,"CA_3476",2,2,2,2,2,2,"CA_3476",2,2,2,2,2,2,2,"51","male","man","","21222","No"
"22","sliderTrial","html-slider-response",88,359057,"0.0-88.0",NA,"656776a7904ae00d6b91d1dd","6568aa21965e65deb9e70d5c",13,NA,NA,NA,NA,NA,NA,NA,NA,NA,NA,NA,"2852","[""SV_PolicingMSA/CA_5476/IMG_3_5476.jpg"",""SV_PolicingMSA/CA_5476/IMG_0_5476.jpg"",""SV_PolicingMSA/CA_5476/IMG_9_5476.jpg"",""SV_PolicingMSA/CA_5476/IMG_7_5476.jpg"",""SV_PolicingMSA/CA_5476/IMG_11_5476.jpg"",""SV_PolicingMSA/CA_5476/IMG_8_5476.jpg"",""SV_PolicingMSA/CA_5476/IMG_14_5476.jpg"",""SV_PolicingMSA/CA_5476/IMG_6_5476.jpg""]","4",NA,NA,NA,NA,NA,5,NA,4,"[""./rc_img/cop_condGroup_7_CommunitySafety_autoscaled.png"",""./rc_img/cop_condGroup_7_SafeStreets_autoscaled.png""]",4,NA,NA,"CA_5476","CA_5476",5,2,2,2,2,2,8,"CA_5476",5,2,2,2,2,2,"CA_5476",5,3,1,3,2,3,2,"51","male","man","","21222","No"
"23","sliderTrial","html-slider-response",89,359826,"0.0-89.0",NA,"656776a7904ae00d6b91d1dd","6568aa21965e65deb9e70d5c",13,NA,NA,NA,NA,NA,NA,NA,NA,NA,NA,NA,"769","[""SV_PolicingMSA/CA_5476/IMG_3_5476.jpg"",""SV_PolicingMSA/CA_5476/IMG_0_5476.jpg"",""SV_PolicingMSA/CA_5476/IMG_9_5476.jpg"",""SV_PolicingMSA/CA_5476/IMG_7_5476.jpg"",""SV_PolicingMSA/CA_5476/IMG_11_5476.jpg"",""SV_PolicingMSA/CA_5476/IMG_8_5476.jpg"",""SV_PolicingMSA/CA_5476/IMG_14_5476.jpg"",""SV_PolicingMSA/CA_5476/IMG_6_5476.jpg""]","4",NA,NA,NA,NA,NA,5,NA,4,"[""./rc_img/cop_condGroup_11_SafeStreets_autoscaled.png"",""./rc_img/cop_condGroup_11_CommunitySafety_autoscaled.png""]",4,NA,NA,"CA_5476","CA_5476",5,2,2,2,2,2,8,"CA_5476",5,2,2,2,2,2,"CA_5476",5,3,1,3,2,3,2,"51","male","man","","21222","No"
"24","sliderTrial","html-slider-response",90,360543,"0.0-90.0",NA,"656776a7904ae00d6b91d1dd","6568aa21965e65deb9e70d5c",13,NA,NA,NA,NA,NA,NA,NA,NA,NA,NA,NA,"715","[""SV_PolicingMSA/CA_5476/IMG_3_5476.jpg"",""SV_PolicingMSA/CA_5476/IMG_0_5476.jpg"",""SV_PolicingMSA/CA_5476/IMG_9_5476.jpg"",""SV_PolicingMSA/CA_5476/IMG_7_5476.jpg"",""SV_PolicingMSA/CA_5476/IMG_11_5476.jpg"",""SV_PolicingMSA/CA_5476/IMG_8_5476.jpg"",""SV_PolicingMSA/CA_5476/IMG_14_5476.jpg"",""SV_PolicingMSA/CA_5476/IMG_6_5476.jpg""]","4",NA,NA,NA,NA,NA,5,NA,4,"[""./rc_img/cop_condGroup_13_CommunitySafety_autoscaled.png"",""./rc_img/cop_condGroup_13_SafeStreets_autoscaled.png""]",4,NA,NA,"CA_5476","CA_5476",5,2,2,2,2,2,8,"CA_5476",5,2,2,2,2,2,"CA_5476",5,3,1,3,2,3,2,"51","male","man","","21222","No"
"25","sliderTrial","html-slider-response",91,361237,"0.0-91.0",NA,"656776a7904ae00d6b91d1dd","6568aa21965e65deb9e70d5c",13,NA,NA,NA,NA,NA,NA,NA,NA,NA,NA,NA,"693","[""SV_PolicingMSA/CA_5476/IMG_3_5476.jpg"",""SV_PolicingMSA/CA_5476/IMG_0_5476.jpg"",""SV_PolicingMSA/CA_5476/IMG_9_5476.jpg"",""SV_PolicingMSA/CA_5476/IMG_7_5476.jpg"",""SV_PolicingMSA/CA_5476/IMG_11_5476.jpg"",""SV_PolicingMSA/CA_5476/IMG_8_5476.jpg"",""SV_PolicingMSA/CA_5476/IMG_14_5476.jpg"",""SV_PolicingMSA/CA_5476/IMG_6_5476.jpg""]","4",NA,NA,NA,NA,NA,5,NA,4,"[""./rc_img/cop_condGroup_20_SafeStreets_autoscaled.png"",""./rc_img/cop_condGroup_20_CommunitySafety_autoscaled.png""]",4,NA,NA,"CA_5476","CA_5476",5,2,2,2,2,2,8,"CA_5476",5,2,2,2,2,2,"CA_5476",5,3,1,3,2,3,2,"51","male","man","","21222","No"
"26","sliderTrial","html-slider-response",92,361829,"0.0-92.0",NA,"656776a7904ae00d6b91d1dd","6568aa21965e65deb9e70d5c",13,NA,NA,NA,NA,NA,NA,NA,NA,NA,NA,NA,"591","[""SV_PolicingMSA/CA_5476/IMG_3_5476.jpg"",""SV_PolicingMSA/CA_5476/IMG_0_5476.jpg"",""SV_PolicingMSA/CA_5476/IMG_9_5476.jpg"",""SV_PolicingMSA/CA_5476/IMG_7_5476.jpg"",""SV_PolicingMSA/CA_5476/IMG_11_5476.jpg"",""SV_PolicingMSA/CA_5476/IMG_8_5476.jpg"",""SV_PolicingMSA/CA_5476/IMG_14_5476.jpg"",""SV_PolicingMSA/CA_5476/IMG_6_5476.jpg""]","4",NA,NA,NA,NA,NA,5,NA,4,"[""./rc_img/cop_condGroup_10_CommunitySafety_autoscaled.png"",""./rc_img/cop_condGroup_10_SafeStreets_autoscaled.png""]",4,NA,NA,"CA_5476","CA_5476",5,2,2,2,2,2,8,"CA_5476",5,2,2,2,2,2,"CA_5476",5,3,1,3,2,3,2,"51","male","man","","21222","No"
"27","sliderTrial","html-slider-response",105,401339,"0.0-105.0",NA,"656776a7904ae00d6b91d1dd","6568aa21965e65deb9e70d5c",13,NA,NA,NA,NA,NA,NA,NA,NA,NA,NA,NA,"9753","[""SV_PolicingMSA/CA_5734/IMG_13_5734.jpg"",""SV_PolicingMSA/CA_5734/IMG_4_5734.jpg"",""SV_PolicingMSA/CA_5734/IMG_1_5734.jpg"",""SV_PolicingMSA/CA_5734/IMG_7_5734.jpg"",""SV_PolicingMSA/CA_5734/IMG_12_5734.jpg"",""SV_PolicingMSA/CA_5734/IMG_6_5734.jpg"",""SV_PolicingMSA/CA_5734/IMG_14_5734.jpg"",""SV_PolicingMSA/CA_5734/IMG_5_5734.jpg""]","4",NA,NA,NA,NA,NA,4,NA,4,"[""./rc_img/cop_condGroup_17_SafeStreets_autoscaled.png"",""./rc_img/cop_condGroup_17_CommunitySafety_autoscaled.png""]",4,NA,NA,"CA_5734","CA_5734",4,2,2,2,2,2,7,"CA_5734",4,2,2,2,2,2,"CA_5734",4,2,1,2,2,2,2,"51","male","man","","21222","No"
"28","sliderTrial","html-slider-response",106,402561,"0.0-106.0",NA,"656776a7904ae00d6b91d1dd","6568aa21965e65deb9e70d5c",13,NA,NA,NA,NA,NA,NA,NA,NA,NA,NA,NA,"1222","[""SV_PolicingMSA/CA_5734/IMG_13_5734.jpg"",""SV_PolicingMSA/CA_5734/IMG_4_5734.jpg"",""SV_PolicingMSA/CA_5734/IMG_1_5734.jpg"",""SV_PolicingMSA/CA_5734/IMG_7_5734.jpg"",""SV_PolicingMSA/CA_5734/IMG_12_5734.jpg"",""SV_PolicingMSA/CA_5734/IMG_6_5734.jpg"",""SV_PolicingMSA/CA_5734/IMG_14_5734.jpg"",""SV_PolicingMSA/CA_5734/IMG_5_5734.jpg""]","4",NA,NA,NA,NA,NA,4,NA,4,"[""./rc_img/cop_condGroup_9_SafeStreets_autoscaled.png"",""./rc_img/cop_condGroup_9_CommunitySafety_autoscaled.png""]",4,NA,NA,"CA_5734","CA_5734",4,2,2,2,2,2,7,"CA_5734",4,2,2,2,2,2,"CA_5734",4,2,1,2,2,2,2,"51","male","man","","21222","No"
"29","sliderTrial","html-slider-response",107,403767,"0.0-107.0",NA,"656776a7904ae00d6b91d1dd","6568aa21965e65deb9e70d5c",13,NA,NA,NA,NA,NA,NA,NA,NA,NA,NA,NA,"1204","[""SV_PolicingMSA/CA_5734/IMG_13_5734.jpg"",""SV_PolicingMSA/CA_5734/IMG_4_5734.jpg"",""SV_PolicingMSA/CA_5734/IMG_1_5734.jpg"",""SV_PolicingMSA/CA_5734/IMG_7_5734.jpg"",""SV_PolicingMSA/CA_5734/IMG_12_5734.jpg"",""SV_PolicingMSA/CA_5734/IMG_6_5734.jpg"",""SV_PolicingMSA/CA_5734/IMG_14_5734.jpg"",""SV_PolicingMSA/CA_5734/IMG_5_5734.jpg""]","4",NA,NA,NA,NA,NA,4,NA,4,"[""./rc_img/cop_condGroup_12_CommunitySafety_autoscaled.png"",""./rc_img/cop_condGroup_12_SafeStreets_autoscaled.png""]",4,NA,NA,"CA_5734","CA_5734",4,2,2,2,2,2,7,"CA_5734",4,2,2,2,2,2,"CA_5734",4,2,1,2,2,2,2,"51","male","man","","21222","No"
"30","sliderTrial","html-slider-response",108,404359,"0.0-108.0",NA,"656776a7904ae00d6b91d1dd","6568aa21965e65deb9e70d5c",13,NA,NA,NA,NA,NA,NA,NA,NA,NA,NA,NA,"592","[""SV_PolicingMSA/CA_5734/IMG_13_5734.jpg"",""SV_PolicingMSA/CA_5734/IMG_4_5734.jpg"",""SV_PolicingMSA/CA_5734/IMG_1_5734.jpg"",""SV_PolicingMSA/CA_5734/IMG_7_5734.jpg"",""SV_PolicingMSA/CA_5734/IMG_12_5734.jpg"",""SV_PolicingMSA/CA_5734/IMG_6_5734.jpg"",""SV_PolicingMSA/CA_5734/IMG_14_5734.jpg"",""SV_PolicingMSA/CA_5734/IMG_5_5734.jpg""]","4",NA,NA,NA,NA,NA,4,NA,4,"[""./rc_img/cop_condGroup_16_SafeStreets_autoscaled.png"",""./rc_img/cop_condGroup_16_CommunitySafety_autoscaled.png""]",4,NA,NA,"CA_5734","CA_5734",4,2,2,2,2,2,7,"CA_5734",4,2,2,2,2,2,"CA_5734",4,2,1,2,2,2,2,"51","male","man","","21222","No"
"31","sliderTrial","html-slider-response",109,405075,"0.0-109.0",NA,"656776a7904ae00d6b91d1dd","6568aa21965e65deb9e70d5c",13,NA,NA,NA,NA,NA,NA,NA,NA,NA,NA,NA,"715","[""SV_PolicingMSA/CA_5734/IMG_13_5734.jpg"",""SV_PolicingMSA/CA_5734/IMG_4_5734.jpg"",""SV_PolicingMSA/CA_5734/IMG_1_5734.jpg"",""SV_PolicingMSA/CA_5734/IMG_7_5734.jpg"",""SV_PolicingMSA/CA_5734/IMG_12_5734.jpg"",""SV_PolicingMSA/CA_5734/IMG_6_5734.jpg"",""SV_PolicingMSA/CA_5734/IMG_14_5734.jpg"",""SV_PolicingMSA/CA_5734/IMG_5_5734.jpg""]","4",NA,NA,NA,NA,NA,4,NA,4,"[""./rc_img/cop_condGroup_6_SafeStreets_autoscaled.png"",""./rc_img/cop_condGroup_6_CommunitySafety_autoscaled.png""]",4,NA,NA,"CA_5734","CA_5734",4,2,2,2,2,2,7,"CA_5734",4,2,2,2,2,2,"CA_5734",4,2,1,2,2,2,2,"51","male","man","","21222","No"
"32","sliderTrial","html-slider-response",122,454317,"0.0-122.0",NA,"656776a7904ae00d6b91d1dd","6568aa21965e65deb9e70d5c",13,NA,NA,NA,NA,NA,NA,NA,NA,NA,NA,NA,"3358","[""SV_PolicingMSA/CA_3402/IMG_4_3402.jpg"",""SV_PolicingMSA/CA_3402/IMG_1_3402.jpg"",""SV_PolicingMSA/CA_3402/IMG_5_3402.jpg"",""SV_PolicingMSA/CA_3402/IMG_0_3402.jpg"",""SV_PolicingMSA/CA_3402/IMG_14_3402.jpg"",""SV_PolicingMSA/CA_3402/IMG_7_3402.jpg"",""SV_PolicingMSA/CA_3402/IMG_12_3402.jpg"",""SV_PolicingMSA/CA_3402/IMG_10_3402.jpg""]","4",NA,NA,NA,NA,NA,3,NA,4,"[""./rc_img/cop_condGroup_5_SafeStreets_autoscaled.png"",""./rc_img/cop_condGroup_5_CommunitySafety_autoscaled.png""]",4,NA,NA,"CA_3402","CA_3402",3,1,2,2,2,2,6,"CA_3402",3,2,3,2,2,2,"CA_3402",3,1,2,2,1,2,2,"51","male","man","","21222","No"
"33","sliderTrial","html-slider-response",123,455381,"0.0-123.0",NA,"656776a7904ae00d6b91d1dd","6568aa21965e65deb9e70d5c",13,NA,NA,NA,NA,NA,NA,NA,NA,NA,NA,NA,"1063","[""SV_PolicingMSA/CA_3402/IMG_4_3402.jpg"",""SV_PolicingMSA/CA_3402/IMG_1_3402.jpg"",""SV_PolicingMSA/CA_3402/IMG_5_3402.jpg"",""SV_PolicingMSA/CA_3402/IMG_0_3402.jpg"",""SV_PolicingMSA/CA_3402/IMG_14_3402.jpg"",""SV_PolicingMSA/CA_3402/IMG_7_3402.jpg"",""SV_PolicingMSA/CA_3402/IMG_12_3402.jpg"",""SV_PolicingMSA/CA_3402/IMG_10_3402.jpg""]","4",NA,NA,NA,NA,NA,3,NA,4,"[""./rc_img/cop_condGroup_19_CommunitySafety_autoscaled.png"",""./rc_img/cop_condGroup_19_SafeStreets_autoscaled.png""]",4,NA,NA,"CA_3402","CA_3402",3,1,2,2,2,2,6,"CA_3402",3,2,3,2,2,2,"CA_3402",3,1,2,2,1,2,2,"51","male","man","","21222","No"
"34","sliderTrial","html-slider-response",124,455857,"0.0-124.0",NA,"656776a7904ae00d6b91d1dd","6568aa21965e65deb9e70d5c",13,NA,NA,NA,NA,NA,NA,NA,NA,NA,NA,NA,"475","[""SV_PolicingMSA/CA_3402/IMG_4_3402.jpg"",""SV_PolicingMSA/CA_3402/IMG_1_3402.jpg"",""SV_PolicingMSA/CA_3402/IMG_5_3402.jpg"",""SV_PolicingMSA/CA_3402/IMG_0_3402.jpg"",""SV_PolicingMSA/CA_3402/IMG_14_3402.jpg"",""SV_PolicingMSA/CA_3402/IMG_7_3402.jpg"",""SV_PolicingMSA/CA_3402/IMG_12_3402.jpg"",""SV_PolicingMSA/CA_3402/IMG_10_3402.jpg""]","4",NA,NA,NA,NA,NA,3,NA,4,"[""./rc_img/cop_condGroup_3_CommunitySafety_autoscaled.png"",""./rc_img/cop_condGroup_3_SafeStreets_autoscaled.png""]",4,NA,NA,"CA_3402","CA_3402",3,1,2,2,2,2,6,"CA_3402",3,2,3,2,2,2,"CA_3402",3,1,2,2,1,2,2,"51","male","man","","21222","No"
"35","sliderTrial","html-slider-response",125,456418,"0.0-125.0",NA,"656776a7904ae00d6b91d1dd","6568aa21965e65deb9e70d5c",13,NA,NA,NA,NA,NA,NA,NA,NA,NA,NA,NA,"560","[""SV_PolicingMSA/CA_3402/IMG_4_3402.jpg"",""SV_PolicingMSA/CA_3402/IMG_1_3402.jpg"",""SV_PolicingMSA/CA_3402/IMG_5_3402.jpg"",""SV_PolicingMSA/CA_3402/IMG_0_3402.jpg"",""SV_PolicingMSA/CA_3402/IMG_14_3402.jpg"",""SV_PolicingMSA/CA_3402/IMG_7_3402.jpg"",""SV_PolicingMSA/CA_3402/IMG_12_3402.jpg"",""SV_PolicingMSA/CA_3402/IMG_10_3402.jpg""]","4",NA,NA,NA,NA,NA,3,NA,4,"[""./rc_img/cop_condGroup_15_CommunitySafety_autoscaled.png"",""./rc_img/cop_condGroup_15_SafeStreets_autoscaled.png""]",4,NA,NA,"CA_3402","CA_3402",3,1,2,2,2,2,6,"CA_3402",3,2,3,2,2,2,"CA_3402",3,1,2,2,1,2,2,"51","male","man","","21222","No"
"36","sliderTrial","html-slider-response",126,457109,"0.0-126.0",NA,"656776a7904ae00d6b91d1dd","6568aa21965e65deb9e70d5c",13,NA,NA,NA,NA,NA,NA,NA,NA,NA,NA,NA,"690","[""SV_PolicingMSA/CA_3402/IMG_4_3402.jpg"",""SV_PolicingMSA/CA_3402/IMG_1_3402.jpg"",""SV_PolicingMSA/CA_3402/IMG_5_3402.jpg"",""SV_PolicingMSA/CA_3402/IMG_0_3402.jpg"",""SV_PolicingMSA/CA_3402/IMG_14_3402.jpg"",""SV_PolicingMSA/CA_3402/IMG_7_3402.jpg"",""SV_PolicingMSA/CA_3402/IMG_12_3402.jpg"",""SV_PolicingMSA/CA_3402/IMG_10_3402.jpg""]","4",NA,NA,NA,NA,NA,3,NA,4,"[""./rc_img/cop_condGroup_4_SafeStreets_autoscaled.png"",""./rc_img/cop_condGroup_4_CommunitySafety_autoscaled.png""]",4,NA,NA,"CA_3402","CA_3402",3,1,2,2,2,2,6,"CA_3402",3,2,3,2,2,2,"CA_3402",3,1,2,2,1,2,2,"51","male","man","","21222","No"
"37","sliderTrial","html-slider-response",139,495683,"0.0-139.0",NA,"656776a7904ae00d6b91d1dd","6568aa21965e65deb9e70d5c",13,NA,NA,NA,NA,NA,NA,NA,NA,NA,NA,NA,"2370","[""SV_PolicingMSA/CA_7077/IMG_3_7077.jpg"",""SV_PolicingMSA/CA_7077/IMG_1_7077.jpg"",""SV_PolicingMSA/CA_7077/IMG_13_7077.jpg"",""SV_PolicingMSA/CA_7077/IMG_12_7077.jpg"",""SV_PolicingMSA/CA_7077/IMG_2_7077.jpg"",""SV_PolicingMSA/CA_7077/IMG_14_7077.jpg"",""SV_PolicingMSA/CA_7077/IMG_8_7077.jpg"",""SV_PolicingMSA/CA_7077/IMG_6_7077.jpg""]","4",NA,NA,NA,NA,NA,0,NA,4,"[""./rc_img/cop_condGroup_18_SafeStreets_autoscaled.png"",""./rc_img/cop_condGroup_18_CommunitySafety_autoscaled.png""]",4,NA,NA,"CA_7077","CA_7077",0,1,2,2,2,2,1,"CA_7077",0,2,2,2,2,2,"CA_7077",0,2,2,2,1,2,2,"51","male","man","","21222","No"
"38","sliderTrial","html-slider-response",140,496421,"0.0-140.0",NA,"656776a7904ae00d6b91d1dd","6568aa21965e65deb9e70d5c",13,NA,NA,NA,NA,NA,NA,NA,NA,NA,NA,NA,"737","[""SV_PolicingMSA/CA_7077/IMG_3_7077.jpg"",""SV_PolicingMSA/CA_7077/IMG_1_7077.jpg"",""SV_PolicingMSA/CA_7077/IMG_13_7077.jpg"",""SV_PolicingMSA/CA_7077/IMG_12_7077.jpg"",""SV_PolicingMSA/CA_7077/IMG_2_7077.jpg"",""SV_PolicingMSA/CA_7077/IMG_14_7077.jpg"",""SV_PolicingMSA/CA_7077/IMG_8_7077.jpg"",""SV_PolicingMSA/CA_7077/IMG_6_7077.jpg""]","4",NA,NA,NA,NA,NA,0,NA,4,"[""./rc_img/cop_condGroup_14_SafeStreets_autoscaled.png"",""./rc_img/cop_condGroup_14_CommunitySafety_autoscaled.png""]",4,NA,NA,"CA_7077","CA_7077",0,1,2,2,2,2,1,"CA_7077",0,2,2,2,2,2,"CA_7077",0,2,2,2,1,2,2,"51","male","man","","21222","No"
"39","sliderTrial","html-slider-response",141,497573,"0.0-141.0",NA,"656776a7904ae00d6b91d1dd","6568aa21965e65deb9e70d5c",13,NA,NA,NA,NA,NA,NA,NA,NA,NA,NA,NA,"1150","[""SV_PolicingMSA/CA_7077/IMG_3_7077.jpg"",""SV_PolicingMSA/CA_7077/IMG_1_7077.jpg"",""SV_PolicingMSA/CA_7077/IMG_13_7077.jpg"",""SV_PolicingMSA/CA_7077/IMG_12_7077.jpg"",""SV_PolicingMSA/CA_7077/IMG_2_7077.jpg"",""SV_PolicingMSA/CA_7077/IMG_14_7077.jpg"",""SV_PolicingMSA/CA_7077/IMG_8_7077.jpg"",""SV_PolicingMSA/CA_7077/IMG_6_7077.jpg""]","4",NA,NA,NA,NA,NA,0,NA,4,"[""./rc_img/cop_condGroup_1_CommunitySafety_autoscaled.png"",""./rc_img/cop_condGroup_1_SafeStreets_autoscaled.png""]",4,NA,NA,"CA_7077","CA_7077",0,1,2,2,2,2,1,"CA_7077",0,2,2,2,2,2,"CA_7077",0,2,2,2,1,2,2,"51","male","man","","21222","No"
"40","sliderTrial","html-slider-response",142,498531,"0.0-142.0",NA,"656776a7904ae00d6b91d1dd","6568aa21965e65deb9e70d5c",13,NA,NA,NA,NA,NA,NA,NA,NA,NA,NA,NA,"958","[""SV_PolicingMSA/CA_7077/IMG_3_7077.jpg"",""SV_PolicingMSA/CA_7077/IMG_1_7077.jpg"",""SV_PolicingMSA/CA_7077/IMG_13_7077.jpg"",""SV_PolicingMSA/CA_7077/IMG_12_7077.jpg"",""SV_PolicingMSA/CA_7077/IMG_2_7077.jpg"",""SV_PolicingMSA/CA_7077/IMG_14_7077.jpg"",""SV_PolicingMSA/CA_7077/IMG_8_7077.jpg"",""SV_PolicingMSA/CA_7077/IMG_6_7077.jpg""]","4",NA,NA,NA,NA,NA,0,NA,4,"[""./rc_img/cop_condGroup_2_SafeStreets_autoscaled.png"",""./rc_img/cop_condGroup_2_CommunitySafety_autoscaled.png""]",4,NA,NA,"CA_7077","CA_7077",0,1,2,2,2,2,1,"CA_7077",0,2,2,2,2,2,"CA_7077",0,2,2,2,1,2,2,"51","male","man","","21222","No"
"41","sliderTrial_attention","html-slider-response",143,508547,"0.0-143.0",NA,"656776a7904ae00d6b91d1dd","6568aa21965e65deb9e70d5c",13,NA,NA,NA,NA,NA,NA,NA,NA,NA,NA,NA,"null","[""SV_PolicingMSA/CA_7077/IMG_3_7077.jpg"",""SV_PolicingMSA/CA_7077/IMG_1_7077.jpg"",""SV_PolicingMSA/CA_7077/IMG_13_7077.jpg"",""SV_PolicingMSA/CA_7077/IMG_12_7077.jpg"",""SV_PolicingMSA/CA_7077/IMG_2_7077.jpg"",""SV_PolicingMSA/CA_7077/IMG_14_7077.jpg"",""SV_PolicingMSA/CA_7077/IMG_8_7077.jpg"",""SV_PolicingMSA/CA_7077/IMG_6_7077.jpg""]","null",NA,NA,NA,NA,NA,0,NA,4,"[""./assets/img/attnchk.png"",""./assets/img/attnchk.png""]",NA,TRUE,NA,"CA_7077","CA_7077",0,1,2,2,2,2,1,"CA_7077",0,2,2,2,2,2,"CA_7077",0,2,2,2,1,2,2,"51","male","man","","21222","No"
"42","sliderTrial","html-slider-response",144,511523,"0.0-144.0",NA,"656776a7904ae00d6b91d1dd","6568aa21965e65deb9e70d5c",13,NA,NA,NA,NA,NA,NA,NA,NA,NA,NA,NA,"2973","[""SV_PolicingMSA/CA_7077/IMG_3_7077.jpg"",""SV_PolicingMSA/CA_7077/IMG_1_7077.jpg"",""SV_PolicingMSA/CA_7077/IMG_13_7077.jpg"",""SV_PolicingMSA/CA_7077/IMG_12_7077.jpg"",""SV_PolicingMSA/CA_7077/IMG_2_7077.jpg"",""SV_PolicingMSA/CA_7077/IMG_14_7077.jpg"",""SV_PolicingMSA/CA_7077/IMG_8_7077.jpg"",""SV_PolicingMSA/CA_7077/IMG_6_7077.jpg""]","4",NA,NA,NA,NA,NA,0,NA,4,"[""./rc_img/cop_condGroup_8_CommunitySafety_autoscaled.png"",""./rc_img/cop_condGroup_8_SafeStreets_autoscaled.png""]",4,NA,NA,"CA_7077","CA_7077",0,1,2,2,2,2,1,"CA_7077",0,2,2,2,2,2,"CA_7077",0,2,2,2,1,2,2,"51","male","man","","21222","No"
