"","task","trial_type","trial_index","time_elapsed","internal_node_id","subject_id","study_id","session_id","section","width","height","webaudio","browser","browser_version","mobile","os","fullscreen","vsync_rate","webcam","microphone","rt","stimulus","response","success","timeout","failed_images","failed_audio","failed_video","block.x.x","accuracy","slider_start","choices","standardized_response","correct","num_attention_checks_correct","stim_tract","stim_tractT","block.x","P0_Q1.wealthy","P0_Q1.safe","P0_Q1.walkable","P0_Q1.traditional","P0_Q1.diverse","block_fixed","stim_tractT.x","block.y","P0_Q1.violence","P0_Q1.crime","P0_Q1.drug","P0_Q1.schools","P0_Q1.opportunities","stim_tractT.y","block.y.y","P0_Q1.movein","P0_Q1.moveout","P0_Q1.shopping","P0_Q1.walk","P0_Q1.park","P0_Q1.school","age","sex","gender","gender-self-describe","zipcode","surveyComments"
"1","sliderTrial","html-slider-response",18,190993,"0.0-18.0",NA,"656776a7904ae00d6b91d1dd","6568aa3357a0ddeca59c067b",4,NA,NA,NA,NA,NA,NA,NA,NA,NA,NA,NA,"18292","[""SV_PolicingMSA/CO_572/IMG_3_572.jpg"",""SV_PolicingMSA/CO_572/IMG_8_572.jpg"",""SV_PolicingMSA/CO_572/IMG_14_572.jpg"",""SV_PolicingMSA/CO_572/IMG_4_572.jpg"",""SV_PolicingMSA/CO_572/IMG_11_572.jpg"",""SV_PolicingMSA/CO_572/IMG_5_572.jpg"",""SV_PolicingMSA/CO_572/IMG_1_572.jpg"",""SV_PolicingMSA/CO_572/IMG_2_572.jpg""]","4",NA,NA,NA,NA,NA,5,NA,4,"[""./rc_img/cop_condGroup_15_SafeStreets_autoscaled.png"",""./rc_img/cop_condGroup_15_CommunitySafety_autoscaled.png""]",4,NA,NA,"CO_572/","CO_572",5,2,3,1,3,3,8,"CO_572",5,1,2,1,2,2,"CO_572",5,2,1,3,2,3,1,"45","female","woman","","31419",""
"2","sliderTrial","html-slider-response",19,200095,"0.0-19.0",NA,"656776a7904ae00d6b91d1dd","6568aa3357a0ddeca59c067b",4,NA,NA,NA,NA,NA,NA,NA,NA,NA,NA,NA,"9099","[""SV_PolicingMSA/CO_572/IMG_3_572.jpg"",""SV_PolicingMSA/CO_572/IMG_8_572.jpg"",""SV_PolicingMSA/CO_572/IMG_14_572.jpg"",""SV_PolicingMSA/CO_572/IMG_4_572.jpg"",""SV_PolicingMSA/CO_572/IMG_11_572.jpg"",""SV_PolicingMSA/CO_572/IMG_5_572.jpg"",""SV_PolicingMSA/CO_572/IMG_1_572.jpg"",""SV_PolicingMSA/CO_572/IMG_2_572.jpg""]","4",NA,NA,NA,NA,NA,5,NA,4,"[""./rc_img/cop_condGroup_20_CommunitySafety_autoscaled.png"",""./rc_img/cop_condGroup_20_SafeStreets_autoscaled.png""]",4,NA,NA,"CO_572/","CO_572",5,2,3,1,3,3,8,"CO_572",5,1,2,1,2,2,"CO_572",5,2,1,3,2,3,1,"45","female","woman","","31419",""
"3","sliderTrial","html-slider-response",20,205031,"0.0-20.0",NA,"656776a7904ae00d6b91d1dd","6568aa3357a0ddeca59c067b",4,NA,NA,NA,NA,NA,NA,NA,NA,NA,NA,NA,"4933","[""SV_PolicingMSA/CO_572/IMG_3_572.jpg"",""SV_PolicingMSA/CO_572/IMG_8_572.jpg"",""SV_PolicingMSA/CO_572/IMG_14_572.jpg"",""SV_PolicingMSA/CO_572/IMG_4_572.jpg"",""SV_PolicingMSA/CO_572/IMG_11_572.jpg"",""SV_PolicingMSA/CO_572/IMG_5_572.jpg"",""SV_PolicingMSA/CO_572/IMG_1_572.jpg"",""SV_PolicingMSA/CO_572/IMG_2_572.jpg""]","4",NA,NA,NA,NA,NA,5,NA,4,"[""./rc_img/cop_condGroup_3_SafeStreets_autoscaled.png"",""./rc_img/cop_condGroup_3_CommunitySafety_autoscaled.png""]",4,NA,NA,"CO_572/","CO_572",5,2,3,1,3,3,8,"CO_572",5,1,2,1,2,2,"CO_572",5,2,1,3,2,3,1,"45","female","woman","","31419",""
"4","sliderTrial","html-slider-response",21,208064,"0.0-21.0",NA,"656776a7904ae00d6b91d1dd","6568aa3357a0ddeca59c067b",4,NA,NA,NA,NA,NA,NA,NA,NA,NA,NA,NA,"3027","[""SV_PolicingMSA/CO_572/IMG_3_572.jpg"",""SV_PolicingMSA/CO_572/IMG_8_572.jpg"",""SV_PolicingMSA/CO_572/IMG_14_572.jpg"",""SV_PolicingMSA/CO_572/IMG_4_572.jpg"",""SV_PolicingMSA/CO_572/IMG_11_572.jpg"",""SV_PolicingMSA/CO_572/IMG_5_572.jpg"",""SV_PolicingMSA/CO_572/IMG_1_572.jpg"",""SV_PolicingMSA/CO_572/IMG_2_572.jpg""]","4",NA,NA,NA,NA,NA,5,NA,4,"[""./rc_img/cop_condGroup_17_SafeStreets_autoscaled.png"",""./rc_img/cop_condGroup_17_CommunitySafety_autoscaled.png""]",4,NA,NA,"CO_572/","CO_572",5,2,3,1,3,3,8,"CO_572",5,1,2,1,2,2,"CO_572",5,2,1,3,2,3,1,"45","female","woman","","31419",""
"5","sliderTrial","html-slider-response",22,211506,"0.0-22.0",NA,"656776a7904ae00d6b91d1dd","6568aa3357a0ddeca59c067b",4,NA,NA,NA,NA,NA,NA,NA,NA,NA,NA,NA,"3439","[""SV_PolicingMSA/CO_572/IMG_3_572.jpg"",""SV_PolicingMSA/CO_572/IMG_8_572.jpg"",""SV_PolicingMSA/CO_572/IMG_14_572.jpg"",""SV_PolicingMSA/CO_572/IMG_4_572.jpg"",""SV_PolicingMSA/CO_572/IMG_11_572.jpg"",""SV_PolicingMSA/CO_572/IMG_5_572.jpg"",""SV_PolicingMSA/CO_572/IMG_1_572.jpg"",""SV_PolicingMSA/CO_572/IMG_2_572.jpg""]","4",NA,NA,NA,NA,NA,5,NA,4,"[""./rc_img/cop_condGroup_16_CommunitySafety_autoscaled.png"",""./rc_img/cop_condGroup_16_SafeStreets_autoscaled.png""]",4,NA,NA,"CO_572/","CO_572",5,2,3,1,3,3,8,"CO_572",5,1,2,1,2,2,"CO_572",5,2,1,3,2,3,1,"45","female","woman","","31419",""
"6","sliderTrial","html-slider-response",35,288303,"0.0-35.0",NA,"656776a7904ae00d6b91d1dd","6568aa3357a0ddeca59c067b",4,NA,NA,NA,NA,NA,NA,NA,NA,NA,NA,NA,"3241","[""SV_PolicingMSA/CO_543/IMG_10_543.jpg"",""SV_PolicingMSA/CO_543/IMG_6_543.jpg"",""SV_PolicingMSA/CO_543/IMG_14_543.jpg"",""SV_PolicingMSA/CO_543/IMG_0_543.jpg"",""SV_PolicingMSA/CO_543/IMG_5_543.jpg"",""SV_PolicingMSA/CO_543/IMG_9_543.jpg"",""SV_PolicingMSA/CO_543/IMG_1_543.jpg"",""SV_PolicingMSA/CO_543/IMG_13_543.jpg""]","4",NA,NA,NA,NA,NA,2,NA,4,"[""./rc_img/cop_condGroup_14_SafeStreets_autoscaled.png"",""./rc_img/cop_condGroup_14_CommunitySafety_autoscaled.png""]",4,NA,NA,"CO_543/","CO_543",2,1,2,1,3,3,3,"CO_543",2,2,2,2,2,1,"CO_543",2,1,2,2,1,2,1,"45","female","woman","","31419",""
"7","sliderTrial","html-slider-response",36,290418,"0.0-36.0",NA,"656776a7904ae00d6b91d1dd","6568aa3357a0ddeca59c067b",4,NA,NA,NA,NA,NA,NA,NA,NA,NA,NA,NA,"2109","[""SV_PolicingMSA/CO_543/IMG_10_543.jpg"",""SV_PolicingMSA/CO_543/IMG_6_543.jpg"",""SV_PolicingMSA/CO_543/IMG_14_543.jpg"",""SV_PolicingMSA/CO_543/IMG_0_543.jpg"",""SV_PolicingMSA/CO_543/IMG_5_543.jpg"",""SV_PolicingMSA/CO_543/IMG_9_543.jpg"",""SV_PolicingMSA/CO_543/IMG_1_543.jpg"",""SV_PolicingMSA/CO_543/IMG_13_543.jpg""]","4",NA,NA,NA,NA,NA,2,NA,4,"[""./rc_img/cop_condGroup_19_SafeStreets_autoscaled.png"",""./rc_img/cop_condGroup_19_CommunitySafety_autoscaled.png""]",4,NA,NA,"CO_543/","CO_543",2,1,2,1,3,3,3,"CO_543",2,2,2,2,2,1,"CO_543",2,1,2,2,1,2,1,"45","female","woman","","31419",""
"8","sliderTrial","html-slider-response",37,291882,"0.0-37.0",NA,"656776a7904ae00d6b91d1dd","6568aa3357a0ddeca59c067b",4,NA,NA,NA,NA,NA,NA,NA,NA,NA,NA,NA,"1461","[""SV_PolicingMSA/CO_543/IMG_10_543.jpg"",""SV_PolicingMSA/CO_543/IMG_6_543.jpg"",""SV_PolicingMSA/CO_543/IMG_14_543.jpg"",""SV_PolicingMSA/CO_543/IMG_0_543.jpg"",""SV_PolicingMSA/CO_543/IMG_5_543.jpg"",""SV_PolicingMSA/CO_543/IMG_9_543.jpg"",""SV_PolicingMSA/CO_543/IMG_1_543.jpg"",""SV_PolicingMSA/CO_543/IMG_13_543.jpg""]","4",NA,NA,NA,NA,NA,2,NA,4,"[""./rc_img/cop_condGroup_4_SafeStreets_autoscaled.png"",""./rc_img/cop_condGroup_4_CommunitySafety_autoscaled.png""]",4,NA,NA,"CO_543/","CO_543",2,1,2,1,3,3,3,"CO_543",2,2,2,2,2,1,"CO_543",2,1,2,2,1,2,1,"45","female","woman","","31419",""
"9","sliderTrial","html-slider-response",38,293588,"0.0-38.0",NA,"656776a7904ae00d6b91d1dd","6568aa3357a0ddeca59c067b",4,NA,NA,NA,NA,NA,NA,NA,NA,NA,NA,NA,"1699","[""SV_PolicingMSA/CO_543/IMG_10_543.jpg"",""SV_PolicingMSA/CO_543/IMG_6_543.jpg"",""SV_PolicingMSA/CO_543/IMG_14_543.jpg"",""SV_PolicingMSA/CO_543/IMG_0_543.jpg"",""SV_PolicingMSA/CO_543/IMG_5_543.jpg"",""SV_PolicingMSA/CO_543/IMG_9_543.jpg"",""SV_PolicingMSA/CO_543/IMG_1_543.jpg"",""SV_PolicingMSA/CO_543/IMG_13_543.jpg""]","4",NA,NA,NA,NA,NA,2,NA,4,"[""./rc_img/cop_condGroup_1_SafeStreets_autoscaled.png"",""./rc_img/cop_condGroup_1_CommunitySafety_autoscaled.png""]",4,NA,NA,"CO_543/","CO_543",2,1,2,1,3,3,3,"CO_543",2,2,2,2,2,1,"CO_543",2,1,2,2,1,2,1,"45","female","woman","","31419",""
"10","sliderTrial","html-slider-response",39,294923,"0.0-39.0",NA,"656776a7904ae00d6b91d1dd","6568aa3357a0ddeca59c067b",4,NA,NA,NA,NA,NA,NA,NA,NA,NA,NA,NA,"1333","[""SV_PolicingMSA/CO_543/IMG_10_543.jpg"",""SV_PolicingMSA/CO_543/IMG_6_543.jpg"",""SV_PolicingMSA/CO_543/IMG_14_543.jpg"",""SV_PolicingMSA/CO_543/IMG_0_543.jpg"",""SV_PolicingMSA/CO_543/IMG_5_543.jpg"",""SV_PolicingMSA/CO_543/IMG_9_543.jpg"",""SV_PolicingMSA/CO_543/IMG_1_543.jpg"",""SV_PolicingMSA/CO_543/IMG_13_543.jpg""]","4",NA,NA,NA,NA,NA,2,NA,4,"[""./rc_img/cop_condGroup_2_CommunitySafety_autoscaled.png"",""./rc_img/cop_condGroup_2_SafeStreets_autoscaled.png""]",4,NA,NA,"CO_543/","CO_543",2,1,2,1,3,3,3,"CO_543",2,2,2,2,2,1,"CO_543",2,1,2,2,1,2,1,"45","female","woman","","31419",""
"11","sliderTrial","html-slider-response",52,362448,"0.0-52.0",NA,"656776a7904ae00d6b91d1dd","6568aa3357a0ddeca59c067b",4,NA,NA,NA,NA,NA,NA,NA,NA,NA,NA,NA,"2205","[""SV_PolicingMSA/CO_1308/IMG_4_1308.jpg"",""SV_PolicingMSA/CO_1308/IMG_3_1308.jpg"",""SV_PolicingMSA/CO_1308/IMG_8_1308.jpg"",""SV_PolicingMSA/CO_1308/IMG_14_1308.jpg"",""SV_PolicingMSA/CO_1308/IMG_0_1308.jpg"",""SV_PolicingMSA/CO_1308/IMG_2_1308.jpg"",""SV_PolicingMSA/CO_1308/IMG_13_1308.jpg"",""SV_PolicingMSA/CO_1308/IMG_11_1308.jpg""]","4",NA,NA,NA,NA,NA,3,NA,4,"[""./rc_img/cop_condGroup_15_SafeStreets_autoscaled.png"",""./rc_img/cop_condGroup_15_CommunitySafety_autoscaled.png""]",4,NA,NA,"CO_1308","CO_1308",3,2,2,4,3,3,5,"CO_1308",3,2,3,2,1,3,"CO_1308",3,2,1,4,2,3,1,"45","female","woman","","31419",""
"12","sliderTrial","html-slider-response",53,363692,"0.0-53.0",NA,"656776a7904ae00d6b91d1dd","6568aa3357a0ddeca59c067b",4,NA,NA,NA,NA,NA,NA,NA,NA,NA,NA,NA,"1242","[""SV_PolicingMSA/CO_1308/IMG_4_1308.jpg"",""SV_PolicingMSA/CO_1308/IMG_3_1308.jpg"",""SV_PolicingMSA/CO_1308/IMG_8_1308.jpg"",""SV_PolicingMSA/CO_1308/IMG_14_1308.jpg"",""SV_PolicingMSA/CO_1308/IMG_0_1308.jpg"",""SV_PolicingMSA/CO_1308/IMG_2_1308.jpg"",""SV_PolicingMSA/CO_1308/IMG_13_1308.jpg"",""SV_PolicingMSA/CO_1308/IMG_11_1308.jpg""]","4",NA,NA,NA,NA,NA,3,NA,4,"[""./rc_img/cop_condGroup_20_CommunitySafety_autoscaled.png"",""./rc_img/cop_condGroup_20_SafeStreets_autoscaled.png""]",4,NA,NA,"CO_1308","CO_1308",3,2,2,4,3,3,5,"CO_1308",3,2,3,2,1,3,"CO_1308",3,2,1,4,2,3,1,"45","female","woman","","31419",""
"13","sliderTrial","html-slider-response",54,364887,"0.0-54.0",NA,"656776a7904ae00d6b91d1dd","6568aa3357a0ddeca59c067b",4,NA,NA,NA,NA,NA,NA,NA,NA,NA,NA,NA,"1191","[""SV_PolicingMSA/CO_1308/IMG_4_1308.jpg"",""SV_PolicingMSA/CO_1308/IMG_3_1308.jpg"",""SV_PolicingMSA/CO_1308/IMG_8_1308.jpg"",""SV_PolicingMSA/CO_1308/IMG_14_1308.jpg"",""SV_PolicingMSA/CO_1308/IMG_0_1308.jpg"",""SV_PolicingMSA/CO_1308/IMG_2_1308.jpg"",""SV_PolicingMSA/CO_1308/IMG_13_1308.jpg"",""SV_PolicingMSA/CO_1308/IMG_11_1308.jpg""]","4",NA,NA,NA,NA,NA,3,NA,4,"[""./rc_img/cop_condGroup_3_SafeStreets_autoscaled.png"",""./rc_img/cop_condGroup_3_CommunitySafety_autoscaled.png""]",4,NA,NA,"CO_1308","CO_1308",3,2,2,4,3,3,5,"CO_1308",3,2,3,2,1,3,"CO_1308",3,2,1,4,2,3,1,"45","female","woman","","31419",""
"14","sliderTrial","html-slider-response",55,366058,"0.0-55.0",NA,"656776a7904ae00d6b91d1dd","6568aa3357a0ddeca59c067b",4,NA,NA,NA,NA,NA,NA,NA,NA,NA,NA,NA,"1166","[""SV_PolicingMSA/CO_1308/IMG_4_1308.jpg"",""SV_PolicingMSA/CO_1308/IMG_3_1308.jpg"",""SV_PolicingMSA/CO_1308/IMG_8_1308.jpg"",""SV_PolicingMSA/CO_1308/IMG_14_1308.jpg"",""SV_PolicingMSA/CO_1308/IMG_0_1308.jpg"",""SV_PolicingMSA/CO_1308/IMG_2_1308.jpg"",""SV_PolicingMSA/CO_1308/IMG_13_1308.jpg"",""SV_PolicingMSA/CO_1308/IMG_11_1308.jpg""]","4",NA,NA,NA,NA,NA,3,NA,4,"[""./rc_img/cop_condGroup_17_SafeStreets_autoscaled.png"",""./rc_img/cop_condGroup_17_CommunitySafety_autoscaled.png""]",4,NA,NA,"CO_1308","CO_1308",3,2,2,4,3,3,5,"CO_1308",3,2,3,2,1,3,"CO_1308",3,2,1,4,2,3,1,"45","female","woman","","31419",""
"15","sliderTrial","html-slider-response",56,367347,"0.0-56.0",NA,"656776a7904ae00d6b91d1dd","6568aa3357a0ddeca59c067b",4,NA,NA,NA,NA,NA,NA,NA,NA,NA,NA,NA,"1282","[""SV_PolicingMSA/CO_1308/IMG_4_1308.jpg"",""SV_PolicingMSA/CO_1308/IMG_3_1308.jpg"",""SV_PolicingMSA/CO_1308/IMG_8_1308.jpg"",""SV_PolicingMSA/CO_1308/IMG_14_1308.jpg"",""SV_PolicingMSA/CO_1308/IMG_0_1308.jpg"",""SV_PolicingMSA/CO_1308/IMG_2_1308.jpg"",""SV_PolicingMSA/CO_1308/IMG_13_1308.jpg"",""SV_PolicingMSA/CO_1308/IMG_11_1308.jpg""]","4",NA,NA,NA,NA,NA,3,NA,4,"[""./rc_img/cop_condGroup_16_CommunitySafety_autoscaled.png"",""./rc_img/cop_condGroup_16_SafeStreets_autoscaled.png""]",4,NA,NA,"CO_1308","CO_1308",3,2,2,4,3,3,5,"CO_1308",3,2,3,2,1,3,"CO_1308",3,2,1,4,2,3,1,"45","female","woman","","31419",""
"16","sliderTrial","html-slider-response",69,426823,"0.0-69.0",NA,"656776a7904ae00d6b91d1dd","6568aa3357a0ddeca59c067b",4,NA,NA,NA,NA,NA,NA,NA,NA,NA,NA,NA,"2256","[""SV_PolicingMSA/CO_1325/IMG_13_1325.jpg"",""SV_PolicingMSA/CO_1325/IMG_5_1325.jpg"",""SV_PolicingMSA/CO_1325/IMG_3_1325.jpg"",""SV_PolicingMSA/CO_1325/IMG_9_1325.jpg"",""SV_PolicingMSA/CO_1325/IMG_14_1325.jpg"",""SV_PolicingMSA/CO_1325/IMG_11_1325.jpg"",""SV_PolicingMSA/CO_1325/IMG_1_1325.jpg"",""SV_PolicingMSA/CO_1325/IMG_8_1325.jpg""]","4",NA,NA,NA,NA,NA,3,NA,4,"[""./rc_img/cop_condGroup_6_SafeStreets_autoscaled.png"",""./rc_img/cop_condGroup_6_CommunitySafety_autoscaled.png""]",4,NA,NA,"CO_1325","CO_1325",3,3,3,1,3,3,6,"CO_1325",3,1,1,2,2,3,"CO_1325",3,3,1,3,3,3,1,"45","female","woman","","31419",""
"17","sliderTrial","html-slider-response",70,428044,"0.0-70.0",NA,"656776a7904ae00d6b91d1dd","6568aa3357a0ddeca59c067b",4,NA,NA,NA,NA,NA,NA,NA,NA,NA,NA,NA,"1216","[""SV_PolicingMSA/CO_1325/IMG_13_1325.jpg"",""SV_PolicingMSA/CO_1325/IMG_5_1325.jpg"",""SV_PolicingMSA/CO_1325/IMG_3_1325.jpg"",""SV_PolicingMSA/CO_1325/IMG_9_1325.jpg"",""SV_PolicingMSA/CO_1325/IMG_14_1325.jpg"",""SV_PolicingMSA/CO_1325/IMG_11_1325.jpg"",""SV_PolicingMSA/CO_1325/IMG_1_1325.jpg"",""SV_PolicingMSA/CO_1325/IMG_8_1325.jpg""]","4",NA,NA,NA,NA,NA,3,NA,4,"[""./rc_img/cop_condGroup_10_SafeStreets_autoscaled.png"",""./rc_img/cop_condGroup_10_CommunitySafety_autoscaled.png""]",4,NA,NA,"CO_1325","CO_1325",3,3,3,1,3,3,6,"CO_1325",3,1,1,2,2,3,"CO_1325",3,3,1,3,3,3,1,"45","female","woman","","31419",""
"18","sliderTrial","html-slider-response",71,429194,"0.0-71.0",NA,"656776a7904ae00d6b91d1dd","6568aa3357a0ddeca59c067b",4,NA,NA,NA,NA,NA,NA,NA,NA,NA,NA,NA,"1145","[""SV_PolicingMSA/CO_1325/IMG_13_1325.jpg"",""SV_PolicingMSA/CO_1325/IMG_5_1325.jpg"",""SV_PolicingMSA/CO_1325/IMG_3_1325.jpg"",""SV_PolicingMSA/CO_1325/IMG_9_1325.jpg"",""SV_PolicingMSA/CO_1325/IMG_14_1325.jpg"",""SV_PolicingMSA/CO_1325/IMG_11_1325.jpg"",""SV_PolicingMSA/CO_1325/IMG_1_1325.jpg"",""SV_PolicingMSA/CO_1325/IMG_8_1325.jpg""]","4",NA,NA,NA,NA,NA,3,NA,4,"[""./rc_img/cop_condGroup_5_CommunitySafety_autoscaled.png"",""./rc_img/cop_condGroup_5_SafeStreets_autoscaled.png""]",4,NA,NA,"CO_1325","CO_1325",3,3,3,1,3,3,6,"CO_1325",3,1,1,2,2,3,"CO_1325",3,3,1,3,3,3,1,"45","female","woman","","31419",""
"19","sliderTrial","html-slider-response",72,430446,"0.0-72.0",NA,"656776a7904ae00d6b91d1dd","6568aa3357a0ddeca59c067b",4,NA,NA,NA,NA,NA,NA,NA,NA,NA,NA,NA,"1250","[""SV_PolicingMSA/CO_1325/IMG_13_1325.jpg"",""SV_PolicingMSA/CO_1325/IMG_5_1325.jpg"",""SV_PolicingMSA/CO_1325/IMG_3_1325.jpg"",""SV_PolicingMSA/CO_1325/IMG_9_1325.jpg"",""SV_PolicingMSA/CO_1325/IMG_14_1325.jpg"",""SV_PolicingMSA/CO_1325/IMG_11_1325.jpg"",""SV_PolicingMSA/CO_1325/IMG_1_1325.jpg"",""SV_PolicingMSA/CO_1325/IMG_8_1325.jpg""]","4",NA,NA,NA,NA,NA,3,NA,4,"[""./rc_img/cop_condGroup_7_CommunitySafety_autoscaled.png"",""./rc_img/cop_condGroup_7_SafeStreets_autoscaled.png""]",4,NA,NA,"CO_1325","CO_1325",3,3,3,1,3,3,6,"CO_1325",3,1,1,2,2,3,"CO_1325",3,3,1,3,3,3,1,"45","female","woman","","31419",""
"20","sliderTrial","html-slider-response",73,431728,"0.0-73.0",NA,"656776a7904ae00d6b91d1dd","6568aa3357a0ddeca59c067b",4,NA,NA,NA,NA,NA,NA,NA,NA,NA,NA,NA,"1280","[""SV_PolicingMSA/CO_1325/IMG_13_1325.jpg"",""SV_PolicingMSA/CO_1325/IMG_5_1325.jpg"",""SV_PolicingMSA/CO_1325/IMG_3_1325.jpg"",""SV_PolicingMSA/CO_1325/IMG_9_1325.jpg"",""SV_PolicingMSA/CO_1325/IMG_14_1325.jpg"",""SV_PolicingMSA/CO_1325/IMG_11_1325.jpg"",""SV_PolicingMSA/CO_1325/IMG_1_1325.jpg"",""SV_PolicingMSA/CO_1325/IMG_8_1325.jpg""]","4",NA,NA,NA,NA,NA,3,NA,4,"[""./rc_img/cop_condGroup_18_CommunitySafety_autoscaled.png"",""./rc_img/cop_condGroup_18_SafeStreets_autoscaled.png""]",4,NA,NA,"CO_1325","CO_1325",3,3,3,1,3,3,6,"CO_1325",3,1,1,2,2,3,"CO_1325",3,3,1,3,3,3,1,"45","female","woman","","31419",""
"21","sliderTrial","html-slider-response",87,501631,"0.0-87.0",NA,"656776a7904ae00d6b91d1dd","6568aa3357a0ddeca59c067b",4,NA,NA,NA,NA,NA,NA,NA,NA,NA,NA,NA,"2397","[""SV_PolicingMSA/CO_649/IMG_11_649.jpg"",""SV_PolicingMSA/CO_649/IMG_6_649.jpg"",""SV_PolicingMSA/CO_649/IMG_14_649.jpg"",""SV_PolicingMSA/CO_649/IMG_9_649.jpg"",""SV_PolicingMSA/CO_649/IMG_12_649.jpg"",""SV_PolicingMSA/CO_649/IMG_3_649.jpg"",""SV_PolicingMSA/CO_649/IMG_4_649.jpg"",""SV_PolicingMSA/CO_649/IMG_8_649.jpg""]","4",NA,NA,NA,NA,NA,2,NA,4,"[""./rc_img/cop_condGroup_8_CommunitySafety_autoscaled.png"",""./rc_img/cop_condGroup_8_SafeStreets_autoscaled.png""]",4,NA,NA,"CO_649/","CO_649",2,2,2,2,2,2,4,"CO_649",2,2,2,2,2,2,"CO_649",2,2,2,2,1,2,1,"45","female","woman","","31419",""
"22","sliderTrial","html-slider-response",88,502802,"0.0-88.0",NA,"656776a7904ae00d6b91d1dd","6568aa3357a0ddeca59c067b",4,NA,NA,NA,NA,NA,NA,NA,NA,NA,NA,NA,"1166","[""SV_PolicingMSA/CO_649/IMG_11_649.jpg"",""SV_PolicingMSA/CO_649/IMG_6_649.jpg"",""SV_PolicingMSA/CO_649/IMG_14_649.jpg"",""SV_PolicingMSA/CO_649/IMG_9_649.jpg"",""SV_PolicingMSA/CO_649/IMG_12_649.jpg"",""SV_PolicingMSA/CO_649/IMG_3_649.jpg"",""SV_PolicingMSA/CO_649/IMG_4_649.jpg"",""SV_PolicingMSA/CO_649/IMG_8_649.jpg""]","4",NA,NA,NA,NA,NA,2,NA,4,"[""./rc_img/cop_condGroup_11_SafeStreets_autoscaled.png"",""./rc_img/cop_condGroup_11_CommunitySafety_autoscaled.png""]",4,NA,NA,"CO_649/","CO_649",2,2,2,2,2,2,4,"CO_649",2,2,2,2,2,2,"CO_649",2,2,2,2,1,2,1,"45","female","woman","","31419",""
"23","sliderTrial","html-slider-response",89,503916,"0.0-89.0",NA,"656776a7904ae00d6b91d1dd","6568aa3357a0ddeca59c067b",4,NA,NA,NA,NA,NA,NA,NA,NA,NA,NA,NA,"1110","[""SV_PolicingMSA/CO_649/IMG_11_649.jpg"",""SV_PolicingMSA/CO_649/IMG_6_649.jpg"",""SV_PolicingMSA/CO_649/IMG_14_649.jpg"",""SV_PolicingMSA/CO_649/IMG_9_649.jpg"",""SV_PolicingMSA/CO_649/IMG_12_649.jpg"",""SV_PolicingMSA/CO_649/IMG_3_649.jpg"",""SV_PolicingMSA/CO_649/IMG_4_649.jpg"",""SV_PolicingMSA/CO_649/IMG_8_649.jpg""]","4",NA,NA,NA,NA,NA,2,NA,4,"[""./rc_img/cop_condGroup_13_SafeStreets_autoscaled.png"",""./rc_img/cop_condGroup_13_CommunitySafety_autoscaled.png""]",4,NA,NA,"CO_649/","CO_649",2,2,2,2,2,2,4,"CO_649",2,2,2,2,2,2,"CO_649",2,2,2,2,1,2,1,"45","female","woman","","31419",""
"24","sliderTrial","html-slider-response",90,505018,"0.0-90.0",NA,"656776a7904ae00d6b91d1dd","6568aa3357a0ddeca59c067b",4,NA,NA,NA,NA,NA,NA,NA,NA,NA,NA,NA,"1097","[""SV_PolicingMSA/CO_649/IMG_11_649.jpg"",""SV_PolicingMSA/CO_649/IMG_6_649.jpg"",""SV_PolicingMSA/CO_649/IMG_14_649.jpg"",""SV_PolicingMSA/CO_649/IMG_9_649.jpg"",""SV_PolicingMSA/CO_649/IMG_12_649.jpg"",""SV_PolicingMSA/CO_649/IMG_3_649.jpg"",""SV_PolicingMSA/CO_649/IMG_4_649.jpg"",""SV_PolicingMSA/CO_649/IMG_8_649.jpg""]","4",NA,NA,NA,NA,NA,2,NA,4,"[""./rc_img/cop_condGroup_9_CommunitySafety_autoscaled.png"",""./rc_img/cop_condGroup_9_SafeStreets_autoscaled.png""]",4,NA,NA,"CO_649/","CO_649",2,2,2,2,2,2,4,"CO_649",2,2,2,2,2,2,"CO_649",2,2,2,2,1,2,1,"45","female","woman","","31419",""
"25","sliderTrial","html-slider-response",91,506140,"0.0-91.0",NA,"656776a7904ae00d6b91d1dd","6568aa3357a0ddeca59c067b",4,NA,NA,NA,NA,NA,NA,NA,NA,NA,NA,NA,"1118","[""SV_PolicingMSA/CO_649/IMG_11_649.jpg"",""SV_PolicingMSA/CO_649/IMG_6_649.jpg"",""SV_PolicingMSA/CO_649/IMG_14_649.jpg"",""SV_PolicingMSA/CO_649/IMG_9_649.jpg"",""SV_PolicingMSA/CO_649/IMG_12_649.jpg"",""SV_PolicingMSA/CO_649/IMG_3_649.jpg"",""SV_PolicingMSA/CO_649/IMG_4_649.jpg"",""SV_PolicingMSA/CO_649/IMG_8_649.jpg""]","4",NA,NA,NA,NA,NA,2,NA,4,"[""./rc_img/cop_condGroup_12_SafeStreets_autoscaled.png"",""./rc_img/cop_condGroup_12_CommunitySafety_autoscaled.png""]",4,NA,NA,"CO_649/","CO_649",2,2,2,2,2,2,4,"CO_649",2,2,2,2,2,2,"CO_649",2,2,2,2,1,2,1,"45","female","woman","","31419",""
"26","sliderTrial","html-slider-response",104,559062,"0.0-104.0",NA,"656776a7904ae00d6b91d1dd","6568aa3357a0ddeca59c067b",4,NA,NA,NA,NA,NA,NA,NA,NA,NA,NA,NA,"2066","[""SV_PolicingMSA/CO_674/IMG_8_674.jpg"",""SV_PolicingMSA/CO_674/IMG_4_674.jpg"",""SV_PolicingMSA/CO_674/IMG_13_674.jpg"",""SV_PolicingMSA/CO_674/IMG_7_674.jpg"",""SV_PolicingMSA/CO_674/IMG_0_674.jpg"",""SV_PolicingMSA/CO_674/IMG_2_674.jpg"",""SV_PolicingMSA/CO_674/IMG_10_674.jpg"",""SV_PolicingMSA/CO_674/IMG_14_674.jpg""]","4",NA,NA,NA,NA,NA,4,NA,4,"[""./rc_img/cop_condGroup_8_CommunitySafety_autoscaled.png"",""./rc_img/cop_condGroup_8_SafeStreets_autoscaled.png""]",4,NA,NA,"CO_674/","CO_674",4,2,3,2,2,2,7,"CO_674",4,1,1,2,1,3,"CO_674",4,2,1,3,3,3,1,"45","female","woman","","31419",""
"27","sliderTrial","html-slider-response",105,560419,"0.0-105.0",NA,"656776a7904ae00d6b91d1dd","6568aa3357a0ddeca59c067b",4,NA,NA,NA,NA,NA,NA,NA,NA,NA,NA,NA,"1352","[""SV_PolicingMSA/CO_674/IMG_8_674.jpg"",""SV_PolicingMSA/CO_674/IMG_4_674.jpg"",""SV_PolicingMSA/CO_674/IMG_13_674.jpg"",""SV_PolicingMSA/CO_674/IMG_7_674.jpg"",""SV_PolicingMSA/CO_674/IMG_0_674.jpg"",""SV_PolicingMSA/CO_674/IMG_2_674.jpg"",""SV_PolicingMSA/CO_674/IMG_10_674.jpg"",""SV_PolicingMSA/CO_674/IMG_14_674.jpg""]","4",NA,NA,NA,NA,NA,4,NA,4,"[""./rc_img/cop_condGroup_11_SafeStreets_autoscaled.png"",""./rc_img/cop_condGroup_11_CommunitySafety_autoscaled.png""]",4,NA,NA,"CO_674/","CO_674",4,2,3,2,2,2,7,"CO_674",4,1,1,2,1,3,"CO_674",4,2,1,3,3,3,1,"45","female","woman","","31419",""
"28","sliderTrial","html-slider-response",106,561647,"0.0-106.0",NA,"656776a7904ae00d6b91d1dd","6568aa3357a0ddeca59c067b",4,NA,NA,NA,NA,NA,NA,NA,NA,NA,NA,NA,"1225","[""SV_PolicingMSA/CO_674/IMG_8_674.jpg"",""SV_PolicingMSA/CO_674/IMG_4_674.jpg"",""SV_PolicingMSA/CO_674/IMG_13_674.jpg"",""SV_PolicingMSA/CO_674/IMG_7_674.jpg"",""SV_PolicingMSA/CO_674/IMG_0_674.jpg"",""SV_PolicingMSA/CO_674/IMG_2_674.jpg"",""SV_PolicingMSA/CO_674/IMG_10_674.jpg"",""SV_PolicingMSA/CO_674/IMG_14_674.jpg""]","4",NA,NA,NA,NA,NA,4,NA,4,"[""./rc_img/cop_condGroup_13_SafeStreets_autoscaled.png"",""./rc_img/cop_condGroup_13_CommunitySafety_autoscaled.png""]",4,NA,NA,"CO_674/","CO_674",4,2,3,2,2,2,7,"CO_674",4,1,1,2,1,3,"CO_674",4,2,1,3,3,3,1,"45","female","woman","","31419",""
"29","sliderTrial","html-slider-response",107,562912,"0.0-107.0",NA,"656776a7904ae00d6b91d1dd","6568aa3357a0ddeca59c067b",4,NA,NA,NA,NA,NA,NA,NA,NA,NA,NA,NA,"1260","[""SV_PolicingMSA/CO_674/IMG_8_674.jpg"",""SV_PolicingMSA/CO_674/IMG_4_674.jpg"",""SV_PolicingMSA/CO_674/IMG_13_674.jpg"",""SV_PolicingMSA/CO_674/IMG_7_674.jpg"",""SV_PolicingMSA/CO_674/IMG_0_674.jpg"",""SV_PolicingMSA/CO_674/IMG_2_674.jpg"",""SV_PolicingMSA/CO_674/IMG_10_674.jpg"",""SV_PolicingMSA/CO_674/IMG_14_674.jpg""]","4",NA,NA,NA,NA,NA,4,NA,4,"[""./rc_img/cop_condGroup_9_CommunitySafety_autoscaled.png"",""./rc_img/cop_condGroup_9_SafeStreets_autoscaled.png""]",4,NA,NA,"CO_674/","CO_674",4,2,3,2,2,2,7,"CO_674",4,1,1,2,1,3,"CO_674",4,2,1,3,3,3,1,"45","female","woman","","31419",""
"30","sliderTrial","html-slider-response",108,564266,"0.0-108.0",NA,"656776a7904ae00d6b91d1dd","6568aa3357a0ddeca59c067b",4,NA,NA,NA,NA,NA,NA,NA,NA,NA,NA,NA,"1351","[""SV_PolicingMSA/CO_674/IMG_8_674.jpg"",""SV_PolicingMSA/CO_674/IMG_4_674.jpg"",""SV_PolicingMSA/CO_674/IMG_13_674.jpg"",""SV_PolicingMSA/CO_674/IMG_7_674.jpg"",""SV_PolicingMSA/CO_674/IMG_0_674.jpg"",""SV_PolicingMSA/CO_674/IMG_2_674.jpg"",""SV_PolicingMSA/CO_674/IMG_10_674.jpg"",""SV_PolicingMSA/CO_674/IMG_14_674.jpg""]","4",NA,NA,NA,NA,NA,4,NA,4,"[""./rc_img/cop_condGroup_12_SafeStreets_autoscaled.png"",""./rc_img/cop_condGroup_12_CommunitySafety_autoscaled.png""]",4,NA,NA,"CO_674/","CO_674",4,2,3,2,2,2,7,"CO_674",4,1,1,2,1,3,"CO_674",4,2,1,3,3,3,1,"45","female","woman","","31419",""
"31","sliderTrial","html-slider-response",121,621843,"0.0-121.0",NA,"656776a7904ae00d6b91d1dd","6568aa3357a0ddeca59c067b",4,NA,NA,NA,NA,NA,NA,NA,NA,NA,NA,NA,"2156","[""SV_PolicingMSA/CO_368/IMG_4_368.jpg"",""SV_PolicingMSA/CO_368/IMG_7_368.jpg"",""SV_PolicingMSA/CO_368/IMG_6_368.jpg"",""SV_PolicingMSA/CO_368/IMG_1_368.jpg"",""SV_PolicingMSA/CO_368/IMG_10_368.jpg"",""SV_PolicingMSA/CO_368/IMG_9_368.jpg"",""SV_PolicingMSA/CO_368/IMG_2_368.jpg"",""SV_PolicingMSA/CO_368/IMG_11_368.jpg""]","4",NA,NA,NA,NA,NA,1,NA,4,"[""./rc_img/cop_condGroup_6_SafeStreets_autoscaled.png"",""./rc_img/cop_condGroup_6_CommunitySafety_autoscaled.png""]",4,NA,NA,"CO_368/","CO_368",1,1,2,0,1,3,2,"CO_368",1,2,3,3,1,1,"CO_368",1,1,3,1,0,1,1,"45","female","woman","","31419",""
"32","sliderTrial","html-slider-response",122,623033,"0.0-122.0",NA,"656776a7904ae00d6b91d1dd","6568aa3357a0ddeca59c067b",4,NA,NA,NA,NA,NA,NA,NA,NA,NA,NA,NA,"1186","[""SV_PolicingMSA/CO_368/IMG_4_368.jpg"",""SV_PolicingMSA/CO_368/IMG_7_368.jpg"",""SV_PolicingMSA/CO_368/IMG_6_368.jpg"",""SV_PolicingMSA/CO_368/IMG_1_368.jpg"",""SV_PolicingMSA/CO_368/IMG_10_368.jpg"",""SV_PolicingMSA/CO_368/IMG_9_368.jpg"",""SV_PolicingMSA/CO_368/IMG_2_368.jpg"",""SV_PolicingMSA/CO_368/IMG_11_368.jpg""]","4",NA,NA,NA,NA,NA,1,NA,4,"[""./rc_img/cop_condGroup_10_SafeStreets_autoscaled.png"",""./rc_img/cop_condGroup_10_CommunitySafety_autoscaled.png""]",4,NA,NA,"CO_368/","CO_368",1,1,2,0,1,3,2,"CO_368",1,2,3,3,1,1,"CO_368",1,1,3,1,0,1,1,"45","female","woman","","31419",""
"33","sliderTrial","html-slider-response",123,624108,"0.0-123.0",NA,"656776a7904ae00d6b91d1dd","6568aa3357a0ddeca59c067b",4,NA,NA,NA,NA,NA,NA,NA,NA,NA,NA,NA,"1072","[""SV_PolicingMSA/CO_368/IMG_4_368.jpg"",""SV_PolicingMSA/CO_368/IMG_7_368.jpg"",""SV_PolicingMSA/CO_368/IMG_6_368.jpg"",""SV_PolicingMSA/CO_368/IMG_1_368.jpg"",""SV_PolicingMSA/CO_368/IMG_10_368.jpg"",""SV_PolicingMSA/CO_368/IMG_9_368.jpg"",""SV_PolicingMSA/CO_368/IMG_2_368.jpg"",""SV_PolicingMSA/CO_368/IMG_11_368.jpg""]","4",NA,NA,NA,NA,NA,1,NA,4,"[""./rc_img/cop_condGroup_5_CommunitySafety_autoscaled.png"",""./rc_img/cop_condGroup_5_SafeStreets_autoscaled.png""]",4,NA,NA,"CO_368/","CO_368",1,1,2,0,1,3,2,"CO_368",1,2,3,3,1,1,"CO_368",1,1,3,1,0,1,1,"45","female","woman","","31419",""
"34","sliderTrial_attention","html-slider-response",124,634115,"0.0-124.0",NA,"656776a7904ae00d6b91d1dd","6568aa3357a0ddeca59c067b",4,NA,NA,NA,NA,NA,NA,NA,NA,NA,NA,NA,"null","[""SV_PolicingMSA/CO_368/IMG_4_368.jpg"",""SV_PolicingMSA/CO_368/IMG_7_368.jpg"",""SV_PolicingMSA/CO_368/IMG_6_368.jpg"",""SV_PolicingMSA/CO_368/IMG_1_368.jpg"",""SV_PolicingMSA/CO_368/IMG_10_368.jpg"",""SV_PolicingMSA/CO_368/IMG_9_368.jpg"",""SV_PolicingMSA/CO_368/IMG_2_368.jpg"",""SV_PolicingMSA/CO_368/IMG_11_368.jpg""]","null",NA,NA,NA,NA,NA,1,NA,4,"[""./assets/img/attnchk.png"",""./assets/img/attnchk.png""]",NA,TRUE,NA,"CO_368/","CO_368",1,1,2,0,1,3,2,"CO_368",1,2,3,3,1,1,"CO_368",1,1,3,1,0,1,1,"45","female","woman","","31419",""
"35","sliderTrial","html-slider-response",125,636655,"0.0-125.0",NA,"656776a7904ae00d6b91d1dd","6568aa3357a0ddeca59c067b",4,NA,NA,NA,NA,NA,NA,NA,NA,NA,NA,NA,"2533","[""SV_PolicingMSA/CO_368/IMG_4_368.jpg"",""SV_PolicingMSA/CO_368/IMG_7_368.jpg"",""SV_PolicingMSA/CO_368/IMG_6_368.jpg"",""SV_PolicingMSA/CO_368/IMG_1_368.jpg"",""SV_PolicingMSA/CO_368/IMG_10_368.jpg"",""SV_PolicingMSA/CO_368/IMG_9_368.jpg"",""SV_PolicingMSA/CO_368/IMG_2_368.jpg"",""SV_PolicingMSA/CO_368/IMG_11_368.jpg""]","4",NA,NA,NA,NA,NA,1,NA,4,"[""./rc_img/cop_condGroup_7_CommunitySafety_autoscaled.png"",""./rc_img/cop_condGroup_7_SafeStreets_autoscaled.png""]",4,NA,NA,"CO_368/","CO_368",1,1,2,0,1,3,2,"CO_368",1,2,3,3,1,1,"CO_368",1,1,3,1,0,1,1,"45","female","woman","","31419",""
"36","sliderTrial","html-slider-response",126,638576,"0.0-126.0",NA,"656776a7904ae00d6b91d1dd","6568aa3357a0ddeca59c067b",4,NA,NA,NA,NA,NA,NA,NA,NA,NA,NA,NA,"1916","[""SV_PolicingMSA/CO_368/IMG_4_368.jpg"",""SV_PolicingMSA/CO_368/IMG_7_368.jpg"",""SV_PolicingMSA/CO_368/IMG_6_368.jpg"",""SV_PolicingMSA/CO_368/IMG_1_368.jpg"",""SV_PolicingMSA/CO_368/IMG_10_368.jpg"",""SV_PolicingMSA/CO_368/IMG_9_368.jpg"",""SV_PolicingMSA/CO_368/IMG_2_368.jpg"",""SV_PolicingMSA/CO_368/IMG_11_368.jpg""]","4",NA,NA,NA,NA,NA,1,NA,4,"[""./rc_img/cop_condGroup_18_CommunitySafety_autoscaled.png"",""./rc_img/cop_condGroup_18_SafeStreets_autoscaled.png""]",4,NA,NA,"CO_368/","CO_368",1,1,2,0,1,3,2,"CO_368",1,2,3,3,1,1,"CO_368",1,1,3,1,0,1,1,"45","female","woman","","31419",""
"37","sliderTrial","html-slider-response",139,689144,"0.0-139.0",NA,"656776a7904ae00d6b91d1dd","6568aa3357a0ddeca59c067b",4,NA,NA,NA,NA,NA,NA,NA,NA,NA,NA,NA,"2122","[""SV_PolicingMSA/CO_252/IMG_14_252.jpg"",""SV_PolicingMSA/CO_252/IMG_3_252.jpg"",""SV_PolicingMSA/CO_252/IMG_11_252.jpg"",""SV_PolicingMSA/CO_252/IMG_6_252.jpg"",""SV_PolicingMSA/CO_252/IMG_0_252.jpg"",""SV_PolicingMSA/CO_252/IMG_8_252.jpg"",""SV_PolicingMSA/CO_252/IMG_7_252.jpg"",""SV_PolicingMSA/CO_252/IMG_12_252.jpg""]","4",NA,NA,NA,NA,NA,0,NA,4,"[""./rc_img/cop_condGroup_14_SafeStreets_autoscaled.png"",""./rc_img/cop_condGroup_14_CommunitySafety_autoscaled.png""]",4,NA,NA,"CO_252/","CO_252",0,1,2,1,2,2,1,"CO_252",0,2,2,2,1,1,"CO_252",0,1,3,2,1,1,1,"45","female","woman","","31419",""
"38","sliderTrial_attention","html-slider-response",140,699146,"0.0-140.0",NA,"656776a7904ae00d6b91d1dd","6568aa3357a0ddeca59c067b",4,NA,NA,NA,NA,NA,NA,NA,NA,NA,NA,NA,"null","[""SV_PolicingMSA/CO_252/IMG_14_252.jpg"",""SV_PolicingMSA/CO_252/IMG_3_252.jpg"",""SV_PolicingMSA/CO_252/IMG_11_252.jpg"",""SV_PolicingMSA/CO_252/IMG_6_252.jpg"",""SV_PolicingMSA/CO_252/IMG_0_252.jpg"",""SV_PolicingMSA/CO_252/IMG_8_252.jpg"",""SV_PolicingMSA/CO_252/IMG_7_252.jpg"",""SV_PolicingMSA/CO_252/IMG_12_252.jpg""]","null",NA,NA,NA,NA,NA,0,NA,4,"[""./assets/img/attnchk.png"",""./assets/img/attnchk.png""]",NA,TRUE,NA,"CO_252/","CO_252",0,1,2,1,2,2,1,"CO_252",0,2,2,2,1,1,"CO_252",0,1,3,2,1,1,1,"45","female","woman","","31419",""
"39","sliderTrial","html-slider-response",141,701325,"0.0-141.0",NA,"656776a7904ae00d6b91d1dd","6568aa3357a0ddeca59c067b",4,NA,NA,NA,NA,NA,NA,NA,NA,NA,NA,NA,"2176","[""SV_PolicingMSA/CO_252/IMG_14_252.jpg"",""SV_PolicingMSA/CO_252/IMG_3_252.jpg"",""SV_PolicingMSA/CO_252/IMG_11_252.jpg"",""SV_PolicingMSA/CO_252/IMG_6_252.jpg"",""SV_PolicingMSA/CO_252/IMG_0_252.jpg"",""SV_PolicingMSA/CO_252/IMG_8_252.jpg"",""SV_PolicingMSA/CO_252/IMG_7_252.jpg"",""SV_PolicingMSA/CO_252/IMG_12_252.jpg""]","4",NA,NA,NA,NA,NA,0,NA,4,"[""./rc_img/cop_condGroup_19_SafeStreets_autoscaled.png"",""./rc_img/cop_condGroup_19_CommunitySafety_autoscaled.png""]",4,NA,NA,"CO_252/","CO_252",0,1,2,1,2,2,1,"CO_252",0,2,2,2,1,1,"CO_252",0,1,3,2,1,1,1,"45","female","woman","","31419",""
"40","sliderTrial","html-slider-response",142,702970,"0.0-142.0",NA,"656776a7904ae00d6b91d1dd","6568aa3357a0ddeca59c067b",4,NA,NA,NA,NA,NA,NA,NA,NA,NA,NA,NA,"1639","[""SV_PolicingMSA/CO_252/IMG_14_252.jpg"",""SV_PolicingMSA/CO_252/IMG_3_252.jpg"",""SV_PolicingMSA/CO_252/IMG_11_252.jpg"",""SV_PolicingMSA/CO_252/IMG_6_252.jpg"",""SV_PolicingMSA/CO_252/IMG_0_252.jpg"",""SV_PolicingMSA/CO_252/IMG_8_252.jpg"",""SV_PolicingMSA/CO_252/IMG_7_252.jpg"",""SV_PolicingMSA/CO_252/IMG_12_252.jpg""]","4",NA,NA,NA,NA,NA,0,NA,4,"[""./rc_img/cop_condGroup_4_SafeStreets_autoscaled.png"",""./rc_img/cop_condGroup_4_CommunitySafety_autoscaled.png""]",4,NA,NA,"CO_252/","CO_252",0,1,2,1,2,2,1,"CO_252",0,2,2,2,1,1,"CO_252",0,1,3,2,1,1,1,"45","female","woman","","31419",""
"41","sliderTrial","html-slider-response",143,704690,"0.0-143.0",NA,"656776a7904ae00d6b91d1dd","6568aa3357a0ddeca59c067b",4,NA,NA,NA,NA,NA,NA,NA,NA,NA,NA,NA,"1718","[""SV_PolicingMSA/CO_252/IMG_14_252.jpg"",""SV_PolicingMSA/CO_252/IMG_3_252.jpg"",""SV_PolicingMSA/CO_252/IMG_11_252.jpg"",""SV_PolicingMSA/CO_252/IMG_6_252.jpg"",""SV_PolicingMSA/CO_252/IMG_0_252.jpg"",""SV_PolicingMSA/CO_252/IMG_8_252.jpg"",""SV_PolicingMSA/CO_252/IMG_7_252.jpg"",""SV_PolicingMSA/CO_252/IMG_12_252.jpg""]","4",NA,NA,NA,NA,NA,0,NA,4,"[""./rc_img/cop_condGroup_1_SafeStreets_autoscaled.png"",""./rc_img/cop_condGroup_1_CommunitySafety_autoscaled.png""]",4,NA,NA,"CO_252/","CO_252",0,1,2,1,2,2,1,"CO_252",0,2,2,2,1,1,"CO_252",0,1,3,2,1,1,1,"45","female","woman","","31419",""
"42","sliderTrial","html-slider-response",144,706356,"0.0-144.0",NA,"656776a7904ae00d6b91d1dd","6568aa3357a0ddeca59c067b",4,NA,NA,NA,NA,NA,NA,NA,NA,NA,NA,NA,"1664","[""SV_PolicingMSA/CO_252/IMG_14_252.jpg"",""SV_PolicingMSA/CO_252/IMG_3_252.jpg"",""SV_PolicingMSA/CO_252/IMG_11_252.jpg"",""SV_PolicingMSA/CO_252/IMG_6_252.jpg"",""SV_PolicingMSA/CO_252/IMG_0_252.jpg"",""SV_PolicingMSA/CO_252/IMG_8_252.jpg"",""SV_PolicingMSA/CO_252/IMG_7_252.jpg"",""SV_PolicingMSA/CO_252/IMG_12_252.jpg""]","4",NA,NA,NA,NA,NA,0,NA,4,"[""./rc_img/cop_condGroup_2_CommunitySafety_autoscaled.png"",""./rc_img/cop_condGroup_2_SafeStreets_autoscaled.png""]",4,NA,NA,"CO_252/","CO_252",0,1,2,1,2,2,1,"CO_252",0,2,2,2,1,1,"CO_252",0,1,3,2,1,1,1,"45","female","woman","","31419",""
