"","task","trial_type","trial_index","time_elapsed","internal_node_id","subject_id","study_id","session_id","section","width","height","webaudio","browser","browser_version","mobile","os","fullscreen","vsync_rate","webcam","microphone","rt","stimulus","response","success","timeout","failed_images","failed_audio","failed_video","block.x.x","accuracy","slider_start","choices","standardized_response","correct","num_attention_checks_correct","stim_tract","stim_tractT","block.x","P0_Q1.wealthy","P0_Q1.safe","P0_Q1.walkable","P0_Q1.traditional","P0_Q1.diverse","block_fixed","stim_tractT.x","block.y","P0_Q1.violence","P0_Q1.crime","P0_Q1.drug","P0_Q1.schools","P0_Q1.opportunities","stim_tractT.y","block.y.y","P0_Q1.movein","P0_Q1.moveout","P0_Q1.shopping","P0_Q1.walk","P0_Q1.park","P0_Q1.school","age","sex","gender","gender-self-describe","zipcode","surveyComments"
"1","sliderTrial","html-slider-response",18,136255,"0.0-18.0",NA,"656776a7904ae00d6b91d1dd","6568aa5f8a9a75b2b442982a",5,NA,NA,NA,NA,NA,NA,NA,NA,NA,NA,NA,"16213","[""SV_PolicingMSA/MI_2578/IMG_12_2578.jpg"",""SV_PolicingMSA/MI_2578/IMG_1_2578.jpg"",""SV_PolicingMSA/MI_2578/IMG_4_2578.jpg"",""SV_PolicingMSA/MI_2578/IMG_9_2578.jpg"",""SV_PolicingMSA/MI_2578/IMG_0_2578.jpg"",""SV_PolicingMSA/MI_2578/IMG_7_2578.jpg"",""SV_PolicingMSA/MI_2578/IMG_6_2578.jpg"",""SV_PolicingMSA/MI_2578/IMG_11_2578.jpg""]","5",NA,NA,NA,NA,NA,2,NA,4,"[""./rc_img/cop_condGroup_1_CommunitySafety_autoscaled.png"",""./rc_img/cop_condGroup_1_SafeStreets_autoscaled.png""]",5,NA,NA,"MI_2578","MI_2578",2,2,3,4,4,1,3,"MI_2578",2,1,1,2,2,2,"MI_2578",2,2,2,2,2,2,2,"69","male","man","","10123",""
"2","sliderTrial","html-slider-response",19,139967,"0.0-19.0",NA,"656776a7904ae00d6b91d1dd","6568aa5f8a9a75b2b442982a",5,NA,NA,NA,NA,NA,NA,NA,NA,NA,NA,NA,"3710","[""SV_PolicingMSA/MI_2578/IMG_12_2578.jpg"",""SV_PolicingMSA/MI_2578/IMG_1_2578.jpg"",""SV_PolicingMSA/MI_2578/IMG_4_2578.jpg"",""SV_PolicingMSA/MI_2578/IMG_9_2578.jpg"",""SV_PolicingMSA/MI_2578/IMG_0_2578.jpg"",""SV_PolicingMSA/MI_2578/IMG_7_2578.jpg"",""SV_PolicingMSA/MI_2578/IMG_6_2578.jpg"",""SV_PolicingMSA/MI_2578/IMG_11_2578.jpg""]","5",NA,NA,NA,NA,NA,2,NA,4,"[""./rc_img/cop_condGroup_5_SafeStreets_autoscaled.png"",""./rc_img/cop_condGroup_5_CommunitySafety_autoscaled.png""]",3,NA,NA,"MI_2578","MI_2578",2,2,3,4,4,1,3,"MI_2578",2,1,1,2,2,2,"MI_2578",2,2,2,2,2,2,2,"69","male","man","","10123",""
"3","sliderTrial","html-slider-response",20,142269,"0.0-20.0",NA,"656776a7904ae00d6b91d1dd","6568aa5f8a9a75b2b442982a",5,NA,NA,NA,NA,NA,NA,NA,NA,NA,NA,NA,"2300","[""SV_PolicingMSA/MI_2578/IMG_12_2578.jpg"",""SV_PolicingMSA/MI_2578/IMG_1_2578.jpg"",""SV_PolicingMSA/MI_2578/IMG_4_2578.jpg"",""SV_PolicingMSA/MI_2578/IMG_9_2578.jpg"",""SV_PolicingMSA/MI_2578/IMG_0_2578.jpg"",""SV_PolicingMSA/MI_2578/IMG_7_2578.jpg"",""SV_PolicingMSA/MI_2578/IMG_6_2578.jpg"",""SV_PolicingMSA/MI_2578/IMG_11_2578.jpg""]","5",NA,NA,NA,NA,NA,2,NA,4,"[""./rc_img/cop_condGroup_4_SafeStreets_autoscaled.png"",""./rc_img/cop_condGroup_4_CommunitySafety_autoscaled.png""]",3,NA,NA,"MI_2578","MI_2578",2,2,3,4,4,1,3,"MI_2578",2,1,1,2,2,2,"MI_2578",2,2,2,2,2,2,2,"69","male","man","","10123",""
"4","sliderTrial","html-slider-response",21,144925,"0.0-21.0",NA,"656776a7904ae00d6b91d1dd","6568aa5f8a9a75b2b442982a",5,NA,NA,NA,NA,NA,NA,NA,NA,NA,NA,NA,"2654","[""SV_PolicingMSA/MI_2578/IMG_12_2578.jpg"",""SV_PolicingMSA/MI_2578/IMG_1_2578.jpg"",""SV_PolicingMSA/MI_2578/IMG_4_2578.jpg"",""SV_PolicingMSA/MI_2578/IMG_9_2578.jpg"",""SV_PolicingMSA/MI_2578/IMG_0_2578.jpg"",""SV_PolicingMSA/MI_2578/IMG_7_2578.jpg"",""SV_PolicingMSA/MI_2578/IMG_6_2578.jpg"",""SV_PolicingMSA/MI_2578/IMG_11_2578.jpg""]","3",NA,NA,NA,NA,NA,2,NA,4,"[""./rc_img/cop_condGroup_16_CommunitySafety_autoscaled.png"",""./rc_img/cop_condGroup_16_SafeStreets_autoscaled.png""]",3,NA,NA,"MI_2578","MI_2578",2,2,3,4,4,1,3,"MI_2578",2,1,1,2,2,2,"MI_2578",2,2,2,2,2,2,2,"69","male","man","","10123",""
"5","sliderTrial","html-slider-response",22,148016,"0.0-22.0",NA,"656776a7904ae00d6b91d1dd","6568aa5f8a9a75b2b442982a",5,NA,NA,NA,NA,NA,NA,NA,NA,NA,NA,NA,"3090","[""SV_PolicingMSA/MI_2578/IMG_12_2578.jpg"",""SV_PolicingMSA/MI_2578/IMG_1_2578.jpg"",""SV_PolicingMSA/MI_2578/IMG_4_2578.jpg"",""SV_PolicingMSA/MI_2578/IMG_9_2578.jpg"",""SV_PolicingMSA/MI_2578/IMG_0_2578.jpg"",""SV_PolicingMSA/MI_2578/IMG_7_2578.jpg"",""SV_PolicingMSA/MI_2578/IMG_6_2578.jpg"",""SV_PolicingMSA/MI_2578/IMG_11_2578.jpg""]","5",NA,NA,NA,NA,NA,2,NA,4,"[""./rc_img/cop_condGroup_2_SafeStreets_autoscaled.png"",""./rc_img/cop_condGroup_2_CommunitySafety_autoscaled.png""]",3,NA,NA,"MI_2578","MI_2578",2,2,3,4,4,1,3,"MI_2578",2,1,1,2,2,2,"MI_2578",2,2,2,2,2,2,2,"69","male","man","","10123",""
"6","sliderTrial","html-slider-response",35,194058,"0.0-35.0",NA,"656776a7904ae00d6b91d1dd","6568aa5f8a9a75b2b442982a",5,NA,NA,NA,NA,NA,NA,NA,NA,NA,NA,NA,"3906","[""SV_PolicingMSA/MI_1804/IMG_12_1804.jpg"",""SV_PolicingMSA/MI_1804/IMG_0_1804.jpg"",""SV_PolicingMSA/MI_1804/IMG_8_1804.jpg"",""SV_PolicingMSA/MI_1804/IMG_9_1804.jpg"",""SV_PolicingMSA/MI_1804/IMG_3_1804.jpg"",""SV_PolicingMSA/MI_1804/IMG_14_1804.jpg"",""SV_PolicingMSA/MI_1804/IMG_7_1804.jpg"",""SV_PolicingMSA/MI_1804/IMG_5_1804.jpg""]","3",NA,NA,NA,NA,NA,0,NA,4,"[""./rc_img/cop_condGroup_1_CommunitySafety_autoscaled.png"",""./rc_img/cop_condGroup_1_SafeStreets_autoscaled.png""]",3,NA,NA,"MI_1804","MI_1804",0,2,2,2,2,1,1,"MI_1804",0,1,1,1,2,2,"MI_1804",0,2,2,2,2,2,2,"69","male","man","","10123",""
"7","sliderTrial","html-slider-response",36,196519,"0.0-36.0",NA,"656776a7904ae00d6b91d1dd","6568aa5f8a9a75b2b442982a",5,NA,NA,NA,NA,NA,NA,NA,NA,NA,NA,NA,"2459","[""SV_PolicingMSA/MI_1804/IMG_12_1804.jpg"",""SV_PolicingMSA/MI_1804/IMG_0_1804.jpg"",""SV_PolicingMSA/MI_1804/IMG_8_1804.jpg"",""SV_PolicingMSA/MI_1804/IMG_9_1804.jpg"",""SV_PolicingMSA/MI_1804/IMG_3_1804.jpg"",""SV_PolicingMSA/MI_1804/IMG_14_1804.jpg"",""SV_PolicingMSA/MI_1804/IMG_7_1804.jpg"",""SV_PolicingMSA/MI_1804/IMG_5_1804.jpg""]","5",NA,NA,NA,NA,NA,0,NA,4,"[""./rc_img/cop_condGroup_5_SafeStreets_autoscaled.png"",""./rc_img/cop_condGroup_5_CommunitySafety_autoscaled.png""]",3,NA,NA,"MI_1804","MI_1804",0,2,2,2,2,1,1,"MI_1804",0,1,1,1,2,2,"MI_1804",0,2,2,2,2,2,2,"69","male","man","","10123",""
"8","sliderTrial_attention","html-slider-response",37,206532,"0.0-37.0",NA,"656776a7904ae00d6b91d1dd","6568aa5f8a9a75b2b442982a",5,NA,NA,NA,NA,NA,NA,NA,NA,NA,NA,NA,"null","[""SV_PolicingMSA/MI_1804/IMG_12_1804.jpg"",""SV_PolicingMSA/MI_1804/IMG_0_1804.jpg"",""SV_PolicingMSA/MI_1804/IMG_8_1804.jpg"",""SV_PolicingMSA/MI_1804/IMG_9_1804.jpg"",""SV_PolicingMSA/MI_1804/IMG_3_1804.jpg"",""SV_PolicingMSA/MI_1804/IMG_14_1804.jpg"",""SV_PolicingMSA/MI_1804/IMG_7_1804.jpg"",""SV_PolicingMSA/MI_1804/IMG_5_1804.jpg""]","null",NA,NA,NA,NA,NA,0,NA,4,"[""./assets/img/attnchk.png"",""./assets/img/attnchk.png""]",NA,TRUE,NA,"MI_1804","MI_1804",0,2,2,2,2,1,1,"MI_1804",0,1,1,1,2,2,"MI_1804",0,2,2,2,2,2,2,"69","male","man","","10123",""
"9","sliderTrial","html-slider-response",38,209743,"0.0-38.0",NA,"656776a7904ae00d6b91d1dd","6568aa5f8a9a75b2b442982a",5,NA,NA,NA,NA,NA,NA,NA,NA,NA,NA,NA,"3201","[""SV_PolicingMSA/MI_1804/IMG_12_1804.jpg"",""SV_PolicingMSA/MI_1804/IMG_0_1804.jpg"",""SV_PolicingMSA/MI_1804/IMG_8_1804.jpg"",""SV_PolicingMSA/MI_1804/IMG_9_1804.jpg"",""SV_PolicingMSA/MI_1804/IMG_3_1804.jpg"",""SV_PolicingMSA/MI_1804/IMG_14_1804.jpg"",""SV_PolicingMSA/MI_1804/IMG_7_1804.jpg"",""SV_PolicingMSA/MI_1804/IMG_5_1804.jpg""]","5",NA,NA,NA,NA,NA,0,NA,4,"[""./rc_img/cop_condGroup_4_SafeStreets_autoscaled.png"",""./rc_img/cop_condGroup_4_CommunitySafety_autoscaled.png""]",3,NA,NA,"MI_1804","MI_1804",0,2,2,2,2,1,1,"MI_1804",0,1,1,1,2,2,"MI_1804",0,2,2,2,2,2,2,"69","male","man","","10123",""
"10","sliderTrial","html-slider-response",39,214264,"0.0-39.0",NA,"656776a7904ae00d6b91d1dd","6568aa5f8a9a75b2b442982a",5,NA,NA,NA,NA,NA,NA,NA,NA,NA,NA,NA,"4520","[""SV_PolicingMSA/MI_1804/IMG_12_1804.jpg"",""SV_PolicingMSA/MI_1804/IMG_0_1804.jpg"",""SV_PolicingMSA/MI_1804/IMG_8_1804.jpg"",""SV_PolicingMSA/MI_1804/IMG_9_1804.jpg"",""SV_PolicingMSA/MI_1804/IMG_3_1804.jpg"",""SV_PolicingMSA/MI_1804/IMG_14_1804.jpg"",""SV_PolicingMSA/MI_1804/IMG_7_1804.jpg"",""SV_PolicingMSA/MI_1804/IMG_5_1804.jpg""]","3",NA,NA,NA,NA,NA,0,NA,4,"[""./rc_img/cop_condGroup_16_CommunitySafety_autoscaled.png"",""./rc_img/cop_condGroup_16_SafeStreets_autoscaled.png""]",3,NA,NA,"MI_1804","MI_1804",0,2,2,2,2,1,1,"MI_1804",0,1,1,1,2,2,"MI_1804",0,2,2,2,2,2,2,"69","male","man","","10123",""
"11","sliderTrial","html-slider-response",40,217024,"0.0-40.0",NA,"656776a7904ae00d6b91d1dd","6568aa5f8a9a75b2b442982a",5,NA,NA,NA,NA,NA,NA,NA,NA,NA,NA,NA,"2758","[""SV_PolicingMSA/MI_1804/IMG_12_1804.jpg"",""SV_PolicingMSA/MI_1804/IMG_0_1804.jpg"",""SV_PolicingMSA/MI_1804/IMG_8_1804.jpg"",""SV_PolicingMSA/MI_1804/IMG_9_1804.jpg"",""SV_PolicingMSA/MI_1804/IMG_3_1804.jpg"",""SV_PolicingMSA/MI_1804/IMG_14_1804.jpg"",""SV_PolicingMSA/MI_1804/IMG_7_1804.jpg"",""SV_PolicingMSA/MI_1804/IMG_5_1804.jpg""]","5",NA,NA,NA,NA,NA,0,NA,4,"[""./rc_img/cop_condGroup_2_SafeStreets_autoscaled.png"",""./rc_img/cop_condGroup_2_CommunitySafety_autoscaled.png""]",3,NA,NA,"MI_1804","MI_1804",0,2,2,2,2,1,1,"MI_1804",0,1,1,1,2,2,"MI_1804",0,2,2,2,2,2,2,"69","male","man","","10123",""
"12","sliderTrial","html-slider-response",53,248293,"0.0-53.0",NA,"656776a7904ae00d6b91d1dd","6568aa5f8a9a75b2b442982a",5,NA,NA,NA,NA,NA,NA,NA,NA,NA,NA,NA,"4752","[""SV_PolicingMSA/MI_2582/IMG_11_2582.jpg"",""SV_PolicingMSA/MI_2582/IMG_4_2582.jpg"",""SV_PolicingMSA/MI_2582/IMG_3_2582.jpg"",""SV_PolicingMSA/MI_2582/IMG_1_2582.jpg"",""SV_PolicingMSA/MI_2582/IMG_9_2582.jpg"",""SV_PolicingMSA/MI_2582/IMG_10_2582.jpg"",""SV_PolicingMSA/MI_2582/IMG_7_2582.jpg"",""SV_PolicingMSA/MI_2582/IMG_5_2582.jpg""]","5",NA,NA,NA,NA,NA,3,NA,4,"[""./rc_img/cop_condGroup_6_SafeStreets_autoscaled.png"",""./rc_img/cop_condGroup_6_CommunitySafety_autoscaled.png""]",3,NA,NA,"MI_2582","MI_2582",3,2,2,2,2,2,5,"MI_2582",3,2,2,2,2,2,"MI_2582",3,2,2,2,2,2,2,"69","male","man","","10123",""
"13","sliderTrial","html-slider-response",54,250085,"0.0-54.0",NA,"656776a7904ae00d6b91d1dd","6568aa5f8a9a75b2b442982a",5,NA,NA,NA,NA,NA,NA,NA,NA,NA,NA,NA,"1791","[""SV_PolicingMSA/MI_2582/IMG_11_2582.jpg"",""SV_PolicingMSA/MI_2582/IMG_4_2582.jpg"",""SV_PolicingMSA/MI_2582/IMG_3_2582.jpg"",""SV_PolicingMSA/MI_2582/IMG_1_2582.jpg"",""SV_PolicingMSA/MI_2582/IMG_9_2582.jpg"",""SV_PolicingMSA/MI_2582/IMG_10_2582.jpg"",""SV_PolicingMSA/MI_2582/IMG_7_2582.jpg"",""SV_PolicingMSA/MI_2582/IMG_5_2582.jpg""]","5",NA,NA,NA,NA,NA,3,NA,4,"[""./rc_img/cop_condGroup_18_SafeStreets_autoscaled.png"",""./rc_img/cop_condGroup_18_CommunitySafety_autoscaled.png""]",3,NA,NA,"MI_2582","MI_2582",3,2,2,2,2,2,5,"MI_2582",3,2,2,2,2,2,"MI_2582",3,2,2,2,2,2,2,"69","male","man","","10123",""
"14","sliderTrial","html-slider-response",55,252020,"0.0-55.0",NA,"656776a7904ae00d6b91d1dd","6568aa5f8a9a75b2b442982a",5,NA,NA,NA,NA,NA,NA,NA,NA,NA,NA,NA,"1933","[""SV_PolicingMSA/MI_2582/IMG_11_2582.jpg"",""SV_PolicingMSA/MI_2582/IMG_4_2582.jpg"",""SV_PolicingMSA/MI_2582/IMG_3_2582.jpg"",""SV_PolicingMSA/MI_2582/IMG_1_2582.jpg"",""SV_PolicingMSA/MI_2582/IMG_9_2582.jpg"",""SV_PolicingMSA/MI_2582/IMG_10_2582.jpg"",""SV_PolicingMSA/MI_2582/IMG_7_2582.jpg"",""SV_PolicingMSA/MI_2582/IMG_5_2582.jpg""]","5",NA,NA,NA,NA,NA,3,NA,4,"[""./rc_img/cop_condGroup_10_SafeStreets_autoscaled.png"",""./rc_img/cop_condGroup_10_CommunitySafety_autoscaled.png""]",3,NA,NA,"MI_2582","MI_2582",3,2,2,2,2,2,5,"MI_2582",3,2,2,2,2,2,"MI_2582",3,2,2,2,2,2,2,"69","male","man","","10123",""
"15","sliderTrial","html-slider-response",56,255163,"0.0-56.0",NA,"656776a7904ae00d6b91d1dd","6568aa5f8a9a75b2b442982a",5,NA,NA,NA,NA,NA,NA,NA,NA,NA,NA,NA,"3140","[""SV_PolicingMSA/MI_2582/IMG_11_2582.jpg"",""SV_PolicingMSA/MI_2582/IMG_4_2582.jpg"",""SV_PolicingMSA/MI_2582/IMG_3_2582.jpg"",""SV_PolicingMSA/MI_2582/IMG_1_2582.jpg"",""SV_PolicingMSA/MI_2582/IMG_9_2582.jpg"",""SV_PolicingMSA/MI_2582/IMG_10_2582.jpg"",""SV_PolicingMSA/MI_2582/IMG_7_2582.jpg"",""SV_PolicingMSA/MI_2582/IMG_5_2582.jpg""]","5",NA,NA,NA,NA,NA,3,NA,4,"[""./rc_img/cop_condGroup_15_SafeStreets_autoscaled.png"",""./rc_img/cop_condGroup_15_CommunitySafety_autoscaled.png""]",3,NA,NA,"MI_2582","MI_2582",3,2,2,2,2,2,5,"MI_2582",3,2,2,2,2,2,"MI_2582",3,2,2,2,2,2,2,"69","male","man","","10123",""
"16","sliderTrial","html-slider-response",57,256919,"0.0-57.0",NA,"656776a7904ae00d6b91d1dd","6568aa5f8a9a75b2b442982a",5,NA,NA,NA,NA,NA,NA,NA,NA,NA,NA,NA,"1755","[""SV_PolicingMSA/MI_2582/IMG_11_2582.jpg"",""SV_PolicingMSA/MI_2582/IMG_4_2582.jpg"",""SV_PolicingMSA/MI_2582/IMG_3_2582.jpg"",""SV_PolicingMSA/MI_2582/IMG_1_2582.jpg"",""SV_PolicingMSA/MI_2582/IMG_9_2582.jpg"",""SV_PolicingMSA/MI_2582/IMG_10_2582.jpg"",""SV_PolicingMSA/MI_2582/IMG_7_2582.jpg"",""SV_PolicingMSA/MI_2582/IMG_5_2582.jpg""]","5",NA,NA,NA,NA,NA,3,NA,4,"[""./rc_img/cop_condGroup_8_SafeStreets_autoscaled.png"",""./rc_img/cop_condGroup_8_CommunitySafety_autoscaled.png""]",3,NA,NA,"MI_2582","MI_2582",3,2,2,2,2,2,5,"MI_2582",3,2,2,2,2,2,"MI_2582",3,2,2,2,2,2,2,"69","male","man","","10123",""
"17","sliderTrial","html-slider-response",70,287242,"0.0-70.0",NA,"656776a7904ae00d6b91d1dd","6568aa5f8a9a75b2b442982a",5,NA,NA,NA,NA,NA,NA,NA,NA,NA,NA,NA,"5009","[""SV_PolicingMSA/MI_2715/IMG_5_2715.jpg"",""SV_PolicingMSA/MI_2715/IMG_12_2715.jpg"",""SV_PolicingMSA/MI_2715/IMG_10_2715.jpg"",""SV_PolicingMSA/MI_2715/IMG_8_2715.jpg"",""SV_PolicingMSA/MI_2715/IMG_6_2715.jpg"",""SV_PolicingMSA/MI_2715/IMG_4_2715.jpg"",""SV_PolicingMSA/MI_2715/IMG_3_2715.jpg"",""SV_PolicingMSA/MI_2715/IMG_0_2715.jpg""]","3",NA,NA,NA,NA,NA,4,NA,4,"[""./rc_img/cop_condGroup_9_CommunitySafety_autoscaled.png"",""./rc_img/cop_condGroup_9_SafeStreets_autoscaled.png""]",3,NA,NA,"MI_2715","MI_2715",4,2,2,2,2,2,7,"MI_2715",4,2,2,2,2,2,"MI_2715",4,2,2,2,2,2,2,"69","male","man","","10123",""
"18","sliderTrial","html-slider-response",71,289357,"0.0-71.0",NA,"656776a7904ae00d6b91d1dd","6568aa5f8a9a75b2b442982a",5,NA,NA,NA,NA,NA,NA,NA,NA,NA,NA,NA,"2114","[""SV_PolicingMSA/MI_2715/IMG_5_2715.jpg"",""SV_PolicingMSA/MI_2715/IMG_12_2715.jpg"",""SV_PolicingMSA/MI_2715/IMG_10_2715.jpg"",""SV_PolicingMSA/MI_2715/IMG_8_2715.jpg"",""SV_PolicingMSA/MI_2715/IMG_6_2715.jpg"",""SV_PolicingMSA/MI_2715/IMG_4_2715.jpg"",""SV_PolicingMSA/MI_2715/IMG_3_2715.jpg"",""SV_PolicingMSA/MI_2715/IMG_0_2715.jpg""]","3",NA,NA,NA,NA,NA,4,NA,4,"[""./rc_img/cop_condGroup_11_CommunitySafety_autoscaled.png"",""./rc_img/cop_condGroup_11_SafeStreets_autoscaled.png""]",3,NA,NA,"MI_2715","MI_2715",4,2,2,2,2,2,7,"MI_2715",4,2,2,2,2,2,"MI_2715",4,2,2,2,2,2,2,"69","male","man","","10123",""
"19","sliderTrial","html-slider-response",72,292965,"0.0-72.0",NA,"656776a7904ae00d6b91d1dd","6568aa5f8a9a75b2b442982a",5,NA,NA,NA,NA,NA,NA,NA,NA,NA,NA,NA,"3605","[""SV_PolicingMSA/MI_2715/IMG_5_2715.jpg"",""SV_PolicingMSA/MI_2715/IMG_12_2715.jpg"",""SV_PolicingMSA/MI_2715/IMG_10_2715.jpg"",""SV_PolicingMSA/MI_2715/IMG_8_2715.jpg"",""SV_PolicingMSA/MI_2715/IMG_6_2715.jpg"",""SV_PolicingMSA/MI_2715/IMG_4_2715.jpg"",""SV_PolicingMSA/MI_2715/IMG_3_2715.jpg"",""SV_PolicingMSA/MI_2715/IMG_0_2715.jpg""]","5",NA,NA,NA,NA,NA,4,NA,4,"[""./rc_img/cop_condGroup_12_SafeStreets_autoscaled.png"",""./rc_img/cop_condGroup_12_CommunitySafety_autoscaled.png""]",3,NA,NA,"MI_2715","MI_2715",4,2,2,2,2,2,7,"MI_2715",4,2,2,2,2,2,"MI_2715",4,2,2,2,2,2,2,"69","male","man","","10123",""
"20","sliderTrial","html-slider-response",73,295605,"0.0-73.0",NA,"656776a7904ae00d6b91d1dd","6568aa5f8a9a75b2b442982a",5,NA,NA,NA,NA,NA,NA,NA,NA,NA,NA,NA,"2638","[""SV_PolicingMSA/MI_2715/IMG_5_2715.jpg"",""SV_PolicingMSA/MI_2715/IMG_12_2715.jpg"",""SV_PolicingMSA/MI_2715/IMG_10_2715.jpg"",""SV_PolicingMSA/MI_2715/IMG_8_2715.jpg"",""SV_PolicingMSA/MI_2715/IMG_6_2715.jpg"",""SV_PolicingMSA/MI_2715/IMG_4_2715.jpg"",""SV_PolicingMSA/MI_2715/IMG_3_2715.jpg"",""SV_PolicingMSA/MI_2715/IMG_0_2715.jpg""]","3",NA,NA,NA,NA,NA,4,NA,4,"[""./rc_img/cop_condGroup_14_CommunitySafety_autoscaled.png"",""./rc_img/cop_condGroup_14_SafeStreets_autoscaled.png""]",3,NA,NA,"MI_2715","MI_2715",4,2,2,2,2,2,7,"MI_2715",4,2,2,2,2,2,"MI_2715",4,2,2,2,2,2,2,"69","male","man","","10123",""
"21","sliderTrial","html-slider-response",74,297796,"0.0-74.0",NA,"656776a7904ae00d6b91d1dd","6568aa5f8a9a75b2b442982a",5,NA,NA,NA,NA,NA,NA,NA,NA,NA,NA,NA,"2189","[""SV_PolicingMSA/MI_2715/IMG_5_2715.jpg"",""SV_PolicingMSA/MI_2715/IMG_12_2715.jpg"",""SV_PolicingMSA/MI_2715/IMG_10_2715.jpg"",""SV_PolicingMSA/MI_2715/IMG_8_2715.jpg"",""SV_PolicingMSA/MI_2715/IMG_6_2715.jpg"",""SV_PolicingMSA/MI_2715/IMG_4_2715.jpg"",""SV_PolicingMSA/MI_2715/IMG_3_2715.jpg"",""SV_PolicingMSA/MI_2715/IMG_0_2715.jpg""]","3",NA,NA,NA,NA,NA,4,NA,4,"[""./rc_img/cop_condGroup_3_CommunitySafety_autoscaled.png"",""./rc_img/cop_condGroup_3_SafeStreets_autoscaled.png""]",3,NA,NA,"MI_2715","MI_2715",4,2,2,2,2,2,7,"MI_2715",4,2,2,2,2,2,"MI_2715",4,2,2,2,2,2,2,"69","male","man","","10123",""
"22","sliderTrial","html-slider-response",88,349136,"0.0-88.0",NA,"656776a7904ae00d6b91d1dd","6568aa5f8a9a75b2b442982a",5,NA,NA,NA,NA,NA,NA,NA,NA,NA,NA,NA,"2958","[""SV_PolicingMSA/MI_1808/IMG_10_1808.jpg"",""SV_PolicingMSA/MI_1808/IMG_4_1808.jpg"",""SV_PolicingMSA/MI_1808/IMG_0_1808.jpg"",""SV_PolicingMSA/MI_1808/IMG_5_1808.jpg"",""SV_PolicingMSA/MI_1808/IMG_7_1808.jpg"",""SV_PolicingMSA/MI_1808/IMG_3_1808.jpg"",""SV_PolicingMSA/MI_1808/IMG_13_1808.jpg"",""SV_PolicingMSA/MI_1808/IMG_14_1808.jpg""]","5",NA,NA,NA,NA,NA,1,NA,4,"[""./rc_img/cop_condGroup_6_SafeStreets_autoscaled.png"",""./rc_img/cop_condGroup_6_CommunitySafety_autoscaled.png""]",3,NA,NA,"MI_1808","MI_1808",1,2,2,2,2,2,2,"MI_1808",1,2,2,2,2,2,"MI_1808",1,2,2,2,2,2,2,"69","male","man","","10123",""
"23","sliderTrial","html-slider-response",89,351551,"0.0-89.0",NA,"656776a7904ae00d6b91d1dd","6568aa5f8a9a75b2b442982a",5,NA,NA,NA,NA,NA,NA,NA,NA,NA,NA,NA,"2413","[""SV_PolicingMSA/MI_1808/IMG_10_1808.jpg"",""SV_PolicingMSA/MI_1808/IMG_4_1808.jpg"",""SV_PolicingMSA/MI_1808/IMG_0_1808.jpg"",""SV_PolicingMSA/MI_1808/IMG_5_1808.jpg"",""SV_PolicingMSA/MI_1808/IMG_7_1808.jpg"",""SV_PolicingMSA/MI_1808/IMG_3_1808.jpg"",""SV_PolicingMSA/MI_1808/IMG_13_1808.jpg"",""SV_PolicingMSA/MI_1808/IMG_14_1808.jpg""]","5",NA,NA,NA,NA,NA,1,NA,4,"[""./rc_img/cop_condGroup_18_SafeStreets_autoscaled.png"",""./rc_img/cop_condGroup_18_CommunitySafety_autoscaled.png""]",3,NA,NA,"MI_1808","MI_1808",1,2,2,2,2,2,2,"MI_1808",1,2,2,2,2,2,"MI_1808",1,2,2,2,2,2,2,"69","male","man","","10123",""
"24","sliderTrial_attention","html-slider-response",90,361564,"0.0-90.0",NA,"656776a7904ae00d6b91d1dd","6568aa5f8a9a75b2b442982a",5,NA,NA,NA,NA,NA,NA,NA,NA,NA,NA,NA,"null","[""SV_PolicingMSA/MI_1808/IMG_10_1808.jpg"",""SV_PolicingMSA/MI_1808/IMG_4_1808.jpg"",""SV_PolicingMSA/MI_1808/IMG_0_1808.jpg"",""SV_PolicingMSA/MI_1808/IMG_5_1808.jpg"",""SV_PolicingMSA/MI_1808/IMG_7_1808.jpg"",""SV_PolicingMSA/MI_1808/IMG_3_1808.jpg"",""SV_PolicingMSA/MI_1808/IMG_13_1808.jpg"",""SV_PolicingMSA/MI_1808/IMG_14_1808.jpg""]","null",NA,NA,NA,NA,NA,1,NA,4,"[""./assets/img/attnchk.png"",""./assets/img/attnchk.png""]",NA,TRUE,NA,"MI_1808","MI_1808",1,2,2,2,2,2,2,"MI_1808",1,2,2,2,2,2,"MI_1808",1,2,2,2,2,2,2,"69","male","man","","10123",""
"25","sliderTrial","html-slider-response",91,364600,"0.0-91.0",NA,"656776a7904ae00d6b91d1dd","6568aa5f8a9a75b2b442982a",5,NA,NA,NA,NA,NA,NA,NA,NA,NA,NA,NA,"3030","[""SV_PolicingMSA/MI_1808/IMG_10_1808.jpg"",""SV_PolicingMSA/MI_1808/IMG_4_1808.jpg"",""SV_PolicingMSA/MI_1808/IMG_0_1808.jpg"",""SV_PolicingMSA/MI_1808/IMG_5_1808.jpg"",""SV_PolicingMSA/MI_1808/IMG_7_1808.jpg"",""SV_PolicingMSA/MI_1808/IMG_3_1808.jpg"",""SV_PolicingMSA/MI_1808/IMG_13_1808.jpg"",""SV_PolicingMSA/MI_1808/IMG_14_1808.jpg""]","5",NA,NA,NA,NA,NA,1,NA,4,"[""./rc_img/cop_condGroup_10_SafeStreets_autoscaled.png"",""./rc_img/cop_condGroup_10_CommunitySafety_autoscaled.png""]",3,NA,NA,"MI_1808","MI_1808",1,2,2,2,2,2,2,"MI_1808",1,2,2,2,2,2,"MI_1808",1,2,2,2,2,2,2,"69","male","man","","10123",""
"26","sliderTrial","html-slider-response",92,366250,"0.0-92.0",NA,"656776a7904ae00d6b91d1dd","6568aa5f8a9a75b2b442982a",5,NA,NA,NA,NA,NA,NA,NA,NA,NA,NA,NA,"1648","[""SV_PolicingMSA/MI_1808/IMG_10_1808.jpg"",""SV_PolicingMSA/MI_1808/IMG_4_1808.jpg"",""SV_PolicingMSA/MI_1808/IMG_0_1808.jpg"",""SV_PolicingMSA/MI_1808/IMG_5_1808.jpg"",""SV_PolicingMSA/MI_1808/IMG_7_1808.jpg"",""SV_PolicingMSA/MI_1808/IMG_3_1808.jpg"",""SV_PolicingMSA/MI_1808/IMG_13_1808.jpg"",""SV_PolicingMSA/MI_1808/IMG_14_1808.jpg""]","5",NA,NA,NA,NA,NA,1,NA,4,"[""./rc_img/cop_condGroup_15_SafeStreets_autoscaled.png"",""./rc_img/cop_condGroup_15_CommunitySafety_autoscaled.png""]",3,NA,NA,"MI_1808","MI_1808",1,2,2,2,2,2,2,"MI_1808",1,2,2,2,2,2,"MI_1808",1,2,2,2,2,2,2,"69","male","man","","10123",""
"27","sliderTrial","html-slider-response",93,369033,"0.0-93.0",NA,"656776a7904ae00d6b91d1dd","6568aa5f8a9a75b2b442982a",5,NA,NA,NA,NA,NA,NA,NA,NA,NA,NA,NA,"2781","[""SV_PolicingMSA/MI_1808/IMG_10_1808.jpg"",""SV_PolicingMSA/MI_1808/IMG_4_1808.jpg"",""SV_PolicingMSA/MI_1808/IMG_0_1808.jpg"",""SV_PolicingMSA/MI_1808/IMG_5_1808.jpg"",""SV_PolicingMSA/MI_1808/IMG_7_1808.jpg"",""SV_PolicingMSA/MI_1808/IMG_3_1808.jpg"",""SV_PolicingMSA/MI_1808/IMG_13_1808.jpg"",""SV_PolicingMSA/MI_1808/IMG_14_1808.jpg""]","5",NA,NA,NA,NA,NA,1,NA,4,"[""./rc_img/cop_condGroup_8_SafeStreets_autoscaled.png"",""./rc_img/cop_condGroup_8_CommunitySafety_autoscaled.png""]",3,NA,NA,"MI_1808","MI_1808",1,2,2,2,2,2,2,"MI_1808",1,2,2,2,2,2,"MI_1808",1,2,2,2,2,2,2,"69","male","man","","10123",""
"28","sliderTrial","html-slider-response",106,398382,"0.0-106.0",NA,"656776a7904ae00d6b91d1dd","6568aa5f8a9a75b2b442982a",5,NA,NA,NA,NA,NA,NA,NA,NA,NA,NA,NA,"2872","[""SV_PolicingMSA/MI_1868/IMG_10_1868.jpg"",""SV_PolicingMSA/MI_1868/IMG_4_1868.jpg"",""SV_PolicingMSA/MI_1868/IMG_13_1868.jpg"",""SV_PolicingMSA/MI_1868/IMG_3_1868.jpg"",""SV_PolicingMSA/MI_1868/IMG_1_1868.jpg"",""SV_PolicingMSA/MI_1868/IMG_11_1868.jpg"",""SV_PolicingMSA/MI_1868/IMG_0_1868.jpg"",""SV_PolicingMSA/MI_1868/IMG_8_1868.jpg""]","3",NA,NA,NA,NA,NA,2,NA,4,"[""./rc_img/cop_condGroup_9_CommunitySafety_autoscaled.png"",""./rc_img/cop_condGroup_9_SafeStreets_autoscaled.png""]",3,NA,NA,"MI_1868","MI_1868",2,2,2,2,2,2,4,"MI_1868",2,2,2,2,2,2,"MI_1868",2,2,2,2,2,2,2,"69","male","man","","10123",""
"29","sliderTrial","html-slider-response",107,400536,"0.0-107.0",NA,"656776a7904ae00d6b91d1dd","6568aa5f8a9a75b2b442982a",5,NA,NA,NA,NA,NA,NA,NA,NA,NA,NA,NA,"2153","[""SV_PolicingMSA/MI_1868/IMG_10_1868.jpg"",""SV_PolicingMSA/MI_1868/IMG_4_1868.jpg"",""SV_PolicingMSA/MI_1868/IMG_13_1868.jpg"",""SV_PolicingMSA/MI_1868/IMG_3_1868.jpg"",""SV_PolicingMSA/MI_1868/IMG_1_1868.jpg"",""SV_PolicingMSA/MI_1868/IMG_11_1868.jpg"",""SV_PolicingMSA/MI_1868/IMG_0_1868.jpg"",""SV_PolicingMSA/MI_1868/IMG_8_1868.jpg""]","3",NA,NA,NA,NA,NA,2,NA,4,"[""./rc_img/cop_condGroup_11_CommunitySafety_autoscaled.png"",""./rc_img/cop_condGroup_11_SafeStreets_autoscaled.png""]",3,NA,NA,"MI_1868","MI_1868",2,2,2,2,2,2,4,"MI_1868",2,2,2,2,2,2,"MI_1868",2,2,2,2,2,2,2,"69","male","man","","10123",""
"30","sliderTrial","html-slider-response",108,402867,"0.0-108.0",NA,"656776a7904ae00d6b91d1dd","6568aa5f8a9a75b2b442982a",5,NA,NA,NA,NA,NA,NA,NA,NA,NA,NA,NA,"2330","[""SV_PolicingMSA/MI_1868/IMG_10_1868.jpg"",""SV_PolicingMSA/MI_1868/IMG_4_1868.jpg"",""SV_PolicingMSA/MI_1868/IMG_13_1868.jpg"",""SV_PolicingMSA/MI_1868/IMG_3_1868.jpg"",""SV_PolicingMSA/MI_1868/IMG_1_1868.jpg"",""SV_PolicingMSA/MI_1868/IMG_11_1868.jpg"",""SV_PolicingMSA/MI_1868/IMG_0_1868.jpg"",""SV_PolicingMSA/MI_1868/IMG_8_1868.jpg""]","5",NA,NA,NA,NA,NA,2,NA,4,"[""./rc_img/cop_condGroup_12_SafeStreets_autoscaled.png"",""./rc_img/cop_condGroup_12_CommunitySafety_autoscaled.png""]",3,NA,NA,"MI_1868","MI_1868",2,2,2,2,2,2,4,"MI_1868",2,2,2,2,2,2,"MI_1868",2,2,2,2,2,2,2,"69","male","man","","10123",""
"31","sliderTrial","html-slider-response",109,404862,"0.0-109.0",NA,"656776a7904ae00d6b91d1dd","6568aa5f8a9a75b2b442982a",5,NA,NA,NA,NA,NA,NA,NA,NA,NA,NA,NA,"1993","[""SV_PolicingMSA/MI_1868/IMG_10_1868.jpg"",""SV_PolicingMSA/MI_1868/IMG_4_1868.jpg"",""SV_PolicingMSA/MI_1868/IMG_13_1868.jpg"",""SV_PolicingMSA/MI_1868/IMG_3_1868.jpg"",""SV_PolicingMSA/MI_1868/IMG_1_1868.jpg"",""SV_PolicingMSA/MI_1868/IMG_11_1868.jpg"",""SV_PolicingMSA/MI_1868/IMG_0_1868.jpg"",""SV_PolicingMSA/MI_1868/IMG_8_1868.jpg""]","3",NA,NA,NA,NA,NA,2,NA,4,"[""./rc_img/cop_condGroup_14_CommunitySafety_autoscaled.png"",""./rc_img/cop_condGroup_14_SafeStreets_autoscaled.png""]",3,NA,NA,"MI_1868","MI_1868",2,2,2,2,2,2,4,"MI_1868",2,2,2,2,2,2,"MI_1868",2,2,2,2,2,2,2,"69","male","man","","10123",""
"32","sliderTrial","html-slider-response",110,407682,"0.0-110.0",NA,"656776a7904ae00d6b91d1dd","6568aa5f8a9a75b2b442982a",5,NA,NA,NA,NA,NA,NA,NA,NA,NA,NA,NA,"2818","[""SV_PolicingMSA/MI_1868/IMG_10_1868.jpg"",""SV_PolicingMSA/MI_1868/IMG_4_1868.jpg"",""SV_PolicingMSA/MI_1868/IMG_13_1868.jpg"",""SV_PolicingMSA/MI_1868/IMG_3_1868.jpg"",""SV_PolicingMSA/MI_1868/IMG_1_1868.jpg"",""SV_PolicingMSA/MI_1868/IMG_11_1868.jpg"",""SV_PolicingMSA/MI_1868/IMG_0_1868.jpg"",""SV_PolicingMSA/MI_1868/IMG_8_1868.jpg""]","3",NA,NA,NA,NA,NA,2,NA,4,"[""./rc_img/cop_condGroup_3_CommunitySafety_autoscaled.png"",""./rc_img/cop_condGroup_3_SafeStreets_autoscaled.png""]",3,NA,NA,"MI_1868","MI_1868",2,2,2,2,2,2,4,"MI_1868",2,2,2,2,2,2,"MI_1868",2,2,2,2,2,2,2,"69","male","man","","10123",""
"33","sliderTrial","html-slider-response",123,473782,"0.0-123.0",NA,"656776a7904ae00d6b91d1dd","6568aa5f8a9a75b2b442982a",5,NA,NA,NA,NA,NA,NA,NA,NA,NA,NA,NA,"6727","[""SV_PolicingMSA/MI_1822/IMG_7_1822.jpg"",""SV_PolicingMSA/MI_1822/IMG_9_1822.jpg"",""SV_PolicingMSA/MI_1822/IMG_10_1822.jpg"",""SV_PolicingMSA/MI_1822/IMG_3_1822.jpg"",""SV_PolicingMSA/MI_1822/IMG_6_1822.jpg"",""SV_PolicingMSA/MI_1822/IMG_0_1822.jpg"",""SV_PolicingMSA/MI_1822/IMG_4_1822.jpg"",""SV_PolicingMSA/MI_1822/IMG_5_1822.jpg""]","5",NA,NA,NA,NA,NA,3,NA,4,"[""./rc_img/cop_condGroup_17_SafeStreets_autoscaled.png"",""./rc_img/cop_condGroup_17_CommunitySafety_autoscaled.png""]",3,NA,NA,"MI_1822","MI_1822",3,2,2,2,2,2,6,"MI_1822",3,2,2,2,2,2,"MI_1822",3,2,2,2,2,2,2,"69","male","man","","10123",""
"34","sliderTrial","html-slider-response",124,484044,"0.0-124.0",NA,"656776a7904ae00d6b91d1dd","6568aa5f8a9a75b2b442982a",5,NA,NA,NA,NA,NA,NA,NA,NA,NA,NA,NA,"10261","[""SV_PolicingMSA/MI_1822/IMG_7_1822.jpg"",""SV_PolicingMSA/MI_1822/IMG_9_1822.jpg"",""SV_PolicingMSA/MI_1822/IMG_10_1822.jpg"",""SV_PolicingMSA/MI_1822/IMG_3_1822.jpg"",""SV_PolicingMSA/MI_1822/IMG_6_1822.jpg"",""SV_PolicingMSA/MI_1822/IMG_0_1822.jpg"",""SV_PolicingMSA/MI_1822/IMG_4_1822.jpg"",""SV_PolicingMSA/MI_1822/IMG_5_1822.jpg""]","3",NA,NA,NA,NA,NA,3,NA,4,"[""./rc_img/cop_condGroup_20_CommunitySafety_autoscaled.png"",""./rc_img/cop_condGroup_20_SafeStreets_autoscaled.png""]",3,NA,NA,"MI_1822","MI_1822",3,2,2,2,2,2,6,"MI_1822",3,2,2,2,2,2,"MI_1822",3,2,2,2,2,2,2,"69","male","man","","10123",""
"35","sliderTrial","html-slider-response",125,486384,"0.0-125.0",NA,"656776a7904ae00d6b91d1dd","6568aa5f8a9a75b2b442982a",5,NA,NA,NA,NA,NA,NA,NA,NA,NA,NA,NA,"2338","[""SV_PolicingMSA/MI_1822/IMG_7_1822.jpg"",""SV_PolicingMSA/MI_1822/IMG_9_1822.jpg"",""SV_PolicingMSA/MI_1822/IMG_10_1822.jpg"",""SV_PolicingMSA/MI_1822/IMG_3_1822.jpg"",""SV_PolicingMSA/MI_1822/IMG_6_1822.jpg"",""SV_PolicingMSA/MI_1822/IMG_0_1822.jpg"",""SV_PolicingMSA/MI_1822/IMG_4_1822.jpg"",""SV_PolicingMSA/MI_1822/IMG_5_1822.jpg""]","5",NA,NA,NA,NA,NA,3,NA,4,"[""./rc_img/cop_condGroup_13_SafeStreets_autoscaled.png"",""./rc_img/cop_condGroup_13_CommunitySafety_autoscaled.png""]",3,NA,NA,"MI_1822","MI_1822",3,2,2,2,2,2,6,"MI_1822",3,2,2,2,2,2,"MI_1822",3,2,2,2,2,2,2,"69","male","man","","10123",""
"36","sliderTrial","html-slider-response",126,488702,"0.0-126.0",NA,"656776a7904ae00d6b91d1dd","6568aa5f8a9a75b2b442982a",5,NA,NA,NA,NA,NA,NA,NA,NA,NA,NA,NA,"2316","[""SV_PolicingMSA/MI_1822/IMG_7_1822.jpg"",""SV_PolicingMSA/MI_1822/IMG_9_1822.jpg"",""SV_PolicingMSA/MI_1822/IMG_10_1822.jpg"",""SV_PolicingMSA/MI_1822/IMG_3_1822.jpg"",""SV_PolicingMSA/MI_1822/IMG_6_1822.jpg"",""SV_PolicingMSA/MI_1822/IMG_0_1822.jpg"",""SV_PolicingMSA/MI_1822/IMG_4_1822.jpg"",""SV_PolicingMSA/MI_1822/IMG_5_1822.jpg""]","3",NA,NA,NA,NA,NA,3,NA,4,"[""./rc_img/cop_condGroup_19_CommunitySafety_autoscaled.png"",""./rc_img/cop_condGroup_19_SafeStreets_autoscaled.png""]",3,NA,NA,"MI_1822","MI_1822",3,2,2,2,2,2,6,"MI_1822",3,2,2,2,2,2,"MI_1822",3,2,2,2,2,2,2,"69","male","man","","10123",""
"37","sliderTrial","html-slider-response",127,490532,"0.0-127.0",NA,"656776a7904ae00d6b91d1dd","6568aa5f8a9a75b2b442982a",5,NA,NA,NA,NA,NA,NA,NA,NA,NA,NA,NA,"1828","[""SV_PolicingMSA/MI_1822/IMG_7_1822.jpg"",""SV_PolicingMSA/MI_1822/IMG_9_1822.jpg"",""SV_PolicingMSA/MI_1822/IMG_10_1822.jpg"",""SV_PolicingMSA/MI_1822/IMG_3_1822.jpg"",""SV_PolicingMSA/MI_1822/IMG_6_1822.jpg"",""SV_PolicingMSA/MI_1822/IMG_0_1822.jpg"",""SV_PolicingMSA/MI_1822/IMG_4_1822.jpg"",""SV_PolicingMSA/MI_1822/IMG_5_1822.jpg""]","5",NA,NA,NA,NA,NA,3,NA,4,"[""./rc_img/cop_condGroup_7_SafeStreets_autoscaled.png"",""./rc_img/cop_condGroup_7_CommunitySafety_autoscaled.png""]",3,NA,NA,"MI_1822","MI_1822",3,2,2,2,2,2,6,"MI_1822",3,2,2,2,2,2,"MI_1822",3,2,2,2,2,2,2,"69","male","man","","10123",""
"38","sliderTrial","html-slider-response",140,524718,"0.0-140.0",NA,"656776a7904ae00d6b91d1dd","6568aa5f8a9a75b2b442982a",5,NA,NA,NA,NA,NA,NA,NA,NA,NA,NA,NA,"3245","[""SV_PolicingMSA/MI_1103/IMG_5_1103.jpg"",""SV_PolicingMSA/MI_1103/IMG_9_1103.jpg"",""SV_PolicingMSA/MI_1103/IMG_13_1103.jpg"",""SV_PolicingMSA/MI_1103/IMG_8_1103.jpg"",""SV_PolicingMSA/MI_1103/IMG_12_1103.jpg"",""SV_PolicingMSA/MI_1103/IMG_2_1103.jpg"",""SV_PolicingMSA/MI_1103/IMG_0_1103.jpg"",""SV_PolicingMSA/MI_1103/IMG_1_1103.jpg""]","5",NA,NA,NA,NA,NA,5,NA,4,"[""./rc_img/cop_condGroup_17_SafeStreets_autoscaled.png"",""./rc_img/cop_condGroup_17_CommunitySafety_autoscaled.png""]",3,NA,NA,"MI_1103","MI_1103",5,3,3,3,3,3,8,"MI_1103",5,3,3,3,3,3,"MI_1103",5,3,3,3,3,3,3,"69","male","man","","10123",""
"39","sliderTrial","html-slider-response",141,527974,"0.0-141.0",NA,"656776a7904ae00d6b91d1dd","6568aa5f8a9a75b2b442982a",5,NA,NA,NA,NA,NA,NA,NA,NA,NA,NA,NA,"3253","[""SV_PolicingMSA/MI_1103/IMG_5_1103.jpg"",""SV_PolicingMSA/MI_1103/IMG_9_1103.jpg"",""SV_PolicingMSA/MI_1103/IMG_13_1103.jpg"",""SV_PolicingMSA/MI_1103/IMG_8_1103.jpg"",""SV_PolicingMSA/MI_1103/IMG_12_1103.jpg"",""SV_PolicingMSA/MI_1103/IMG_2_1103.jpg"",""SV_PolicingMSA/MI_1103/IMG_0_1103.jpg"",""SV_PolicingMSA/MI_1103/IMG_1_1103.jpg""]","3",NA,NA,NA,NA,NA,5,NA,4,"[""./rc_img/cop_condGroup_20_CommunitySafety_autoscaled.png"",""./rc_img/cop_condGroup_20_SafeStreets_autoscaled.png""]",3,NA,NA,"MI_1103","MI_1103",5,3,3,3,3,3,8,"MI_1103",5,3,3,3,3,3,"MI_1103",5,3,3,3,3,3,3,"69","male","man","","10123",""
"40","sliderTrial","html-slider-response",142,530141,"0.0-142.0",NA,"656776a7904ae00d6b91d1dd","6568aa5f8a9a75b2b442982a",5,NA,NA,NA,NA,NA,NA,NA,NA,NA,NA,NA,"2165","[""SV_PolicingMSA/MI_1103/IMG_5_1103.jpg"",""SV_PolicingMSA/MI_1103/IMG_9_1103.jpg"",""SV_PolicingMSA/MI_1103/IMG_13_1103.jpg"",""SV_PolicingMSA/MI_1103/IMG_8_1103.jpg"",""SV_PolicingMSA/MI_1103/IMG_12_1103.jpg"",""SV_PolicingMSA/MI_1103/IMG_2_1103.jpg"",""SV_PolicingMSA/MI_1103/IMG_0_1103.jpg"",""SV_PolicingMSA/MI_1103/IMG_1_1103.jpg""]","5",NA,NA,NA,NA,NA,5,NA,4,"[""./rc_img/cop_condGroup_13_SafeStreets_autoscaled.png"",""./rc_img/cop_condGroup_13_CommunitySafety_autoscaled.png""]",3,NA,NA,"MI_1103","MI_1103",5,3,3,3,3,3,8,"MI_1103",5,3,3,3,3,3,"MI_1103",5,3,3,3,3,3,3,"69","male","man","","10123",""
"41","sliderTrial","html-slider-response",143,531949,"0.0-143.0",NA,"656776a7904ae00d6b91d1dd","6568aa5f8a9a75b2b442982a",5,NA,NA,NA,NA,NA,NA,NA,NA,NA,NA,NA,"1806","[""SV_PolicingMSA/MI_1103/IMG_5_1103.jpg"",""SV_PolicingMSA/MI_1103/IMG_9_1103.jpg"",""SV_PolicingMSA/MI_1103/IMG_13_1103.jpg"",""SV_PolicingMSA/MI_1103/IMG_8_1103.jpg"",""SV_PolicingMSA/MI_1103/IMG_12_1103.jpg"",""SV_PolicingMSA/MI_1103/IMG_2_1103.jpg"",""SV_PolicingMSA/MI_1103/IMG_0_1103.jpg"",""SV_PolicingMSA/MI_1103/IMG_1_1103.jpg""]","3",NA,NA,NA,NA,NA,5,NA,4,"[""./rc_img/cop_condGroup_19_CommunitySafety_autoscaled.png"",""./rc_img/cop_condGroup_19_SafeStreets_autoscaled.png""]",3,NA,NA,"MI_1103","MI_1103",5,3,3,3,3,3,8,"MI_1103",5,3,3,3,3,3,"MI_1103",5,3,3,3,3,3,3,"69","male","man","","10123",""
"42","sliderTrial","html-slider-response",144,533935,"0.0-144.0",NA,"656776a7904ae00d6b91d1dd","6568aa5f8a9a75b2b442982a",5,NA,NA,NA,NA,NA,NA,NA,NA,NA,NA,NA,"1985","[""SV_PolicingMSA/MI_1103/IMG_5_1103.jpg"",""SV_PolicingMSA/MI_1103/IMG_9_1103.jpg"",""SV_PolicingMSA/MI_1103/IMG_13_1103.jpg"",""SV_PolicingMSA/MI_1103/IMG_8_1103.jpg"",""SV_PolicingMSA/MI_1103/IMG_12_1103.jpg"",""SV_PolicingMSA/MI_1103/IMG_2_1103.jpg"",""SV_PolicingMSA/MI_1103/IMG_0_1103.jpg"",""SV_PolicingMSA/MI_1103/IMG_1_1103.jpg""]","5",NA,NA,NA,NA,NA,5,NA,4,"[""./rc_img/cop_condGroup_7_SafeStreets_autoscaled.png"",""./rc_img/cop_condGroup_7_CommunitySafety_autoscaled.png""]",3,NA,NA,"MI_1103","MI_1103",5,3,3,3,3,3,8,"MI_1103",5,3,3,3,3,3,"MI_1103",5,3,3,3,3,3,3,"69","male","man","","10123",""
