"","task","trial_type","trial_index","time_elapsed","internal_node_id","subject_id","study_id","session_id","section","width","height","webaudio","browser","browser_version","mobile","os","fullscreen","vsync_rate","webcam","microphone","rt","stimulus","response","success","timeout","failed_images","failed_audio","failed_video","block.x.x","accuracy","slider_start","choices","standardized_response","correct","num_attention_checks_correct","stim_tract","stim_tractT","block.x","P0_Q1.wealthy","P0_Q1.safe","P0_Q1.walkable","P0_Q1.traditional","P0_Q1.diverse","block_fixed","stim_tractT.x","block.y","P0_Q1.violence","P0_Q1.crime","P0_Q1.drug","P0_Q1.schools","P0_Q1.opportunities","stim_tractT.y","block.y.y","P0_Q1.movein","P0_Q1.moveout","P0_Q1.shopping","P0_Q1.walk","P0_Q1.park","P0_Q1.school","age","sex","gender","gender-self-describe","zipcode","surveyComments"
"1","sliderTrial","html-slider-response",18,230950,"0.0-18.0",NA,"656776a7904ae00d6b91d1dd","6568add17ee7236d29c13491",2,NA,NA,NA,NA,NA,NA,NA,NA,NA,NA,NA,"26709","[""SV_PolicingMSA/LA_55/IMG_2_55.jpg"",""SV_PolicingMSA/LA_55/IMG_0_55.jpg"",""SV_PolicingMSA/LA_55/IMG_14_55.jpg"",""SV_PolicingMSA/LA_55/IMG_3_55.jpg"",""SV_PolicingMSA/LA_55/IMG_8_55.jpg"",""SV_PolicingMSA/LA_55/IMG_10_55.jpg"",""SV_PolicingMSA/LA_55/IMG_9_55.jpg"",""SV_PolicingMSA/LA_55/IMG_4_55.jpg""]","4",NA,NA,NA,NA,NA,0,NA,4,"[""./rc_img/cop_condGroup_15_SafeStreets_autoscaled.png"",""./rc_img/cop_condGroup_15_CommunitySafety_autoscaled.png""]",4,NA,NA,"LA_55/I","LA_55I",0,1,2,0,2,1,1,"LA_55I",0,1,1,1,2,1,"LA_55I",0,1,1,3,1,3,3,"49","female","woman","","20876",""
"2","sliderTrial_attention","html-slider-response",19,240959,"0.0-19.0",NA,"656776a7904ae00d6b91d1dd","6568add17ee7236d29c13491",2,NA,NA,NA,NA,NA,NA,NA,NA,NA,NA,NA,"null","[""SV_PolicingMSA/LA_55/IMG_2_55.jpg"",""SV_PolicingMSA/LA_55/IMG_0_55.jpg"",""SV_PolicingMSA/LA_55/IMG_14_55.jpg"",""SV_PolicingMSA/LA_55/IMG_3_55.jpg"",""SV_PolicingMSA/LA_55/IMG_8_55.jpg"",""SV_PolicingMSA/LA_55/IMG_10_55.jpg"",""SV_PolicingMSA/LA_55/IMG_9_55.jpg"",""SV_PolicingMSA/LA_55/IMG_4_55.jpg""]","null",NA,NA,NA,NA,NA,0,NA,4,"[""./assets/img/attnchk.png"",""./assets/img/attnchk.png""]",NA,TRUE,NA,"LA_55/I","LA_55I",0,1,2,0,2,1,1,"LA_55I",0,1,1,1,2,1,"LA_55I",0,1,1,3,1,3,3,"49","female","woman","","20876",""
"3","sliderTrial","html-slider-response",20,255643,"0.0-20.0",NA,"656776a7904ae00d6b91d1dd","6568add17ee7236d29c13491",2,NA,NA,NA,NA,NA,NA,NA,NA,NA,NA,NA,"14680","[""SV_PolicingMSA/LA_55/IMG_2_55.jpg"",""SV_PolicingMSA/LA_55/IMG_0_55.jpg"",""SV_PolicingMSA/LA_55/IMG_14_55.jpg"",""SV_PolicingMSA/LA_55/IMG_3_55.jpg"",""SV_PolicingMSA/LA_55/IMG_8_55.jpg"",""SV_PolicingMSA/LA_55/IMG_10_55.jpg"",""SV_PolicingMSA/LA_55/IMG_9_55.jpg"",""SV_PolicingMSA/LA_55/IMG_4_55.jpg""]","4",NA,NA,NA,NA,NA,0,NA,4,"[""./rc_img/cop_condGroup_8_SafeStreets_autoscaled.png"",""./rc_img/cop_condGroup_8_CommunitySafety_autoscaled.png""]",4,NA,NA,"LA_55/I","LA_55I",0,1,2,0,2,1,1,"LA_55I",0,1,1,1,2,1,"LA_55I",0,1,1,3,1,3,3,"49","female","woman","","20876",""
"4","sliderTrial","html-slider-response",21,259748,"0.0-21.0",NA,"656776a7904ae00d6b91d1dd","6568add17ee7236d29c13491",2,NA,NA,NA,NA,NA,NA,NA,NA,NA,NA,NA,"4103","[""SV_PolicingMSA/LA_55/IMG_2_55.jpg"",""SV_PolicingMSA/LA_55/IMG_0_55.jpg"",""SV_PolicingMSA/LA_55/IMG_14_55.jpg"",""SV_PolicingMSA/LA_55/IMG_3_55.jpg"",""SV_PolicingMSA/LA_55/IMG_8_55.jpg"",""SV_PolicingMSA/LA_55/IMG_10_55.jpg"",""SV_PolicingMSA/LA_55/IMG_9_55.jpg"",""SV_PolicingMSA/LA_55/IMG_4_55.jpg""]","4",NA,NA,NA,NA,NA,0,NA,4,"[""./rc_img/cop_condGroup_3_SafeStreets_autoscaled.png"",""./rc_img/cop_condGroup_3_CommunitySafety_autoscaled.png""]",4,NA,NA,"LA_55/I","LA_55I",0,1,2,0,2,1,1,"LA_55I",0,1,1,1,2,1,"LA_55I",0,1,1,3,1,3,3,"49","female","woman","","20876",""
"5","sliderTrial","html-slider-response",22,263684,"0.0-22.0",NA,"656776a7904ae00d6b91d1dd","6568add17ee7236d29c13491",2,NA,NA,NA,NA,NA,NA,NA,NA,NA,NA,NA,"3934","[""SV_PolicingMSA/LA_55/IMG_2_55.jpg"",""SV_PolicingMSA/LA_55/IMG_0_55.jpg"",""SV_PolicingMSA/LA_55/IMG_14_55.jpg"",""SV_PolicingMSA/LA_55/IMG_3_55.jpg"",""SV_PolicingMSA/LA_55/IMG_8_55.jpg"",""SV_PolicingMSA/LA_55/IMG_10_55.jpg"",""SV_PolicingMSA/LA_55/IMG_9_55.jpg"",""SV_PolicingMSA/LA_55/IMG_4_55.jpg""]","4",NA,NA,NA,NA,NA,0,NA,4,"[""./rc_img/cop_condGroup_17_SafeStreets_autoscaled.png"",""./rc_img/cop_condGroup_17_CommunitySafety_autoscaled.png""]",4,NA,NA,"LA_55/I","LA_55I",0,1,2,0,2,1,1,"LA_55I",0,1,1,1,2,1,"LA_55I",0,1,1,3,1,3,3,"49","female","woman","","20876",""
"6","sliderTrial","html-slider-response",23,273804,"0.0-23.0",NA,"656776a7904ae00d6b91d1dd","6568add17ee7236d29c13491",2,NA,NA,NA,NA,NA,NA,NA,NA,NA,NA,NA,"10118","[""SV_PolicingMSA/LA_55/IMG_2_55.jpg"",""SV_PolicingMSA/LA_55/IMG_0_55.jpg"",""SV_PolicingMSA/LA_55/IMG_14_55.jpg"",""SV_PolicingMSA/LA_55/IMG_3_55.jpg"",""SV_PolicingMSA/LA_55/IMG_8_55.jpg"",""SV_PolicingMSA/LA_55/IMG_10_55.jpg"",""SV_PolicingMSA/LA_55/IMG_9_55.jpg"",""SV_PolicingMSA/LA_55/IMG_4_55.jpg""]","5",NA,NA,NA,NA,NA,0,NA,4,"[""./rc_img/cop_condGroup_4_SafeStreets_autoscaled.png"",""./rc_img/cop_condGroup_4_CommunitySafety_autoscaled.png""]",3,NA,NA,"LA_55/I","LA_55I",0,1,2,0,2,1,1,"LA_55I",0,1,1,1,2,1,"LA_55I",0,1,1,3,1,3,3,"49","female","woman","","20876",""
"7","sliderTrial","html-slider-response",36,351381,"0.0-36.0",NA,"656776a7904ae00d6b91d1dd","6568add17ee7236d29c13491",2,NA,NA,NA,NA,NA,NA,NA,NA,NA,NA,NA,"4102","[""SV_PolicingMSA/LA_1076/IMG_5_1076.jpg"",""SV_PolicingMSA/LA_1076/IMG_8_1076.jpg"",""SV_PolicingMSA/LA_1076/IMG_14_1076.jpg"",""SV_PolicingMSA/LA_1076/IMG_12_1076.jpg"",""SV_PolicingMSA/LA_1076/IMG_4_1076.jpg"",""SV_PolicingMSA/LA_1076/IMG_3_1076.jpg"",""SV_PolicingMSA/LA_1076/IMG_6_1076.jpg"",""SV_PolicingMSA/LA_1076/IMG_11_1076.jpg""]","4",NA,NA,NA,NA,NA,5,NA,4,"[""./rc_img/cop_condGroup_6_SafeStreets_autoscaled.png"",""./rc_img/cop_condGroup_6_CommunitySafety_autoscaled.png""]",4,NA,NA,"LA_1076","LA_1076",5,2,2,0,2,1,8,"LA_1076",5,1,1,1,2,2,"LA_1076",5,1,1,4,1,4,3,"49","female","woman","","20876",""
"8","sliderTrial","html-slider-response",37,355197,"0.0-37.0",NA,"656776a7904ae00d6b91d1dd","6568add17ee7236d29c13491",2,NA,NA,NA,NA,NA,NA,NA,NA,NA,NA,NA,"3814","[""SV_PolicingMSA/LA_1076/IMG_5_1076.jpg"",""SV_PolicingMSA/LA_1076/IMG_8_1076.jpg"",""SV_PolicingMSA/LA_1076/IMG_14_1076.jpg"",""SV_PolicingMSA/LA_1076/IMG_12_1076.jpg"",""SV_PolicingMSA/LA_1076/IMG_4_1076.jpg"",""SV_PolicingMSA/LA_1076/IMG_3_1076.jpg"",""SV_PolicingMSA/LA_1076/IMG_6_1076.jpg"",""SV_PolicingMSA/LA_1076/IMG_11_1076.jpg""]","4",NA,NA,NA,NA,NA,5,NA,4,"[""./rc_img/cop_condGroup_5_SafeStreets_autoscaled.png"",""./rc_img/cop_condGroup_5_CommunitySafety_autoscaled.png""]",4,NA,NA,"LA_1076","LA_1076",5,2,2,0,2,1,8,"LA_1076",5,1,1,1,2,2,"LA_1076",5,1,1,4,1,4,3,"49","female","woman","","20876",""
"9","sliderTrial","html-slider-response",38,358421,"0.0-38.0",NA,"656776a7904ae00d6b91d1dd","6568add17ee7236d29c13491",2,NA,NA,NA,NA,NA,NA,NA,NA,NA,NA,NA,"3222","[""SV_PolicingMSA/LA_1076/IMG_5_1076.jpg"",""SV_PolicingMSA/LA_1076/IMG_8_1076.jpg"",""SV_PolicingMSA/LA_1076/IMG_14_1076.jpg"",""SV_PolicingMSA/LA_1076/IMG_12_1076.jpg"",""SV_PolicingMSA/LA_1076/IMG_4_1076.jpg"",""SV_PolicingMSA/LA_1076/IMG_3_1076.jpg"",""SV_PolicingMSA/LA_1076/IMG_6_1076.jpg"",""SV_PolicingMSA/LA_1076/IMG_11_1076.jpg""]","4",NA,NA,NA,NA,NA,5,NA,4,"[""./rc_img/cop_condGroup_19_CommunitySafety_autoscaled.png"",""./rc_img/cop_condGroup_19_SafeStreets_autoscaled.png""]",4,NA,NA,"LA_1076","LA_1076",5,2,2,0,2,1,8,"LA_1076",5,1,1,1,2,2,"LA_1076",5,1,1,4,1,4,3,"49","female","woman","","20876",""
"10","sliderTrial","html-slider-response",39,360364,"0.0-39.0",NA,"656776a7904ae00d6b91d1dd","6568add17ee7236d29c13491",2,NA,NA,NA,NA,NA,NA,NA,NA,NA,NA,NA,"1941","[""SV_PolicingMSA/LA_1076/IMG_5_1076.jpg"",""SV_PolicingMSA/LA_1076/IMG_8_1076.jpg"",""SV_PolicingMSA/LA_1076/IMG_14_1076.jpg"",""SV_PolicingMSA/LA_1076/IMG_12_1076.jpg"",""SV_PolicingMSA/LA_1076/IMG_4_1076.jpg"",""SV_PolicingMSA/LA_1076/IMG_3_1076.jpg"",""SV_PolicingMSA/LA_1076/IMG_6_1076.jpg"",""SV_PolicingMSA/LA_1076/IMG_11_1076.jpg""]","4",NA,NA,NA,NA,NA,5,NA,4,"[""./rc_img/cop_condGroup_13_CommunitySafety_autoscaled.png"",""./rc_img/cop_condGroup_13_SafeStreets_autoscaled.png""]",4,NA,NA,"LA_1076","LA_1076",5,2,2,0,2,1,8,"LA_1076",5,1,1,1,2,2,"LA_1076",5,1,1,4,1,4,3,"49","female","woman","","20876",""
"11","sliderTrial","html-slider-response",40,364340,"0.0-40.0",NA,"656776a7904ae00d6b91d1dd","6568add17ee7236d29c13491",2,NA,NA,NA,NA,NA,NA,NA,NA,NA,NA,NA,"3974","[""SV_PolicingMSA/LA_1076/IMG_5_1076.jpg"",""SV_PolicingMSA/LA_1076/IMG_8_1076.jpg"",""SV_PolicingMSA/LA_1076/IMG_14_1076.jpg"",""SV_PolicingMSA/LA_1076/IMG_12_1076.jpg"",""SV_PolicingMSA/LA_1076/IMG_4_1076.jpg"",""SV_PolicingMSA/LA_1076/IMG_3_1076.jpg"",""SV_PolicingMSA/LA_1076/IMG_6_1076.jpg"",""SV_PolicingMSA/LA_1076/IMG_11_1076.jpg""]","4",NA,NA,NA,NA,NA,5,NA,4,"[""./rc_img/cop_condGroup_1_SafeStreets_autoscaled.png"",""./rc_img/cop_condGroup_1_CommunitySafety_autoscaled.png""]",4,NA,NA,"LA_1076","LA_1076",5,2,2,0,2,1,8,"LA_1076",5,1,1,1,2,2,"LA_1076",5,1,1,4,1,4,3,"49","female","woman","","20876",""
"12","sliderTrial","html-slider-response",53,420197,"0.0-53.0",NA,"656776a7904ae00d6b91d1dd","6568add17ee7236d29c13491",2,NA,NA,NA,NA,NA,NA,NA,NA,NA,NA,NA,"4406","[""SV_PolicingMSA/LA_546/IMG_11_546.jpg"",""SV_PolicingMSA/LA_546/IMG_9_546.jpg"",""SV_PolicingMSA/LA_546/IMG_2_546.jpg"",""SV_PolicingMSA/LA_546/IMG_3_546.jpg"",""SV_PolicingMSA/LA_546/IMG_6_546.jpg"",""SV_PolicingMSA/LA_546/IMG_13_546.jpg"",""SV_PolicingMSA/LA_546/IMG_1_546.jpg"",""SV_PolicingMSA/LA_546/IMG_14_546.jpg""]","4",NA,NA,NA,NA,NA,1,NA,4,"[""./rc_img/cop_condGroup_9_SafeStreets_autoscaled.png"",""./rc_img/cop_condGroup_9_CommunitySafety_autoscaled.png""]",4,NA,NA,"LA_546/","LA_546",1,1,2,0,2,1,2,"LA_546",1,1,1,1,2,1,"LA_546",1,1,1,3,1,3,3,"49","female","woman","","20876",""
"13","sliderTrial_attention","html-slider-response",54,430212,"0.0-54.0",NA,"656776a7904ae00d6b91d1dd","6568add17ee7236d29c13491",2,NA,NA,NA,NA,NA,NA,NA,NA,NA,NA,NA,"null","[""SV_PolicingMSA/LA_546/IMG_11_546.jpg"",""SV_PolicingMSA/LA_546/IMG_9_546.jpg"",""SV_PolicingMSA/LA_546/IMG_2_546.jpg"",""SV_PolicingMSA/LA_546/IMG_3_546.jpg"",""SV_PolicingMSA/LA_546/IMG_6_546.jpg"",""SV_PolicingMSA/LA_546/IMG_13_546.jpg"",""SV_PolicingMSA/LA_546/IMG_1_546.jpg"",""SV_PolicingMSA/LA_546/IMG_14_546.jpg""]","null",NA,NA,NA,NA,NA,1,NA,4,"[""./assets/img/attnchk.png"",""./assets/img/attnchk.png""]",NA,TRUE,NA,"LA_546/","LA_546",1,1,2,0,2,1,2,"LA_546",1,1,1,1,2,1,"LA_546",1,1,1,3,1,3,3,"49","female","woman","","20876",""
"14","sliderTrial","html-slider-response",55,431997,"0.0-55.0",NA,"656776a7904ae00d6b91d1dd","6568add17ee7236d29c13491",2,NA,NA,NA,NA,NA,NA,NA,NA,NA,NA,NA,"1778","[""SV_PolicingMSA/LA_546/IMG_11_546.jpg"",""SV_PolicingMSA/LA_546/IMG_9_546.jpg"",""SV_PolicingMSA/LA_546/IMG_2_546.jpg"",""SV_PolicingMSA/LA_546/IMG_3_546.jpg"",""SV_PolicingMSA/LA_546/IMG_6_546.jpg"",""SV_PolicingMSA/LA_546/IMG_13_546.jpg"",""SV_PolicingMSA/LA_546/IMG_1_546.jpg"",""SV_PolicingMSA/LA_546/IMG_14_546.jpg""]","4",NA,NA,NA,NA,NA,1,NA,4,"[""./rc_img/cop_condGroup_10_SafeStreets_autoscaled.png"",""./rc_img/cop_condGroup_10_CommunitySafety_autoscaled.png""]",4,NA,NA,"LA_546/","LA_546",1,1,2,0,2,1,2,"LA_546",1,1,1,1,2,1,"LA_546",1,1,1,3,1,3,3,"49","female","woman","","20876",""
"15","sliderTrial","html-slider-response",56,434837,"0.0-56.0",NA,"656776a7904ae00d6b91d1dd","6568add17ee7236d29c13491",2,NA,NA,NA,NA,NA,NA,NA,NA,NA,NA,NA,"2838","[""SV_PolicingMSA/LA_546/IMG_11_546.jpg"",""SV_PolicingMSA/LA_546/IMG_9_546.jpg"",""SV_PolicingMSA/LA_546/IMG_2_546.jpg"",""SV_PolicingMSA/LA_546/IMG_3_546.jpg"",""SV_PolicingMSA/LA_546/IMG_6_546.jpg"",""SV_PolicingMSA/LA_546/IMG_13_546.jpg"",""SV_PolicingMSA/LA_546/IMG_1_546.jpg"",""SV_PolicingMSA/LA_546/IMG_14_546.jpg""]","4",NA,NA,NA,NA,NA,1,NA,4,"[""./rc_img/cop_condGroup_7_CommunitySafety_autoscaled.png"",""./rc_img/cop_condGroup_7_SafeStreets_autoscaled.png""]",4,NA,NA,"LA_546/","LA_546",1,1,2,0,2,1,2,"LA_546",1,1,1,1,2,1,"LA_546",1,1,1,3,1,3,3,"49","female","woman","","20876",""
"16","sliderTrial","html-slider-response",57,437077,"0.0-57.0",NA,"656776a7904ae00d6b91d1dd","6568add17ee7236d29c13491",2,NA,NA,NA,NA,NA,NA,NA,NA,NA,NA,NA,"2238","[""SV_PolicingMSA/LA_546/IMG_11_546.jpg"",""SV_PolicingMSA/LA_546/IMG_9_546.jpg"",""SV_PolicingMSA/LA_546/IMG_2_546.jpg"",""SV_PolicingMSA/LA_546/IMG_3_546.jpg"",""SV_PolicingMSA/LA_546/IMG_6_546.jpg"",""SV_PolicingMSA/LA_546/IMG_13_546.jpg"",""SV_PolicingMSA/LA_546/IMG_1_546.jpg"",""SV_PolicingMSA/LA_546/IMG_14_546.jpg""]","4",NA,NA,NA,NA,NA,1,NA,4,"[""./rc_img/cop_condGroup_16_SafeStreets_autoscaled.png"",""./rc_img/cop_condGroup_16_CommunitySafety_autoscaled.png""]",4,NA,NA,"LA_546/","LA_546",1,1,2,0,2,1,2,"LA_546",1,1,1,1,2,1,"LA_546",1,1,1,3,1,3,3,"49","female","woman","","20876",""
"17","sliderTrial","html-slider-response",58,438917,"0.0-58.0",NA,"656776a7904ae00d6b91d1dd","6568add17ee7236d29c13491",2,NA,NA,NA,NA,NA,NA,NA,NA,NA,NA,NA,"1838","[""SV_PolicingMSA/LA_546/IMG_11_546.jpg"",""SV_PolicingMSA/LA_546/IMG_9_546.jpg"",""SV_PolicingMSA/LA_546/IMG_2_546.jpg"",""SV_PolicingMSA/LA_546/IMG_3_546.jpg"",""SV_PolicingMSA/LA_546/IMG_6_546.jpg"",""SV_PolicingMSA/LA_546/IMG_13_546.jpg"",""SV_PolicingMSA/LA_546/IMG_1_546.jpg"",""SV_PolicingMSA/LA_546/IMG_14_546.jpg""]","4",NA,NA,NA,NA,NA,1,NA,4,"[""./rc_img/cop_condGroup_11_SafeStreets_autoscaled.png"",""./rc_img/cop_condGroup_11_CommunitySafety_autoscaled.png""]",4,NA,NA,"LA_546/","LA_546",1,1,2,0,2,1,2,"LA_546",1,1,1,1,2,1,"LA_546",1,1,1,3,1,3,3,"49","female","woman","","20876",""
"18","sliderTrial","html-slider-response",71,503349,"0.0-71.0",NA,"656776a7904ae00d6b91d1dd","6568add17ee7236d29c13491",2,NA,NA,NA,NA,NA,NA,NA,NA,NA,NA,NA,"4814","[""SV_PolicingMSA/LA_547/IMG_13_547.jpg"",""SV_PolicingMSA/LA_547/IMG_6_547.jpg"",""SV_PolicingMSA/LA_547/IMG_2_547.jpg"",""SV_PolicingMSA/LA_547/IMG_3_547.jpg"",""SV_PolicingMSA/LA_547/IMG_12_547.jpg"",""SV_PolicingMSA/LA_547/IMG_1_547.jpg"",""SV_PolicingMSA/LA_547/IMG_14_547.jpg"",""SV_PolicingMSA/LA_547/IMG_10_547.jpg""]","4",NA,NA,NA,NA,NA,2,NA,4,"[""./rc_img/cop_condGroup_2_SafeStreets_autoscaled.png"",""./rc_img/cop_condGroup_2_CommunitySafety_autoscaled.png""]",4,NA,NA,"LA_547/","LA_547",2,0,1,0,1,1,3,"LA_547",2,2,2,2,1,1,"LA_547",2,0,2,1,0,1,1,"49","female","woman","","20876",""
"19","sliderTrial","html-slider-response",72,504949,"0.0-72.0",NA,"656776a7904ae00d6b91d1dd","6568add17ee7236d29c13491",2,NA,NA,NA,NA,NA,NA,NA,NA,NA,NA,NA,"1598","[""SV_PolicingMSA/LA_547/IMG_13_547.jpg"",""SV_PolicingMSA/LA_547/IMG_6_547.jpg"",""SV_PolicingMSA/LA_547/IMG_2_547.jpg"",""SV_PolicingMSA/LA_547/IMG_3_547.jpg"",""SV_PolicingMSA/LA_547/IMG_12_547.jpg"",""SV_PolicingMSA/LA_547/IMG_1_547.jpg"",""SV_PolicingMSA/LA_547/IMG_14_547.jpg"",""SV_PolicingMSA/LA_547/IMG_10_547.jpg""]","4",NA,NA,NA,NA,NA,2,NA,4,"[""./rc_img/cop_condGroup_20_CommunitySafety_autoscaled.png"",""./rc_img/cop_condGroup_20_SafeStreets_autoscaled.png""]",4,NA,NA,"LA_547/","LA_547",2,0,1,0,1,1,3,"LA_547",2,2,2,2,1,1,"LA_547",2,0,2,1,0,1,1,"49","female","woman","","20876",""
"20","sliderTrial","html-slider-response",73,506196,"0.0-73.0",NA,"656776a7904ae00d6b91d1dd","6568add17ee7236d29c13491",2,NA,NA,NA,NA,NA,NA,NA,NA,NA,NA,NA,"1246","[""SV_PolicingMSA/LA_547/IMG_13_547.jpg"",""SV_PolicingMSA/LA_547/IMG_6_547.jpg"",""SV_PolicingMSA/LA_547/IMG_2_547.jpg"",""SV_PolicingMSA/LA_547/IMG_3_547.jpg"",""SV_PolicingMSA/LA_547/IMG_12_547.jpg"",""SV_PolicingMSA/LA_547/IMG_1_547.jpg"",""SV_PolicingMSA/LA_547/IMG_14_547.jpg"",""SV_PolicingMSA/LA_547/IMG_10_547.jpg""]","4",NA,NA,NA,NA,NA,2,NA,4,"[""./rc_img/cop_condGroup_18_SafeStreets_autoscaled.png"",""./rc_img/cop_condGroup_18_CommunitySafety_autoscaled.png""]",4,NA,NA,"LA_547/","LA_547",2,0,1,0,1,1,3,"LA_547",2,2,2,2,1,1,"LA_547",2,0,2,1,0,1,1,"49","female","woman","","20876",""
"21","sliderTrial","html-slider-response",74,508029,"0.0-74.0",NA,"656776a7904ae00d6b91d1dd","6568add17ee7236d29c13491",2,NA,NA,NA,NA,NA,NA,NA,NA,NA,NA,NA,"1830","[""SV_PolicingMSA/LA_547/IMG_13_547.jpg"",""SV_PolicingMSA/LA_547/IMG_6_547.jpg"",""SV_PolicingMSA/LA_547/IMG_2_547.jpg"",""SV_PolicingMSA/LA_547/IMG_3_547.jpg"",""SV_PolicingMSA/LA_547/IMG_12_547.jpg"",""SV_PolicingMSA/LA_547/IMG_1_547.jpg"",""SV_PolicingMSA/LA_547/IMG_14_547.jpg"",""SV_PolicingMSA/LA_547/IMG_10_547.jpg""]","4",NA,NA,NA,NA,NA,2,NA,4,"[""./rc_img/cop_condGroup_12_CommunitySafety_autoscaled.png"",""./rc_img/cop_condGroup_12_SafeStreets_autoscaled.png""]",4,NA,NA,"LA_547/","LA_547",2,0,1,0,1,1,3,"LA_547",2,2,2,2,1,1,"LA_547",2,0,2,1,0,1,1,"49","female","woman","","20876",""
"22","sliderTrial","html-slider-response",75,509221,"0.0-75.0",NA,"656776a7904ae00d6b91d1dd","6568add17ee7236d29c13491",2,NA,NA,NA,NA,NA,NA,NA,NA,NA,NA,NA,"1190","[""SV_PolicingMSA/LA_547/IMG_13_547.jpg"",""SV_PolicingMSA/LA_547/IMG_6_547.jpg"",""SV_PolicingMSA/LA_547/IMG_2_547.jpg"",""SV_PolicingMSA/LA_547/IMG_3_547.jpg"",""SV_PolicingMSA/LA_547/IMG_12_547.jpg"",""SV_PolicingMSA/LA_547/IMG_1_547.jpg"",""SV_PolicingMSA/LA_547/IMG_14_547.jpg"",""SV_PolicingMSA/LA_547/IMG_10_547.jpg""]","4",NA,NA,NA,NA,NA,2,NA,4,"[""./rc_img/cop_condGroup_14_CommunitySafety_autoscaled.png"",""./rc_img/cop_condGroup_14_SafeStreets_autoscaled.png""]",4,NA,NA,"LA_547/","LA_547",2,0,1,0,1,1,3,"LA_547",2,2,2,2,1,1,"LA_547",2,0,2,1,0,1,1,"49","female","woman","","20876",""
"23","sliderTrial","html-slider-response",89,587996,"0.0-89.0",NA,"656776a7904ae00d6b91d1dd","6568add17ee7236d29c13491",2,NA,NA,NA,NA,NA,NA,NA,NA,NA,NA,NA,"3126","[""SV_PolicingMSA/LA_599/IMG_2_599.jpg"",""SV_PolicingMSA/LA_599/IMG_4_599.jpg"",""SV_PolicingMSA/LA_599/IMG_1_599.jpg"",""SV_PolicingMSA/LA_599/IMG_9_599.jpg"",""SV_PolicingMSA/LA_599/IMG_11_599.jpg"",""SV_PolicingMSA/LA_599/IMG_3_599.jpg"",""SV_PolicingMSA/LA_599/IMG_5_599.jpg"",""SV_PolicingMSA/LA_599/IMG_8_599.jpg""]","4",NA,NA,NA,NA,NA,3,NA,4,"[""./rc_img/cop_condGroup_6_SafeStreets_autoscaled.png"",""./rc_img/cop_condGroup_6_CommunitySafety_autoscaled.png""]",4,NA,NA,"LA_599/","LA_599",3,2,2,0,2,1,5,"LA_599",3,1,1,1,2,1,"LA_599",3,2,1,3,1,3,3,"49","female","woman","","20876",""
"24","sliderTrial","html-slider-response",90,589924,"0.0-90.0",NA,"656776a7904ae00d6b91d1dd","6568add17ee7236d29c13491",2,NA,NA,NA,NA,NA,NA,NA,NA,NA,NA,NA,"1926","[""SV_PolicingMSA/LA_599/IMG_2_599.jpg"",""SV_PolicingMSA/LA_599/IMG_4_599.jpg"",""SV_PolicingMSA/LA_599/IMG_1_599.jpg"",""SV_PolicingMSA/LA_599/IMG_9_599.jpg"",""SV_PolicingMSA/LA_599/IMG_11_599.jpg"",""SV_PolicingMSA/LA_599/IMG_3_599.jpg"",""SV_PolicingMSA/LA_599/IMG_5_599.jpg"",""SV_PolicingMSA/LA_599/IMG_8_599.jpg""]","4",NA,NA,NA,NA,NA,3,NA,4,"[""./rc_img/cop_condGroup_5_SafeStreets_autoscaled.png"",""./rc_img/cop_condGroup_5_CommunitySafety_autoscaled.png""]",4,NA,NA,"LA_599/","LA_599",3,2,2,0,2,1,5,"LA_599",3,1,1,1,2,1,"LA_599",3,2,1,3,1,3,3,"49","female","woman","","20876",""
"25","sliderTrial","html-slider-response",91,590988,"0.0-91.0",NA,"656776a7904ae00d6b91d1dd","6568add17ee7236d29c13491",2,NA,NA,NA,NA,NA,NA,NA,NA,NA,NA,NA,"1062","[""SV_PolicingMSA/LA_599/IMG_2_599.jpg"",""SV_PolicingMSA/LA_599/IMG_4_599.jpg"",""SV_PolicingMSA/LA_599/IMG_1_599.jpg"",""SV_PolicingMSA/LA_599/IMG_9_599.jpg"",""SV_PolicingMSA/LA_599/IMG_11_599.jpg"",""SV_PolicingMSA/LA_599/IMG_3_599.jpg"",""SV_PolicingMSA/LA_599/IMG_5_599.jpg"",""SV_PolicingMSA/LA_599/IMG_8_599.jpg""]","4",NA,NA,NA,NA,NA,3,NA,4,"[""./rc_img/cop_condGroup_19_CommunitySafety_autoscaled.png"",""./rc_img/cop_condGroup_19_SafeStreets_autoscaled.png""]",4,NA,NA,"LA_599/","LA_599",3,2,2,0,2,1,5,"LA_599",3,1,1,1,2,1,"LA_599",3,2,1,3,1,3,3,"49","female","woman","","20876",""
"26","sliderTrial","html-slider-response",92,592108,"0.0-92.0",NA,"656776a7904ae00d6b91d1dd","6568add17ee7236d29c13491",2,NA,NA,NA,NA,NA,NA,NA,NA,NA,NA,NA,"1118","[""SV_PolicingMSA/LA_599/IMG_2_599.jpg"",""SV_PolicingMSA/LA_599/IMG_4_599.jpg"",""SV_PolicingMSA/LA_599/IMG_1_599.jpg"",""SV_PolicingMSA/LA_599/IMG_9_599.jpg"",""SV_PolicingMSA/LA_599/IMG_11_599.jpg"",""SV_PolicingMSA/LA_599/IMG_3_599.jpg"",""SV_PolicingMSA/LA_599/IMG_5_599.jpg"",""SV_PolicingMSA/LA_599/IMG_8_599.jpg""]","4",NA,NA,NA,NA,NA,3,NA,4,"[""./rc_img/cop_condGroup_13_CommunitySafety_autoscaled.png"",""./rc_img/cop_condGroup_13_SafeStreets_autoscaled.png""]",4,NA,NA,"LA_599/","LA_599",3,2,2,0,2,1,5,"LA_599",3,1,1,1,2,1,"LA_599",3,2,1,3,1,3,3,"49","female","woman","","20876",""
"27","sliderTrial","html-slider-response",93,593140,"0.0-93.0",NA,"656776a7904ae00d6b91d1dd","6568add17ee7236d29c13491",2,NA,NA,NA,NA,NA,NA,NA,NA,NA,NA,NA,"1030","[""SV_PolicingMSA/LA_599/IMG_2_599.jpg"",""SV_PolicingMSA/LA_599/IMG_4_599.jpg"",""SV_PolicingMSA/LA_599/IMG_1_599.jpg"",""SV_PolicingMSA/LA_599/IMG_9_599.jpg"",""SV_PolicingMSA/LA_599/IMG_11_599.jpg"",""SV_PolicingMSA/LA_599/IMG_3_599.jpg"",""SV_PolicingMSA/LA_599/IMG_5_599.jpg"",""SV_PolicingMSA/LA_599/IMG_8_599.jpg""]","4",NA,NA,NA,NA,NA,3,NA,4,"[""./rc_img/cop_condGroup_1_SafeStreets_autoscaled.png"",""./rc_img/cop_condGroup_1_CommunitySafety_autoscaled.png""]",4,NA,NA,"LA_599/","LA_599",3,2,2,0,2,1,5,"LA_599",3,1,1,1,2,1,"LA_599",3,2,1,3,1,3,3,"49","female","woman","","20876",""
"28","sliderTrial","html-slider-response",106,643701,"0.0-106.0",NA,"656776a7904ae00d6b91d1dd","6568add17ee7236d29c13491",2,NA,NA,NA,NA,NA,NA,NA,NA,NA,NA,NA,"3182","[""SV_PolicingMSA/LA_42/IMG_0_42.jpg"",""SV_PolicingMSA/LA_42/IMG_5_42.jpg"",""SV_PolicingMSA/LA_42/IMG_2_42.jpg"",""SV_PolicingMSA/LA_42/IMG_1_42.jpg"",""SV_PolicingMSA/LA_42/IMG_10_42.jpg"",""SV_PolicingMSA/LA_42/IMG_7_42.jpg"",""SV_PolicingMSA/LA_42/IMG_13_42.jpg"",""SV_PolicingMSA/LA_42/IMG_14_42.jpg""]","4",NA,NA,NA,NA,NA,2,NA,4,"[""./rc_img/cop_condGroup_15_SafeStreets_autoscaled.png"",""./rc_img/cop_condGroup_15_CommunitySafety_autoscaled.png""]",4,NA,NA,"LA_42/I","LA_42I",2,2,2,0,2,1,4,"LA_42I",2,1,1,1,2,1,"LA_42I",2,2,1,3,1,3,3,"49","female","woman","","20876",""
"29","sliderTrial","html-slider-response",107,645132,"0.0-107.0",NA,"656776a7904ae00d6b91d1dd","6568add17ee7236d29c13491",2,NA,NA,NA,NA,NA,NA,NA,NA,NA,NA,NA,"1429","[""SV_PolicingMSA/LA_42/IMG_0_42.jpg"",""SV_PolicingMSA/LA_42/IMG_5_42.jpg"",""SV_PolicingMSA/LA_42/IMG_2_42.jpg"",""SV_PolicingMSA/LA_42/IMG_1_42.jpg"",""SV_PolicingMSA/LA_42/IMG_10_42.jpg"",""SV_PolicingMSA/LA_42/IMG_7_42.jpg"",""SV_PolicingMSA/LA_42/IMG_13_42.jpg"",""SV_PolicingMSA/LA_42/IMG_14_42.jpg""]","4",NA,NA,NA,NA,NA,2,NA,4,"[""./rc_img/cop_condGroup_8_SafeStreets_autoscaled.png"",""./rc_img/cop_condGroup_8_CommunitySafety_autoscaled.png""]",4,NA,NA,"LA_42/I","LA_42I",2,2,2,0,2,1,4,"LA_42I",2,1,1,1,2,1,"LA_42I",2,2,1,3,1,3,3,"49","female","woman","","20876",""
"30","sliderTrial","html-slider-response",108,646116,"0.0-108.0",NA,"656776a7904ae00d6b91d1dd","6568add17ee7236d29c13491",2,NA,NA,NA,NA,NA,NA,NA,NA,NA,NA,NA,"982","[""SV_PolicingMSA/LA_42/IMG_0_42.jpg"",""SV_PolicingMSA/LA_42/IMG_5_42.jpg"",""SV_PolicingMSA/LA_42/IMG_2_42.jpg"",""SV_PolicingMSA/LA_42/IMG_1_42.jpg"",""SV_PolicingMSA/LA_42/IMG_10_42.jpg"",""SV_PolicingMSA/LA_42/IMG_7_42.jpg"",""SV_PolicingMSA/LA_42/IMG_13_42.jpg"",""SV_PolicingMSA/LA_42/IMG_14_42.jpg""]","4",NA,NA,NA,NA,NA,2,NA,4,"[""./rc_img/cop_condGroup_3_SafeStreets_autoscaled.png"",""./rc_img/cop_condGroup_3_CommunitySafety_autoscaled.png""]",4,NA,NA,"LA_42/I","LA_42I",2,2,2,0,2,1,4,"LA_42I",2,1,1,1,2,1,"LA_42I",2,2,1,3,1,3,3,"49","female","woman","","20876",""
"31","sliderTrial","html-slider-response",109,647140,"0.0-109.0",NA,"656776a7904ae00d6b91d1dd","6568add17ee7236d29c13491",2,NA,NA,NA,NA,NA,NA,NA,NA,NA,NA,NA,"1021","[""SV_PolicingMSA/LA_42/IMG_0_42.jpg"",""SV_PolicingMSA/LA_42/IMG_5_42.jpg"",""SV_PolicingMSA/LA_42/IMG_2_42.jpg"",""SV_PolicingMSA/LA_42/IMG_1_42.jpg"",""SV_PolicingMSA/LA_42/IMG_10_42.jpg"",""SV_PolicingMSA/LA_42/IMG_7_42.jpg"",""SV_PolicingMSA/LA_42/IMG_13_42.jpg"",""SV_PolicingMSA/LA_42/IMG_14_42.jpg""]","4",NA,NA,NA,NA,NA,2,NA,4,"[""./rc_img/cop_condGroup_17_SafeStreets_autoscaled.png"",""./rc_img/cop_condGroup_17_CommunitySafety_autoscaled.png""]",4,NA,NA,"LA_42/I","LA_42I",2,2,2,0,2,1,4,"LA_42I",2,1,1,1,2,1,"LA_42I",2,2,1,3,1,3,3,"49","female","woman","","20876",""
"32","sliderTrial","html-slider-response",110,648940,"0.0-110.0",NA,"656776a7904ae00d6b91d1dd","6568add17ee7236d29c13491",2,NA,NA,NA,NA,NA,NA,NA,NA,NA,NA,NA,"1798","[""SV_PolicingMSA/LA_42/IMG_0_42.jpg"",""SV_PolicingMSA/LA_42/IMG_5_42.jpg"",""SV_PolicingMSA/LA_42/IMG_2_42.jpg"",""SV_PolicingMSA/LA_42/IMG_1_42.jpg"",""SV_PolicingMSA/LA_42/IMG_10_42.jpg"",""SV_PolicingMSA/LA_42/IMG_7_42.jpg"",""SV_PolicingMSA/LA_42/IMG_13_42.jpg"",""SV_PolicingMSA/LA_42/IMG_14_42.jpg""]","4",NA,NA,NA,NA,NA,2,NA,4,"[""./rc_img/cop_condGroup_4_SafeStreets_autoscaled.png"",""./rc_img/cop_condGroup_4_CommunitySafety_autoscaled.png""]",4,NA,NA,"LA_42/I","LA_42I",2,2,2,0,2,1,4,"LA_42I",2,1,1,1,2,1,"LA_42I",2,2,1,3,1,3,3,"49","female","woman","","20876",""
"33","sliderTrial","html-slider-response",123,716148,"0.0-123.0",NA,"656776a7904ae00d6b91d1dd","6568add17ee7236d29c13491",2,NA,NA,NA,NA,NA,NA,NA,NA,NA,NA,NA,"2950","[""SV_PolicingMSA/LA_447/IMG_2_447.jpg"",""SV_PolicingMSA/LA_447/IMG_7_447.jpg"",""SV_PolicingMSA/LA_447/IMG_3_447.jpg"",""SV_PolicingMSA/LA_447/IMG_10_447.jpg"",""SV_PolicingMSA/LA_447/IMG_0_447.jpg"",""SV_PolicingMSA/LA_447/IMG_14_447.jpg"",""SV_PolicingMSA/LA_447/IMG_5_447.jpg"",""SV_PolicingMSA/LA_447/IMG_9_447.jpg""]","4",NA,NA,NA,NA,NA,3,NA,4,"[""./rc_img/cop_condGroup_9_SafeStreets_autoscaled.png"",""./rc_img/cop_condGroup_9_CommunitySafety_autoscaled.png""]",4,NA,NA,"LA_447/","LA_447",3,1,2,0,1,1,6,"LA_447",3,1,1,1,2,1,"LA_447",3,1,1,2,1,3,3,"49","female","woman","","20876",""
"34","sliderTrial","html-slider-response",124,717212,"0.0-124.0",NA,"656776a7904ae00d6b91d1dd","6568add17ee7236d29c13491",2,NA,NA,NA,NA,NA,NA,NA,NA,NA,NA,NA,"1062","[""SV_PolicingMSA/LA_447/IMG_2_447.jpg"",""SV_PolicingMSA/LA_447/IMG_7_447.jpg"",""SV_PolicingMSA/LA_447/IMG_3_447.jpg"",""SV_PolicingMSA/LA_447/IMG_10_447.jpg"",""SV_PolicingMSA/LA_447/IMG_0_447.jpg"",""SV_PolicingMSA/LA_447/IMG_14_447.jpg"",""SV_PolicingMSA/LA_447/IMG_5_447.jpg"",""SV_PolicingMSA/LA_447/IMG_9_447.jpg""]","4",NA,NA,NA,NA,NA,3,NA,4,"[""./rc_img/cop_condGroup_10_SafeStreets_autoscaled.png"",""./rc_img/cop_condGroup_10_CommunitySafety_autoscaled.png""]",4,NA,NA,"LA_447/","LA_447",3,1,2,0,1,1,6,"LA_447",3,1,1,1,2,1,"LA_447",3,1,1,2,1,3,3,"49","female","woman","","20876",""
"35","sliderTrial","html-slider-response",125,718228,"0.0-125.0",NA,"656776a7904ae00d6b91d1dd","6568add17ee7236d29c13491",2,NA,NA,NA,NA,NA,NA,NA,NA,NA,NA,NA,"1014","[""SV_PolicingMSA/LA_447/IMG_2_447.jpg"",""SV_PolicingMSA/LA_447/IMG_7_447.jpg"",""SV_PolicingMSA/LA_447/IMG_3_447.jpg"",""SV_PolicingMSA/LA_447/IMG_10_447.jpg"",""SV_PolicingMSA/LA_447/IMG_0_447.jpg"",""SV_PolicingMSA/LA_447/IMG_14_447.jpg"",""SV_PolicingMSA/LA_447/IMG_5_447.jpg"",""SV_PolicingMSA/LA_447/IMG_9_447.jpg""]","4",NA,NA,NA,NA,NA,3,NA,4,"[""./rc_img/cop_condGroup_7_CommunitySafety_autoscaled.png"",""./rc_img/cop_condGroup_7_SafeStreets_autoscaled.png""]",4,NA,NA,"LA_447/","LA_447",3,1,2,0,1,1,6,"LA_447",3,1,1,1,2,1,"LA_447",3,1,1,2,1,3,3,"49","female","woman","","20876",""
"36","sliderTrial","html-slider-response",126,719316,"0.0-126.0",NA,"656776a7904ae00d6b91d1dd","6568add17ee7236d29c13491",2,NA,NA,NA,NA,NA,NA,NA,NA,NA,NA,NA,"1086","[""SV_PolicingMSA/LA_447/IMG_2_447.jpg"",""SV_PolicingMSA/LA_447/IMG_7_447.jpg"",""SV_PolicingMSA/LA_447/IMG_3_447.jpg"",""SV_PolicingMSA/LA_447/IMG_10_447.jpg"",""SV_PolicingMSA/LA_447/IMG_0_447.jpg"",""SV_PolicingMSA/LA_447/IMG_14_447.jpg"",""SV_PolicingMSA/LA_447/IMG_5_447.jpg"",""SV_PolicingMSA/LA_447/IMG_9_447.jpg""]","4",NA,NA,NA,NA,NA,3,NA,4,"[""./rc_img/cop_condGroup_16_SafeStreets_autoscaled.png"",""./rc_img/cop_condGroup_16_CommunitySafety_autoscaled.png""]",4,NA,NA,"LA_447/","LA_447",3,1,2,0,1,1,6,"LA_447",3,1,1,1,2,1,"LA_447",3,1,1,2,1,3,3,"49","female","woman","","20876",""
"37","sliderTrial","html-slider-response",127,720747,"0.0-127.0",NA,"656776a7904ae00d6b91d1dd","6568add17ee7236d29c13491",2,NA,NA,NA,NA,NA,NA,NA,NA,NA,NA,NA,"1429","[""SV_PolicingMSA/LA_447/IMG_2_447.jpg"",""SV_PolicingMSA/LA_447/IMG_7_447.jpg"",""SV_PolicingMSA/LA_447/IMG_3_447.jpg"",""SV_PolicingMSA/LA_447/IMG_10_447.jpg"",""SV_PolicingMSA/LA_447/IMG_0_447.jpg"",""SV_PolicingMSA/LA_447/IMG_14_447.jpg"",""SV_PolicingMSA/LA_447/IMG_5_447.jpg"",""SV_PolicingMSA/LA_447/IMG_9_447.jpg""]","4",NA,NA,NA,NA,NA,3,NA,4,"[""./rc_img/cop_condGroup_11_SafeStreets_autoscaled.png"",""./rc_img/cop_condGroup_11_CommunitySafety_autoscaled.png""]",4,NA,NA,"LA_447/","LA_447",3,1,2,0,1,1,6,"LA_447",3,1,1,1,2,1,"LA_447",3,1,1,2,1,3,3,"49","female","woman","","20876",""
"38","sliderTrial","html-slider-response",140,829596,"0.0-140.0",NA,"656776a7904ae00d6b91d1dd","6568add17ee7236d29c13491",2,NA,NA,NA,NA,NA,NA,NA,NA,NA,NA,NA,"6062","[""SV_PolicingMSA/LA_438/IMG_10_438.jpg"",""SV_PolicingMSA/LA_438/IMG_11_438.jpg"",""SV_PolicingMSA/LA_438/IMG_14_438.jpg"",""SV_PolicingMSA/LA_438/IMG_9_438.jpg"",""SV_PolicingMSA/LA_438/IMG_8_438.jpg"",""SV_PolicingMSA/LA_438/IMG_0_438.jpg"",""SV_PolicingMSA/LA_438/IMG_6_438.jpg"",""SV_PolicingMSA/LA_438/IMG_3_438.jpg""]","4",NA,NA,NA,NA,NA,4,NA,4,"[""./rc_img/cop_condGroup_2_SafeStreets_autoscaled.png"",""./rc_img/cop_condGroup_2_CommunitySafety_autoscaled.png""]",4,NA,NA,"LA_438/","LA_438",4,3,3,0,4,1,7,"LA_438",4,1,1,1,3,2,"LA_438",4,3,1,4,1,4,3,"49","female","woman","","20876",""
"39","sliderTrial","html-slider-response",141,830861,"0.0-141.0",NA,"656776a7904ae00d6b91d1dd","6568add17ee7236d29c13491",2,NA,NA,NA,NA,NA,NA,NA,NA,NA,NA,NA,"1263","[""SV_PolicingMSA/LA_438/IMG_10_438.jpg"",""SV_PolicingMSA/LA_438/IMG_11_438.jpg"",""SV_PolicingMSA/LA_438/IMG_14_438.jpg"",""SV_PolicingMSA/LA_438/IMG_9_438.jpg"",""SV_PolicingMSA/LA_438/IMG_8_438.jpg"",""SV_PolicingMSA/LA_438/IMG_0_438.jpg"",""SV_PolicingMSA/LA_438/IMG_6_438.jpg"",""SV_PolicingMSA/LA_438/IMG_3_438.jpg""]","4",NA,NA,NA,NA,NA,4,NA,4,"[""./rc_img/cop_condGroup_20_CommunitySafety_autoscaled.png"",""./rc_img/cop_condGroup_20_SafeStreets_autoscaled.png""]",4,NA,NA,"LA_438/","LA_438",4,3,3,0,4,1,7,"LA_438",4,1,1,1,3,2,"LA_438",4,3,1,4,1,4,3,"49","female","woman","","20876",""
"40","sliderTrial","html-slider-response",142,832284,"0.0-142.0",NA,"656776a7904ae00d6b91d1dd","6568add17ee7236d29c13491",2,NA,NA,NA,NA,NA,NA,NA,NA,NA,NA,NA,"1421","[""SV_PolicingMSA/LA_438/IMG_10_438.jpg"",""SV_PolicingMSA/LA_438/IMG_11_438.jpg"",""SV_PolicingMSA/LA_438/IMG_14_438.jpg"",""SV_PolicingMSA/LA_438/IMG_9_438.jpg"",""SV_PolicingMSA/LA_438/IMG_8_438.jpg"",""SV_PolicingMSA/LA_438/IMG_0_438.jpg"",""SV_PolicingMSA/LA_438/IMG_6_438.jpg"",""SV_PolicingMSA/LA_438/IMG_3_438.jpg""]","4",NA,NA,NA,NA,NA,4,NA,4,"[""./rc_img/cop_condGroup_18_SafeStreets_autoscaled.png"",""./rc_img/cop_condGroup_18_CommunitySafety_autoscaled.png""]",4,NA,NA,"LA_438/","LA_438",4,3,3,0,4,1,7,"LA_438",4,1,1,1,3,2,"LA_438",4,3,1,4,1,4,3,"49","female","woman","","20876",""
"41","sliderTrial","html-slider-response",143,833421,"0.0-143.0",NA,"656776a7904ae00d6b91d1dd","6568add17ee7236d29c13491",2,NA,NA,NA,NA,NA,NA,NA,NA,NA,NA,NA,"1135","[""SV_PolicingMSA/LA_438/IMG_10_438.jpg"",""SV_PolicingMSA/LA_438/IMG_11_438.jpg"",""SV_PolicingMSA/LA_438/IMG_14_438.jpg"",""SV_PolicingMSA/LA_438/IMG_9_438.jpg"",""SV_PolicingMSA/LA_438/IMG_8_438.jpg"",""SV_PolicingMSA/LA_438/IMG_0_438.jpg"",""SV_PolicingMSA/LA_438/IMG_6_438.jpg"",""SV_PolicingMSA/LA_438/IMG_3_438.jpg""]","4",NA,NA,NA,NA,NA,4,NA,4,"[""./rc_img/cop_condGroup_12_CommunitySafety_autoscaled.png"",""./rc_img/cop_condGroup_12_SafeStreets_autoscaled.png""]",4,NA,NA,"LA_438/","LA_438",4,3,3,0,4,1,7,"LA_438",4,1,1,1,3,2,"LA_438",4,3,1,4,1,4,3,"49","female","woman","","20876",""
"42","sliderTrial","html-slider-response",144,834588,"0.0-144.0",NA,"656776a7904ae00d6b91d1dd","6568add17ee7236d29c13491",2,NA,NA,NA,NA,NA,NA,NA,NA,NA,NA,NA,"1166","[""SV_PolicingMSA/LA_438/IMG_10_438.jpg"",""SV_PolicingMSA/LA_438/IMG_11_438.jpg"",""SV_PolicingMSA/LA_438/IMG_14_438.jpg"",""SV_PolicingMSA/LA_438/IMG_9_438.jpg"",""SV_PolicingMSA/LA_438/IMG_8_438.jpg"",""SV_PolicingMSA/LA_438/IMG_0_438.jpg"",""SV_PolicingMSA/LA_438/IMG_6_438.jpg"",""SV_PolicingMSA/LA_438/IMG_3_438.jpg""]","4",NA,NA,NA,NA,NA,4,NA,4,"[""./rc_img/cop_condGroup_14_CommunitySafety_autoscaled.png"",""./rc_img/cop_condGroup_14_SafeStreets_autoscaled.png""]",4,NA,NA,"LA_438/","LA_438",4,3,3,0,4,1,7,"LA_438",4,1,1,1,3,2,"LA_438",4,3,1,4,1,4,3,"49","female","woman","","20876",""
