"","task","trial_type","trial_index","time_elapsed","internal_node_id","subject_id","study_id","session_id","section","width","height","webaudio","browser","browser_version","mobile","os","fullscreen","vsync_rate","webcam","microphone","rt","stimulus","response","success","timeout","failed_images","failed_audio","failed_video","block.x.x","accuracy","slider_start","choices","standardized_response","correct","num_attention_checks_correct","stim_tract","stim_tractT","block.x","P0_Q1.wealthy","P0_Q1.safe","P0_Q1.walkable","P0_Q1.traditional","P0_Q1.diverse","block_fixed","stim_tractT.x","block.y","P0_Q1.violence","P0_Q1.crime","P0_Q1.drug","P0_Q1.schools","P0_Q1.opportunities","stim_tractT.y","block.y.y","P0_Q1.movein","P0_Q1.moveout","P0_Q1.shopping","P0_Q1.walk","P0_Q1.park","P0_Q1.school","age","sex","gender","gender-self-describe","zipcode","surveyComments"
"1","sliderTrial","html-slider-response",18,94906,"0.0-18.0",NA,"656776a7904ae00d6b91d1dd","6568acf16915e4810e9b555f",11,NA,NA,NA,NA,NA,NA,NA,NA,NA,NA,NA,"10430","[""SV_PolicingMSA/NJ_979/IMG_2_979.jpg"",""SV_PolicingMSA/NJ_979/IMG_1_979.jpg"",""SV_PolicingMSA/NJ_979/IMG_3_979.jpg"",""SV_PolicingMSA/NJ_979/IMG_10_979.jpg"",""SV_PolicingMSA/NJ_979/IMG_8_979.jpg"",""SV_PolicingMSA/NJ_979/IMG_13_979.jpg"",""SV_PolicingMSA/NJ_979/IMG_7_979.jpg"",""SV_PolicingMSA/NJ_979/IMG_12_979.jpg""]","5",NA,NA,NA,NA,NA,0,NA,4,"[""./rc_img/cop_condGroup_11_CommunitySafety_autoscaled.png"",""./rc_img/cop_condGroup_11_SafeStreets_autoscaled.png""]",5,NA,NA,"NJ_979/","NJ_979",0,1,2,2,2,3,1,"NJ_979",0,2,2,1,2,2,"NJ_979",0,0,3,0,0,2,2,"50","female","woman","","76115","thank you!"
"2","sliderTrial_attention","html-slider-response",19,104920,"0.0-19.0",NA,"656776a7904ae00d6b91d1dd","6568acf16915e4810e9b555f",11,NA,NA,NA,NA,NA,NA,NA,NA,NA,NA,NA,"null","[""SV_PolicingMSA/NJ_979/IMG_2_979.jpg"",""SV_PolicingMSA/NJ_979/IMG_1_979.jpg"",""SV_PolicingMSA/NJ_979/IMG_3_979.jpg"",""SV_PolicingMSA/NJ_979/IMG_10_979.jpg"",""SV_PolicingMSA/NJ_979/IMG_8_979.jpg"",""SV_PolicingMSA/NJ_979/IMG_13_979.jpg"",""SV_PolicingMSA/NJ_979/IMG_7_979.jpg"",""SV_PolicingMSA/NJ_979/IMG_12_979.jpg""]","null",NA,NA,NA,NA,NA,0,NA,4,"[""./assets/img/attnchk.png"",""./assets/img/attnchk.png""]",NA,TRUE,NA,"NJ_979/","NJ_979",0,1,2,2,2,3,1,"NJ_979",0,2,2,1,2,2,"NJ_979",0,0,3,0,0,2,2,"50","female","woman","","76115","thank you!"
"3","sliderTrial","html-slider-response",20,112403,"0.0-20.0",NA,"656776a7904ae00d6b91d1dd","6568acf16915e4810e9b555f",11,NA,NA,NA,NA,NA,NA,NA,NA,NA,NA,NA,"7480","[""SV_PolicingMSA/NJ_979/IMG_2_979.jpg"",""SV_PolicingMSA/NJ_979/IMG_1_979.jpg"",""SV_PolicingMSA/NJ_979/IMG_3_979.jpg"",""SV_PolicingMSA/NJ_979/IMG_10_979.jpg"",""SV_PolicingMSA/NJ_979/IMG_8_979.jpg"",""SV_PolicingMSA/NJ_979/IMG_13_979.jpg"",""SV_PolicingMSA/NJ_979/IMG_7_979.jpg"",""SV_PolicingMSA/NJ_979/IMG_12_979.jpg""]","5",NA,NA,NA,NA,NA,0,NA,4,"[""./rc_img/cop_condGroup_2_CommunitySafety_autoscaled.png"",""./rc_img/cop_condGroup_2_SafeStreets_autoscaled.png""]",5,NA,NA,"NJ_979/","NJ_979",0,1,2,2,2,3,1,"NJ_979",0,2,2,1,2,2,"NJ_979",0,0,3,0,0,2,2,"50","female","woman","","76115","thank you!"
"4","sliderTrial","html-slider-response",21,117933,"0.0-21.0",NA,"656776a7904ae00d6b91d1dd","6568acf16915e4810e9b555f",11,NA,NA,NA,NA,NA,NA,NA,NA,NA,NA,NA,"5529","[""SV_PolicingMSA/NJ_979/IMG_2_979.jpg"",""SV_PolicingMSA/NJ_979/IMG_1_979.jpg"",""SV_PolicingMSA/NJ_979/IMG_3_979.jpg"",""SV_PolicingMSA/NJ_979/IMG_10_979.jpg"",""SV_PolicingMSA/NJ_979/IMG_8_979.jpg"",""SV_PolicingMSA/NJ_979/IMG_13_979.jpg"",""SV_PolicingMSA/NJ_979/IMG_7_979.jpg"",""SV_PolicingMSA/NJ_979/IMG_12_979.jpg""]","5",NA,NA,NA,NA,NA,0,NA,4,"[""./rc_img/cop_condGroup_17_CommunitySafety_autoscaled.png"",""./rc_img/cop_condGroup_17_SafeStreets_autoscaled.png""]",5,NA,NA,"NJ_979/","NJ_979",0,1,2,2,2,3,1,"NJ_979",0,2,2,1,2,2,"NJ_979",0,0,3,0,0,2,2,"50","female","woman","","76115","thank you!"
"5","sliderTrial","html-slider-response",22,121179,"0.0-22.0",NA,"656776a7904ae00d6b91d1dd","6568acf16915e4810e9b555f",11,NA,NA,NA,NA,NA,NA,NA,NA,NA,NA,NA,"3244","[""SV_PolicingMSA/NJ_979/IMG_2_979.jpg"",""SV_PolicingMSA/NJ_979/IMG_1_979.jpg"",""SV_PolicingMSA/NJ_979/IMG_3_979.jpg"",""SV_PolicingMSA/NJ_979/IMG_10_979.jpg"",""SV_PolicingMSA/NJ_979/IMG_8_979.jpg"",""SV_PolicingMSA/NJ_979/IMG_13_979.jpg"",""SV_PolicingMSA/NJ_979/IMG_7_979.jpg"",""SV_PolicingMSA/NJ_979/IMG_12_979.jpg""]","3",NA,NA,NA,NA,NA,0,NA,4,"[""./rc_img/cop_condGroup_9_SafeStreets_autoscaled.png"",""./rc_img/cop_condGroup_9_CommunitySafety_autoscaled.png""]",5,NA,NA,"NJ_979/","NJ_979",0,1,2,2,2,3,1,"NJ_979",0,2,2,1,2,2,"NJ_979",0,0,3,0,0,2,2,"50","female","woman","","76115","thank you!"
"6","sliderTrial","html-slider-response",23,126200,"0.0-23.0",NA,"656776a7904ae00d6b91d1dd","6568acf16915e4810e9b555f",11,NA,NA,NA,NA,NA,NA,NA,NA,NA,NA,NA,"5019","[""SV_PolicingMSA/NJ_979/IMG_2_979.jpg"",""SV_PolicingMSA/NJ_979/IMG_1_979.jpg"",""SV_PolicingMSA/NJ_979/IMG_3_979.jpg"",""SV_PolicingMSA/NJ_979/IMG_10_979.jpg"",""SV_PolicingMSA/NJ_979/IMG_8_979.jpg"",""SV_PolicingMSA/NJ_979/IMG_13_979.jpg"",""SV_PolicingMSA/NJ_979/IMG_7_979.jpg"",""SV_PolicingMSA/NJ_979/IMG_12_979.jpg""]","3",NA,NA,NA,NA,NA,0,NA,4,"[""./rc_img/cop_condGroup_4_SafeStreets_autoscaled.png"",""./rc_img/cop_condGroup_4_CommunitySafety_autoscaled.png""]",5,NA,NA,"NJ_979/","NJ_979",0,1,2,2,2,3,1,"NJ_979",0,2,2,1,2,2,"NJ_979",0,0,3,0,0,2,2,"50","female","woman","","76115","thank you!"
"7","sliderTrial","html-slider-response",36,174706,"0.0-36.0",NA,"656776a7904ae00d6b91d1dd","6568acf16915e4810e9b555f",11,NA,NA,NA,NA,NA,NA,NA,NA,NA,NA,NA,"5856","[""SV_PolicingMSA/NJ_1052/IMG_10_1052.jpg"",""SV_PolicingMSA/NJ_1052/IMG_13_1052.jpg"",""SV_PolicingMSA/NJ_1052/IMG_5_1052.jpg"",""SV_PolicingMSA/NJ_1052/IMG_11_1052.jpg"",""SV_PolicingMSA/NJ_1052/IMG_12_1052.jpg"",""SV_PolicingMSA/NJ_1052/IMG_4_1052.jpg"",""SV_PolicingMSA/NJ_1052/IMG_3_1052.jpg"",""SV_PolicingMSA/NJ_1052/IMG_0_1052.jpg""]","5",NA,NA,NA,NA,NA,3,NA,4,"[""./rc_img/cop_condGroup_20_SafeStreets_autoscaled.png"",""./rc_img/cop_condGroup_20_CommunitySafety_autoscaled.png""]",3,NA,NA,"NJ_1052","NJ_1052",3,3,3,3,3,2,5,"NJ_1052",3,1,1,1,3,3,"NJ_1052",3,3,1,3,2,3,3,"50","female","woman","","76115","thank you!"
"8","sliderTrial","html-slider-response",37,177663,"0.0-37.0",NA,"656776a7904ae00d6b91d1dd","6568acf16915e4810e9b555f",11,NA,NA,NA,NA,NA,NA,NA,NA,NA,NA,NA,"2956","[""SV_PolicingMSA/NJ_1052/IMG_10_1052.jpg"",""SV_PolicingMSA/NJ_1052/IMG_13_1052.jpg"",""SV_PolicingMSA/NJ_1052/IMG_5_1052.jpg"",""SV_PolicingMSA/NJ_1052/IMG_11_1052.jpg"",""SV_PolicingMSA/NJ_1052/IMG_12_1052.jpg"",""SV_PolicingMSA/NJ_1052/IMG_4_1052.jpg"",""SV_PolicingMSA/NJ_1052/IMG_3_1052.jpg"",""SV_PolicingMSA/NJ_1052/IMG_0_1052.jpg""]","5",NA,NA,NA,NA,NA,3,NA,4,"[""./rc_img/cop_condGroup_1_SafeStreets_autoscaled.png"",""./rc_img/cop_condGroup_1_CommunitySafety_autoscaled.png""]",3,NA,NA,"NJ_1052","NJ_1052",3,3,3,3,3,2,5,"NJ_1052",3,1,1,1,3,3,"NJ_1052",3,3,1,3,2,3,3,"50","female","woman","","76115","thank you!"
"9","sliderTrial","html-slider-response",38,180341,"0.0-38.0",NA,"656776a7904ae00d6b91d1dd","6568acf16915e4810e9b555f",11,NA,NA,NA,NA,NA,NA,NA,NA,NA,NA,NA,"2676","[""SV_PolicingMSA/NJ_1052/IMG_10_1052.jpg"",""SV_PolicingMSA/NJ_1052/IMG_13_1052.jpg"",""SV_PolicingMSA/NJ_1052/IMG_5_1052.jpg"",""SV_PolicingMSA/NJ_1052/IMG_11_1052.jpg"",""SV_PolicingMSA/NJ_1052/IMG_12_1052.jpg"",""SV_PolicingMSA/NJ_1052/IMG_4_1052.jpg"",""SV_PolicingMSA/NJ_1052/IMG_3_1052.jpg"",""SV_PolicingMSA/NJ_1052/IMG_0_1052.jpg""]","3",NA,NA,NA,NA,NA,3,NA,4,"[""./rc_img/cop_condGroup_19_CommunitySafety_autoscaled.png"",""./rc_img/cop_condGroup_19_SafeStreets_autoscaled.png""]",3,NA,NA,"NJ_1052","NJ_1052",3,3,3,3,3,2,5,"NJ_1052",3,1,1,1,3,3,"NJ_1052",3,3,1,3,2,3,3,"50","female","woman","","76115","thank you!"
"10","sliderTrial","html-slider-response",39,183861,"0.0-39.0",NA,"656776a7904ae00d6b91d1dd","6568acf16915e4810e9b555f",11,NA,NA,NA,NA,NA,NA,NA,NA,NA,NA,NA,"3519","[""SV_PolicingMSA/NJ_1052/IMG_10_1052.jpg"",""SV_PolicingMSA/NJ_1052/IMG_13_1052.jpg"",""SV_PolicingMSA/NJ_1052/IMG_5_1052.jpg"",""SV_PolicingMSA/NJ_1052/IMG_11_1052.jpg"",""SV_PolicingMSA/NJ_1052/IMG_12_1052.jpg"",""SV_PolicingMSA/NJ_1052/IMG_4_1052.jpg"",""SV_PolicingMSA/NJ_1052/IMG_3_1052.jpg"",""SV_PolicingMSA/NJ_1052/IMG_0_1052.jpg""]","5",NA,NA,NA,NA,NA,3,NA,4,"[""./rc_img/cop_condGroup_12_SafeStreets_autoscaled.png"",""./rc_img/cop_condGroup_12_CommunitySafety_autoscaled.png""]",3,NA,NA,"NJ_1052","NJ_1052",3,3,3,3,3,2,5,"NJ_1052",3,1,1,1,3,3,"NJ_1052",3,3,1,3,2,3,3,"50","female","woman","","76115","thank you!"
"11","sliderTrial","html-slider-response",40,186347,"0.0-40.0",NA,"656776a7904ae00d6b91d1dd","6568acf16915e4810e9b555f",11,NA,NA,NA,NA,NA,NA,NA,NA,NA,NA,NA,"2484","[""SV_PolicingMSA/NJ_1052/IMG_10_1052.jpg"",""SV_PolicingMSA/NJ_1052/IMG_13_1052.jpg"",""SV_PolicingMSA/NJ_1052/IMG_5_1052.jpg"",""SV_PolicingMSA/NJ_1052/IMG_11_1052.jpg"",""SV_PolicingMSA/NJ_1052/IMG_12_1052.jpg"",""SV_PolicingMSA/NJ_1052/IMG_4_1052.jpg"",""SV_PolicingMSA/NJ_1052/IMG_3_1052.jpg"",""SV_PolicingMSA/NJ_1052/IMG_0_1052.jpg""]","3",NA,NA,NA,NA,NA,3,NA,4,"[""./rc_img/cop_condGroup_3_CommunitySafety_autoscaled.png"",""./rc_img/cop_condGroup_3_SafeStreets_autoscaled.png""]",3,NA,NA,"NJ_1052","NJ_1052",3,3,3,3,3,2,5,"NJ_1052",3,1,1,1,3,3,"NJ_1052",3,3,1,3,2,3,3,"50","female","woman","","76115","thank you!"
"12","sliderTrial","html-slider-response",53,236711,"0.0-53.0",NA,"656776a7904ae00d6b91d1dd","6568acf16915e4810e9b555f",11,NA,NA,NA,NA,NA,NA,NA,NA,NA,NA,NA,"4779","[""SV_PolicingMSA/NY_5291/IMG_14_5291.jpg"",""SV_PolicingMSA/NY_5291/IMG_6_5291.jpg"",""SV_PolicingMSA/NY_5291/IMG_3_5291.jpg"",""SV_PolicingMSA/NY_5291/IMG_5_5291.jpg"",""SV_PolicingMSA/NY_5291/IMG_8_5291.jpg"",""SV_PolicingMSA/NY_5291/IMG_9_5291.jpg"",""SV_PolicingMSA/NY_5291/IMG_4_5291.jpg"",""SV_PolicingMSA/NY_5291/IMG_2_5291.jpg""]","3",NA,NA,NA,NA,NA,4,NA,4,"[""./rc_img/cop_condGroup_8_SafeStreets_autoscaled.png"",""./rc_img/cop_condGroup_8_CommunitySafety_autoscaled.png""]",5,NA,NA,"NY_5291","NY_5291",4,1,1,1,1,2,7,"NY_5291",4,3,3,3,2,2,"NY_5291",4,0,4,1,0,2,1,"50","female","woman","","76115","thank you!"
"13","sliderTrial","html-slider-response",54,239177,"0.0-54.0",NA,"656776a7904ae00d6b91d1dd","6568acf16915e4810e9b555f",11,NA,NA,NA,NA,NA,NA,NA,NA,NA,NA,NA,"2464","[""SV_PolicingMSA/NY_5291/IMG_14_5291.jpg"",""SV_PolicingMSA/NY_5291/IMG_6_5291.jpg"",""SV_PolicingMSA/NY_5291/IMG_3_5291.jpg"",""SV_PolicingMSA/NY_5291/IMG_5_5291.jpg"",""SV_PolicingMSA/NY_5291/IMG_8_5291.jpg"",""SV_PolicingMSA/NY_5291/IMG_9_5291.jpg"",""SV_PolicingMSA/NY_5291/IMG_4_5291.jpg"",""SV_PolicingMSA/NY_5291/IMG_2_5291.jpg""]","3",NA,NA,NA,NA,NA,4,NA,4,"[""./rc_img/cop_condGroup_5_SafeStreets_autoscaled.png"",""./rc_img/cop_condGroup_5_CommunitySafety_autoscaled.png""]",5,NA,NA,"NY_5291","NY_5291",4,1,1,1,1,2,7,"NY_5291",4,3,3,3,2,2,"NY_5291",4,0,4,1,0,2,1,"50","female","woman","","76115","thank you!"
"14","sliderTrial","html-slider-response",55,241251,"0.0-55.0",NA,"656776a7904ae00d6b91d1dd","6568acf16915e4810e9b555f",11,NA,NA,NA,NA,NA,NA,NA,NA,NA,NA,NA,"2072","[""SV_PolicingMSA/NY_5291/IMG_14_5291.jpg"",""SV_PolicingMSA/NY_5291/IMG_6_5291.jpg"",""SV_PolicingMSA/NY_5291/IMG_3_5291.jpg"",""SV_PolicingMSA/NY_5291/IMG_5_5291.jpg"",""SV_PolicingMSA/NY_5291/IMG_8_5291.jpg"",""SV_PolicingMSA/NY_5291/IMG_9_5291.jpg"",""SV_PolicingMSA/NY_5291/IMG_4_5291.jpg"",""SV_PolicingMSA/NY_5291/IMG_2_5291.jpg""]","5",NA,NA,NA,NA,NA,4,NA,4,"[""./rc_img/cop_condGroup_14_CommunitySafety_autoscaled.png"",""./rc_img/cop_condGroup_14_SafeStreets_autoscaled.png""]",5,NA,NA,"NY_5291","NY_5291",4,1,1,1,1,2,7,"NY_5291",4,3,3,3,2,2,"NY_5291",4,0,4,1,0,2,1,"50","female","woman","","76115","thank you!"
"15","sliderTrial","html-slider-response",56,245310,"0.0-56.0",NA,"656776a7904ae00d6b91d1dd","6568acf16915e4810e9b555f",11,NA,NA,NA,NA,NA,NA,NA,NA,NA,NA,NA,"4058","[""SV_PolicingMSA/NY_5291/IMG_14_5291.jpg"",""SV_PolicingMSA/NY_5291/IMG_6_5291.jpg"",""SV_PolicingMSA/NY_5291/IMG_3_5291.jpg"",""SV_PolicingMSA/NY_5291/IMG_5_5291.jpg"",""SV_PolicingMSA/NY_5291/IMG_8_5291.jpg"",""SV_PolicingMSA/NY_5291/IMG_9_5291.jpg"",""SV_PolicingMSA/NY_5291/IMG_4_5291.jpg"",""SV_PolicingMSA/NY_5291/IMG_2_5291.jpg""]","5",NA,NA,NA,NA,NA,4,NA,4,"[""./rc_img/cop_condGroup_13_CommunitySafety_autoscaled.png"",""./rc_img/cop_condGroup_13_SafeStreets_autoscaled.png""]",5,NA,NA,"NY_5291","NY_5291",4,1,1,1,1,2,7,"NY_5291",4,3,3,3,2,2,"NY_5291",4,0,4,1,0,2,1,"50","female","woman","","76115","thank you!"
"16","sliderTrial","html-slider-response",57,247647,"0.0-57.0",NA,"656776a7904ae00d6b91d1dd","6568acf16915e4810e9b555f",11,NA,NA,NA,NA,NA,NA,NA,NA,NA,NA,NA,"2335","[""SV_PolicingMSA/NY_5291/IMG_14_5291.jpg"",""SV_PolicingMSA/NY_5291/IMG_6_5291.jpg"",""SV_PolicingMSA/NY_5291/IMG_3_5291.jpg"",""SV_PolicingMSA/NY_5291/IMG_5_5291.jpg"",""SV_PolicingMSA/NY_5291/IMG_8_5291.jpg"",""SV_PolicingMSA/NY_5291/IMG_9_5291.jpg"",""SV_PolicingMSA/NY_5291/IMG_4_5291.jpg"",""SV_PolicingMSA/NY_5291/IMG_2_5291.jpg""]","3",NA,NA,NA,NA,NA,4,NA,4,"[""./rc_img/cop_condGroup_16_SafeStreets_autoscaled.png"",""./rc_img/cop_condGroup_16_CommunitySafety_autoscaled.png""]",5,NA,NA,"NY_5291","NY_5291",4,1,1,1,1,2,7,"NY_5291",4,3,3,3,2,2,"NY_5291",4,0,4,1,0,2,1,"50","female","woman","","76115","thank you!"
"17","sliderTrial","html-slider-response",70,294853,"0.0-70.0",NA,"656776a7904ae00d6b91d1dd","6568acf16915e4810e9b555f",11,NA,NA,NA,NA,NA,NA,NA,NA,NA,NA,NA,"5029","[""SV_PolicingMSA/NY_5249/IMG_1_5249.jpg"",""SV_PolicingMSA/NY_5249/IMG_7_5249.jpg"",""SV_PolicingMSA/NY_5249/IMG_8_5249.jpg"",""SV_PolicingMSA/NY_5249/IMG_11_5249.jpg"",""SV_PolicingMSA/NY_5249/IMG_10_5249.jpg"",""SV_PolicingMSA/NY_5249/IMG_0_5249.jpg"",""SV_PolicingMSA/NY_5249/IMG_4_5249.jpg"",""SV_PolicingMSA/NY_5249/IMG_9_5249.jpg""]","5",NA,NA,NA,NA,NA,1,NA,4,"[""./rc_img/cop_condGroup_20_SafeStreets_autoscaled.png"",""./rc_img/cop_condGroup_20_CommunitySafety_autoscaled.png""]",3,NA,NA,"NY_5249","NY_5249",1,2,2,2,2,3,2,"NY_5249",1,2,2,2,2,2,"NY_5249",1,2,1,2,1,2,2,"50","female","woman","","76115","thank you!"
"18","sliderTrial","html-slider-response",71,297241,"0.0-71.0",NA,"656776a7904ae00d6b91d1dd","6568acf16915e4810e9b555f",11,NA,NA,NA,NA,NA,NA,NA,NA,NA,NA,NA,"2387","[""SV_PolicingMSA/NY_5249/IMG_1_5249.jpg"",""SV_PolicingMSA/NY_5249/IMG_7_5249.jpg"",""SV_PolicingMSA/NY_5249/IMG_8_5249.jpg"",""SV_PolicingMSA/NY_5249/IMG_11_5249.jpg"",""SV_PolicingMSA/NY_5249/IMG_10_5249.jpg"",""SV_PolicingMSA/NY_5249/IMG_0_5249.jpg"",""SV_PolicingMSA/NY_5249/IMG_4_5249.jpg"",""SV_PolicingMSA/NY_5249/IMG_9_5249.jpg""]","5",NA,NA,NA,NA,NA,1,NA,4,"[""./rc_img/cop_condGroup_1_SafeStreets_autoscaled.png"",""./rc_img/cop_condGroup_1_CommunitySafety_autoscaled.png""]",3,NA,NA,"NY_5249","NY_5249",1,2,2,2,2,3,2,"NY_5249",1,2,2,2,2,2,"NY_5249",1,2,1,2,1,2,2,"50","female","woman","","76115","thank you!"
"19","sliderTrial","html-slider-response",72,300541,"0.0-72.0",NA,"656776a7904ae00d6b91d1dd","6568acf16915e4810e9b555f",11,NA,NA,NA,NA,NA,NA,NA,NA,NA,NA,NA,"3298","[""SV_PolicingMSA/NY_5249/IMG_1_5249.jpg"",""SV_PolicingMSA/NY_5249/IMG_7_5249.jpg"",""SV_PolicingMSA/NY_5249/IMG_8_5249.jpg"",""SV_PolicingMSA/NY_5249/IMG_11_5249.jpg"",""SV_PolicingMSA/NY_5249/IMG_10_5249.jpg"",""SV_PolicingMSA/NY_5249/IMG_0_5249.jpg"",""SV_PolicingMSA/NY_5249/IMG_4_5249.jpg"",""SV_PolicingMSA/NY_5249/IMG_9_5249.jpg""]","3",NA,NA,NA,NA,NA,1,NA,4,"[""./rc_img/cop_condGroup_19_CommunitySafety_autoscaled.png"",""./rc_img/cop_condGroup_19_SafeStreets_autoscaled.png""]",3,NA,NA,"NY_5249","NY_5249",1,2,2,2,2,3,2,"NY_5249",1,2,2,2,2,2,"NY_5249",1,2,1,2,1,2,2,"50","female","woman","","76115","thank you!"
"20","sliderTrial_attention","html-slider-response",73,310549,"0.0-73.0",NA,"656776a7904ae00d6b91d1dd","6568acf16915e4810e9b555f",11,NA,NA,NA,NA,NA,NA,NA,NA,NA,NA,NA,"null","[""SV_PolicingMSA/NY_5249/IMG_1_5249.jpg"",""SV_PolicingMSA/NY_5249/IMG_7_5249.jpg"",""SV_PolicingMSA/NY_5249/IMG_8_5249.jpg"",""SV_PolicingMSA/NY_5249/IMG_11_5249.jpg"",""SV_PolicingMSA/NY_5249/IMG_10_5249.jpg"",""SV_PolicingMSA/NY_5249/IMG_0_5249.jpg"",""SV_PolicingMSA/NY_5249/IMG_4_5249.jpg"",""SV_PolicingMSA/NY_5249/IMG_9_5249.jpg""]","null",NA,NA,NA,NA,NA,1,NA,4,"[""./assets/img/attnchk.png"",""./assets/img/attnchk.png""]",NA,TRUE,NA,"NY_5249","NY_5249",1,2,2,2,2,3,2,"NY_5249",1,2,2,2,2,2,"NY_5249",1,2,1,2,1,2,2,"50","female","woman","","76115","thank you!"
"21","sliderTrial","html-slider-response",74,313991,"0.0-74.0",NA,"656776a7904ae00d6b91d1dd","6568acf16915e4810e9b555f",11,NA,NA,NA,NA,NA,NA,NA,NA,NA,NA,NA,"3439","[""SV_PolicingMSA/NY_5249/IMG_1_5249.jpg"",""SV_PolicingMSA/NY_5249/IMG_7_5249.jpg"",""SV_PolicingMSA/NY_5249/IMG_8_5249.jpg"",""SV_PolicingMSA/NY_5249/IMG_11_5249.jpg"",""SV_PolicingMSA/NY_5249/IMG_10_5249.jpg"",""SV_PolicingMSA/NY_5249/IMG_0_5249.jpg"",""SV_PolicingMSA/NY_5249/IMG_4_5249.jpg"",""SV_PolicingMSA/NY_5249/IMG_9_5249.jpg""]","5",NA,NA,NA,NA,NA,1,NA,4,"[""./rc_img/cop_condGroup_12_SafeStreets_autoscaled.png"",""./rc_img/cop_condGroup_12_CommunitySafety_autoscaled.png""]",3,NA,NA,"NY_5249","NY_5249",1,2,2,2,2,3,2,"NY_5249",1,2,2,2,2,2,"NY_5249",1,2,1,2,1,2,2,"50","female","woman","","76115","thank you!"
"22","sliderTrial","html-slider-response",75,316742,"0.0-75.0",NA,"656776a7904ae00d6b91d1dd","6568acf16915e4810e9b555f",11,NA,NA,NA,NA,NA,NA,NA,NA,NA,NA,NA,"2750","[""SV_PolicingMSA/NY_5249/IMG_1_5249.jpg"",""SV_PolicingMSA/NY_5249/IMG_7_5249.jpg"",""SV_PolicingMSA/NY_5249/IMG_8_5249.jpg"",""SV_PolicingMSA/NY_5249/IMG_11_5249.jpg"",""SV_PolicingMSA/NY_5249/IMG_10_5249.jpg"",""SV_PolicingMSA/NY_5249/IMG_0_5249.jpg"",""SV_PolicingMSA/NY_5249/IMG_4_5249.jpg"",""SV_PolicingMSA/NY_5249/IMG_9_5249.jpg""]","3",NA,NA,NA,NA,NA,1,NA,4,"[""./rc_img/cop_condGroup_3_CommunitySafety_autoscaled.png"",""./rc_img/cop_condGroup_3_SafeStreets_autoscaled.png""]",3,NA,NA,"NY_5249","NY_5249",1,2,2,2,2,3,2,"NY_5249",1,2,2,2,2,2,"NY_5249",1,2,1,2,1,2,2,"50","female","woman","","76115","thank you!"
"23","sliderTrial","html-slider-response",89,374215,"0.0-89.0",NA,"656776a7904ae00d6b91d1dd","6568acf16915e4810e9b555f",11,NA,NA,NA,NA,NA,NA,NA,NA,NA,NA,NA,"3990","[""SV_PolicingMSA/NY_2726/IMG_11_2726.jpg"",""SV_PolicingMSA/NY_2726/IMG_14_2726.jpg"",""SV_PolicingMSA/NY_2726/IMG_3_2726.jpg"",""SV_PolicingMSA/NY_2726/IMG_1_2726.jpg"",""SV_PolicingMSA/NY_2726/IMG_10_2726.jpg"",""SV_PolicingMSA/NY_2726/IMG_12_2726.jpg"",""SV_PolicingMSA/NY_2726/IMG_7_2726.jpg"",""SV_PolicingMSA/NY_2726/IMG_2_2726.jpg""]","3",NA,NA,NA,NA,NA,2,NA,4,"[""./rc_img/cop_condGroup_8_SafeStreets_autoscaled.png"",""./rc_img/cop_condGroup_8_CommunitySafety_autoscaled.png""]",5,NA,NA,"NY_2726","NY_2726",2,1,2,2,2,3,3,"NY_2726",2,2,2,2,2,2,"NY_2726",2,1,3,2,0,2,2,"50","female","woman","","76115","thank you!"
"24","sliderTrial","html-slider-response",90,376721,"0.0-90.0",NA,"656776a7904ae00d6b91d1dd","6568acf16915e4810e9b555f",11,NA,NA,NA,NA,NA,NA,NA,NA,NA,NA,NA,"2505","[""SV_PolicingMSA/NY_2726/IMG_11_2726.jpg"",""SV_PolicingMSA/NY_2726/IMG_14_2726.jpg"",""SV_PolicingMSA/NY_2726/IMG_3_2726.jpg"",""SV_PolicingMSA/NY_2726/IMG_1_2726.jpg"",""SV_PolicingMSA/NY_2726/IMG_10_2726.jpg"",""SV_PolicingMSA/NY_2726/IMG_12_2726.jpg"",""SV_PolicingMSA/NY_2726/IMG_7_2726.jpg"",""SV_PolicingMSA/NY_2726/IMG_2_2726.jpg""]","3",NA,NA,NA,NA,NA,2,NA,4,"[""./rc_img/cop_condGroup_5_SafeStreets_autoscaled.png"",""./rc_img/cop_condGroup_5_CommunitySafety_autoscaled.png""]",5,NA,NA,"NY_2726","NY_2726",2,1,2,2,2,3,3,"NY_2726",2,2,2,2,2,2,"NY_2726",2,1,3,2,0,2,2,"50","female","woman","","76115","thank you!"
"25","sliderTrial","html-slider-response",91,378792,"0.0-91.0",NA,"656776a7904ae00d6b91d1dd","6568acf16915e4810e9b555f",11,NA,NA,NA,NA,NA,NA,NA,NA,NA,NA,NA,"2069","[""SV_PolicingMSA/NY_2726/IMG_11_2726.jpg"",""SV_PolicingMSA/NY_2726/IMG_14_2726.jpg"",""SV_PolicingMSA/NY_2726/IMG_3_2726.jpg"",""SV_PolicingMSA/NY_2726/IMG_1_2726.jpg"",""SV_PolicingMSA/NY_2726/IMG_10_2726.jpg"",""SV_PolicingMSA/NY_2726/IMG_12_2726.jpg"",""SV_PolicingMSA/NY_2726/IMG_7_2726.jpg"",""SV_PolicingMSA/NY_2726/IMG_2_2726.jpg""]","5",NA,NA,NA,NA,NA,2,NA,4,"[""./rc_img/cop_condGroup_14_CommunitySafety_autoscaled.png"",""./rc_img/cop_condGroup_14_SafeStreets_autoscaled.png""]",5,NA,NA,"NY_2726","NY_2726",2,1,2,2,2,3,3,"NY_2726",2,2,2,2,2,2,"NY_2726",2,1,3,2,0,2,2,"50","female","woman","","76115","thank you!"
"26","sliderTrial","html-slider-response",92,381885,"0.0-92.0",NA,"656776a7904ae00d6b91d1dd","6568acf16915e4810e9b555f",11,NA,NA,NA,NA,NA,NA,NA,NA,NA,NA,NA,"3092","[""SV_PolicingMSA/NY_2726/IMG_11_2726.jpg"",""SV_PolicingMSA/NY_2726/IMG_14_2726.jpg"",""SV_PolicingMSA/NY_2726/IMG_3_2726.jpg"",""SV_PolicingMSA/NY_2726/IMG_1_2726.jpg"",""SV_PolicingMSA/NY_2726/IMG_10_2726.jpg"",""SV_PolicingMSA/NY_2726/IMG_12_2726.jpg"",""SV_PolicingMSA/NY_2726/IMG_7_2726.jpg"",""SV_PolicingMSA/NY_2726/IMG_2_2726.jpg""]","5",NA,NA,NA,NA,NA,2,NA,4,"[""./rc_img/cop_condGroup_13_CommunitySafety_autoscaled.png"",""./rc_img/cop_condGroup_13_SafeStreets_autoscaled.png""]",5,NA,NA,"NY_2726","NY_2726",2,1,2,2,2,3,3,"NY_2726",2,2,2,2,2,2,"NY_2726",2,1,3,2,0,2,2,"50","female","woman","","76115","thank you!"
"27","sliderTrial","html-slider-response",93,384357,"0.0-93.0",NA,"656776a7904ae00d6b91d1dd","6568acf16915e4810e9b555f",11,NA,NA,NA,NA,NA,NA,NA,NA,NA,NA,NA,"2470","[""SV_PolicingMSA/NY_2726/IMG_11_2726.jpg"",""SV_PolicingMSA/NY_2726/IMG_14_2726.jpg"",""SV_PolicingMSA/NY_2726/IMG_3_2726.jpg"",""SV_PolicingMSA/NY_2726/IMG_1_2726.jpg"",""SV_PolicingMSA/NY_2726/IMG_10_2726.jpg"",""SV_PolicingMSA/NY_2726/IMG_12_2726.jpg"",""SV_PolicingMSA/NY_2726/IMG_7_2726.jpg"",""SV_PolicingMSA/NY_2726/IMG_2_2726.jpg""]","3",NA,NA,NA,NA,NA,2,NA,4,"[""./rc_img/cop_condGroup_16_SafeStreets_autoscaled.png"",""./rc_img/cop_condGroup_16_CommunitySafety_autoscaled.png""]",5,NA,NA,"NY_2726","NY_2726",2,1,2,2,2,3,3,"NY_2726",2,2,2,2,2,2,"NY_2726",2,1,3,2,0,2,2,"50","female","woman","","76115","thank you!"
"28","sliderTrial","html-slider-response",106,500811,"0.0-106.0",NA,"656776a7904ae00d6b91d1dd","6568acf16915e4810e9b555f",11,NA,NA,NA,NA,NA,NA,NA,NA,NA,NA,NA,"3375","[""SV_PolicingMSA/NJ_1880/IMG_10_1880.jpg"",""SV_PolicingMSA/NJ_1880/IMG_12_1880.jpg"",""SV_PolicingMSA/NJ_1880/IMG_3_1880.jpg"",""SV_PolicingMSA/NJ_1880/IMG_2_1880.jpg"",""SV_PolicingMSA/NJ_1880/IMG_8_1880.jpg"",""SV_PolicingMSA/NJ_1880/IMG_13_1880.jpg"",""SV_PolicingMSA/NJ_1880/IMG_6_1880.jpg"",""SV_PolicingMSA/NJ_1880/IMG_11_1880.jpg""]","5",NA,NA,NA,NA,NA,2,NA,4,"[""./rc_img/cop_condGroup_11_CommunitySafety_autoscaled.png"",""./rc_img/cop_condGroup_11_SafeStreets_autoscaled.png""]",5,NA,NA,"NJ_1880","NJ_1880",2,2,2,2,2,2,4,"NJ_1880",2,3,3,3,2,2,"NJ_1880",2,0,4,1,0,1,1,"50","female","woman","","76115","thank you!"
"29","sliderTrial","html-slider-response",107,502833,"0.0-107.0",NA,"656776a7904ae00d6b91d1dd","6568acf16915e4810e9b555f",11,NA,NA,NA,NA,NA,NA,NA,NA,NA,NA,NA,"2020","[""SV_PolicingMSA/NJ_1880/IMG_10_1880.jpg"",""SV_PolicingMSA/NJ_1880/IMG_12_1880.jpg"",""SV_PolicingMSA/NJ_1880/IMG_3_1880.jpg"",""SV_PolicingMSA/NJ_1880/IMG_2_1880.jpg"",""SV_PolicingMSA/NJ_1880/IMG_8_1880.jpg"",""SV_PolicingMSA/NJ_1880/IMG_13_1880.jpg"",""SV_PolicingMSA/NJ_1880/IMG_6_1880.jpg"",""SV_PolicingMSA/NJ_1880/IMG_11_1880.jpg""]","5",NA,NA,NA,NA,NA,2,NA,4,"[""./rc_img/cop_condGroup_2_CommunitySafety_autoscaled.png"",""./rc_img/cop_condGroup_2_SafeStreets_autoscaled.png""]",5,NA,NA,"NJ_1880","NJ_1880",2,2,2,2,2,2,4,"NJ_1880",2,3,3,3,2,2,"NJ_1880",2,0,4,1,0,1,1,"50","female","woman","","76115","thank you!"
"30","sliderTrial","html-slider-response",108,504636,"0.0-108.0",NA,"656776a7904ae00d6b91d1dd","6568acf16915e4810e9b555f",11,NA,NA,NA,NA,NA,NA,NA,NA,NA,NA,NA,"1802","[""SV_PolicingMSA/NJ_1880/IMG_10_1880.jpg"",""SV_PolicingMSA/NJ_1880/IMG_12_1880.jpg"",""SV_PolicingMSA/NJ_1880/IMG_3_1880.jpg"",""SV_PolicingMSA/NJ_1880/IMG_2_1880.jpg"",""SV_PolicingMSA/NJ_1880/IMG_8_1880.jpg"",""SV_PolicingMSA/NJ_1880/IMG_13_1880.jpg"",""SV_PolicingMSA/NJ_1880/IMG_6_1880.jpg"",""SV_PolicingMSA/NJ_1880/IMG_11_1880.jpg""]","5",NA,NA,NA,NA,NA,2,NA,4,"[""./rc_img/cop_condGroup_17_CommunitySafety_autoscaled.png"",""./rc_img/cop_condGroup_17_SafeStreets_autoscaled.png""]",5,NA,NA,"NJ_1880","NJ_1880",2,2,2,2,2,2,4,"NJ_1880",2,3,3,3,2,2,"NJ_1880",2,0,4,1,0,1,1,"50","female","woman","","76115","thank you!"
"31","sliderTrial","html-slider-response",109,506421,"0.0-109.0",NA,"656776a7904ae00d6b91d1dd","6568acf16915e4810e9b555f",11,NA,NA,NA,NA,NA,NA,NA,NA,NA,NA,NA,"1783","[""SV_PolicingMSA/NJ_1880/IMG_10_1880.jpg"",""SV_PolicingMSA/NJ_1880/IMG_12_1880.jpg"",""SV_PolicingMSA/NJ_1880/IMG_3_1880.jpg"",""SV_PolicingMSA/NJ_1880/IMG_2_1880.jpg"",""SV_PolicingMSA/NJ_1880/IMG_8_1880.jpg"",""SV_PolicingMSA/NJ_1880/IMG_13_1880.jpg"",""SV_PolicingMSA/NJ_1880/IMG_6_1880.jpg"",""SV_PolicingMSA/NJ_1880/IMG_11_1880.jpg""]","3",NA,NA,NA,NA,NA,2,NA,4,"[""./rc_img/cop_condGroup_9_SafeStreets_autoscaled.png"",""./rc_img/cop_condGroup_9_CommunitySafety_autoscaled.png""]",5,NA,NA,"NJ_1880","NJ_1880",2,2,2,2,2,2,4,"NJ_1880",2,3,3,3,2,2,"NJ_1880",2,0,4,1,0,1,1,"50","female","woman","","76115","thank you!"
"32","sliderTrial","html-slider-response",110,508781,"0.0-110.0",NA,"656776a7904ae00d6b91d1dd","6568acf16915e4810e9b555f",11,NA,NA,NA,NA,NA,NA,NA,NA,NA,NA,NA,"2359","[""SV_PolicingMSA/NJ_1880/IMG_10_1880.jpg"",""SV_PolicingMSA/NJ_1880/IMG_12_1880.jpg"",""SV_PolicingMSA/NJ_1880/IMG_3_1880.jpg"",""SV_PolicingMSA/NJ_1880/IMG_2_1880.jpg"",""SV_PolicingMSA/NJ_1880/IMG_8_1880.jpg"",""SV_PolicingMSA/NJ_1880/IMG_13_1880.jpg"",""SV_PolicingMSA/NJ_1880/IMG_6_1880.jpg"",""SV_PolicingMSA/NJ_1880/IMG_11_1880.jpg""]","3",NA,NA,NA,NA,NA,2,NA,4,"[""./rc_img/cop_condGroup_4_SafeStreets_autoscaled.png"",""./rc_img/cop_condGroup_4_CommunitySafety_autoscaled.png""]",5,NA,NA,"NJ_1880","NJ_1880",2,2,2,2,2,2,4,"NJ_1880",2,3,3,3,2,2,"NJ_1880",2,0,4,1,0,1,1,"50","female","woman","","76115","thank you!"
"33","sliderTrial","html-slider-response",123,551693,"0.0-123.0",NA,"656776a7904ae00d6b91d1dd","6568acf16915e4810e9b555f",11,NA,NA,NA,NA,NA,NA,NA,NA,NA,NA,NA,"4749","[""SV_PolicingMSA/NY_2731/IMG_2_2731.jpg"",""SV_PolicingMSA/NY_2731/IMG_9_2731.jpg"",""SV_PolicingMSA/NY_2731/IMG_3_2731.jpg"",""SV_PolicingMSA/NY_2731/IMG_11_2731.jpg"",""SV_PolicingMSA/NY_2731/IMG_5_2731.jpg"",""SV_PolicingMSA/NY_2731/IMG_8_2731.jpg"",""SV_PolicingMSA/NY_2731/IMG_12_2731.jpg"",""SV_PolicingMSA/NY_2731/IMG_10_2731.jpg""]","3",NA,NA,NA,NA,NA,3,NA,4,"[""./rc_img/cop_condGroup_7_SafeStreets_autoscaled.png"",""./rc_img/cop_condGroup_7_CommunitySafety_autoscaled.png""]",5,NA,NA,"NY_2731","NY_2731",3,1,1,0,1,1,6,"NY_2731",3,3,3,3,1,1,"NY_2731",3,0,4,0,0,1,1,"50","female","woman","","76115","thank you!"
"34","sliderTrial","html-slider-response",124,555057,"0.0-124.0",NA,"656776a7904ae00d6b91d1dd","6568acf16915e4810e9b555f",11,NA,NA,NA,NA,NA,NA,NA,NA,NA,NA,NA,"3362","[""SV_PolicingMSA/NY_2731/IMG_2_2731.jpg"",""SV_PolicingMSA/NY_2731/IMG_9_2731.jpg"",""SV_PolicingMSA/NY_2731/IMG_3_2731.jpg"",""SV_PolicingMSA/NY_2731/IMG_11_2731.jpg"",""SV_PolicingMSA/NY_2731/IMG_5_2731.jpg"",""SV_PolicingMSA/NY_2731/IMG_8_2731.jpg"",""SV_PolicingMSA/NY_2731/IMG_12_2731.jpg"",""SV_PolicingMSA/NY_2731/IMG_10_2731.jpg""]","5",NA,NA,NA,NA,NA,3,NA,4,"[""./rc_img/cop_condGroup_6_CommunitySafety_autoscaled.png"",""./rc_img/cop_condGroup_6_SafeStreets_autoscaled.png""]",5,NA,NA,"NY_2731","NY_2731",3,1,1,0,1,1,6,"NY_2731",3,3,3,3,1,1,"NY_2731",3,0,4,0,0,1,1,"50","female","woman","","76115","thank you!"
"35","sliderTrial","html-slider-response",125,557719,"0.0-125.0",NA,"656776a7904ae00d6b91d1dd","6568acf16915e4810e9b555f",11,NA,NA,NA,NA,NA,NA,NA,NA,NA,NA,NA,"2661","[""SV_PolicingMSA/NY_2731/IMG_2_2731.jpg"",""SV_PolicingMSA/NY_2731/IMG_9_2731.jpg"",""SV_PolicingMSA/NY_2731/IMG_3_2731.jpg"",""SV_PolicingMSA/NY_2731/IMG_11_2731.jpg"",""SV_PolicingMSA/NY_2731/IMG_5_2731.jpg"",""SV_PolicingMSA/NY_2731/IMG_8_2731.jpg"",""SV_PolicingMSA/NY_2731/IMG_12_2731.jpg"",""SV_PolicingMSA/NY_2731/IMG_10_2731.jpg""]","3",NA,NA,NA,NA,NA,3,NA,4,"[""./rc_img/cop_condGroup_10_SafeStreets_autoscaled.png"",""./rc_img/cop_condGroup_10_CommunitySafety_autoscaled.png""]",5,NA,NA,"NY_2731","NY_2731",3,1,1,0,1,1,6,"NY_2731",3,3,3,3,1,1,"NY_2731",3,0,4,0,0,1,1,"50","female","woman","","76115","thank you!"
"36","sliderTrial","html-slider-response",126,559889,"0.0-126.0",NA,"656776a7904ae00d6b91d1dd","6568acf16915e4810e9b555f",11,NA,NA,NA,NA,NA,NA,NA,NA,NA,NA,NA,"2169","[""SV_PolicingMSA/NY_2731/IMG_2_2731.jpg"",""SV_PolicingMSA/NY_2731/IMG_9_2731.jpg"",""SV_PolicingMSA/NY_2731/IMG_3_2731.jpg"",""SV_PolicingMSA/NY_2731/IMG_11_2731.jpg"",""SV_PolicingMSA/NY_2731/IMG_5_2731.jpg"",""SV_PolicingMSA/NY_2731/IMG_8_2731.jpg"",""SV_PolicingMSA/NY_2731/IMG_12_2731.jpg"",""SV_PolicingMSA/NY_2731/IMG_10_2731.jpg""]","5",NA,NA,NA,NA,NA,3,NA,4,"[""./rc_img/cop_condGroup_18_CommunitySafety_autoscaled.png"",""./rc_img/cop_condGroup_18_SafeStreets_autoscaled.png""]",5,NA,NA,"NY_2731","NY_2731",3,1,1,0,1,1,6,"NY_2731",3,3,3,3,1,1,"NY_2731",3,0,4,0,0,1,1,"50","female","woman","","76115","thank you!"
"37","sliderTrial","html-slider-response",127,563047,"0.0-127.0",NA,"656776a7904ae00d6b91d1dd","6568acf16915e4810e9b555f",11,NA,NA,NA,NA,NA,NA,NA,NA,NA,NA,NA,"3157","[""SV_PolicingMSA/NY_2731/IMG_2_2731.jpg"",""SV_PolicingMSA/NY_2731/IMG_9_2731.jpg"",""SV_PolicingMSA/NY_2731/IMG_3_2731.jpg"",""SV_PolicingMSA/NY_2731/IMG_11_2731.jpg"",""SV_PolicingMSA/NY_2731/IMG_5_2731.jpg"",""SV_PolicingMSA/NY_2731/IMG_8_2731.jpg"",""SV_PolicingMSA/NY_2731/IMG_12_2731.jpg"",""SV_PolicingMSA/NY_2731/IMG_10_2731.jpg""]","5",NA,NA,NA,NA,NA,3,NA,4,"[""./rc_img/cop_condGroup_15_CommunitySafety_autoscaled.png"",""./rc_img/cop_condGroup_15_SafeStreets_autoscaled.png""]",5,NA,NA,"NY_2731","NY_2731",3,1,1,0,1,1,6,"NY_2731",3,3,3,3,1,1,"NY_2731",3,0,4,0,0,1,1,"50","female","woman","","76115","thank you!"
"38","sliderTrial","html-slider-response",140,602991,"0.0-140.0",NA,"656776a7904ae00d6b91d1dd","6568acf16915e4810e9b555f",11,NA,NA,NA,NA,NA,NA,NA,NA,NA,NA,NA,"4386","[""SV_PolicingMSA/NY_4752/IMG_2_4752.jpg"",""SV_PolicingMSA/NY_4752/IMG_7_4752.jpg"",""SV_PolicingMSA/NY_4752/IMG_12_4752.jpg"",""SV_PolicingMSA/NY_4752/IMG_4_4752.jpg"",""SV_PolicingMSA/NY_4752/IMG_9_4752.jpg"",""SV_PolicingMSA/NY_4752/IMG_6_4752.jpg"",""SV_PolicingMSA/NY_4752/IMG_3_4752.jpg"",""SV_PolicingMSA/NY_4752/IMG_0_4752.jpg""]","3",NA,NA,NA,NA,NA,5,NA,4,"[""./rc_img/cop_condGroup_7_SafeStreets_autoscaled.png"",""./rc_img/cop_condGroup_7_CommunitySafety_autoscaled.png""]",5,NA,NA,"NY_4752","NY_4752",5,1,2,2,2,2,8,"NY_4752",5,3,3,3,1,1,"NY_4752",5,0,3,1,0,1,1,"50","female","woman","","76115","thank you!"
"39","sliderTrial","html-slider-response",141,607431,"0.0-141.0",NA,"656776a7904ae00d6b91d1dd","6568acf16915e4810e9b555f",11,NA,NA,NA,NA,NA,NA,NA,NA,NA,NA,NA,"4439","[""SV_PolicingMSA/NY_4752/IMG_2_4752.jpg"",""SV_PolicingMSA/NY_4752/IMG_7_4752.jpg"",""SV_PolicingMSA/NY_4752/IMG_12_4752.jpg"",""SV_PolicingMSA/NY_4752/IMG_4_4752.jpg"",""SV_PolicingMSA/NY_4752/IMG_9_4752.jpg"",""SV_PolicingMSA/NY_4752/IMG_6_4752.jpg"",""SV_PolicingMSA/NY_4752/IMG_3_4752.jpg"",""SV_PolicingMSA/NY_4752/IMG_0_4752.jpg""]","5",NA,NA,NA,NA,NA,5,NA,4,"[""./rc_img/cop_condGroup_6_CommunitySafety_autoscaled.png"",""./rc_img/cop_condGroup_6_SafeStreets_autoscaled.png""]",5,NA,NA,"NY_4752","NY_4752",5,1,2,2,2,2,8,"NY_4752",5,3,3,3,1,1,"NY_4752",5,0,3,1,0,1,1,"50","female","woman","","76115","thank you!"
"40","sliderTrial","html-slider-response",142,610133,"0.0-142.0",NA,"656776a7904ae00d6b91d1dd","6568acf16915e4810e9b555f",11,NA,NA,NA,NA,NA,NA,NA,NA,NA,NA,NA,"2700","[""SV_PolicingMSA/NY_4752/IMG_2_4752.jpg"",""SV_PolicingMSA/NY_4752/IMG_7_4752.jpg"",""SV_PolicingMSA/NY_4752/IMG_12_4752.jpg"",""SV_PolicingMSA/NY_4752/IMG_4_4752.jpg"",""SV_PolicingMSA/NY_4752/IMG_9_4752.jpg"",""SV_PolicingMSA/NY_4752/IMG_6_4752.jpg"",""SV_PolicingMSA/NY_4752/IMG_3_4752.jpg"",""SV_PolicingMSA/NY_4752/IMG_0_4752.jpg""]","3",NA,NA,NA,NA,NA,5,NA,4,"[""./rc_img/cop_condGroup_10_SafeStreets_autoscaled.png"",""./rc_img/cop_condGroup_10_CommunitySafety_autoscaled.png""]",5,NA,NA,"NY_4752","NY_4752",5,1,2,2,2,2,8,"NY_4752",5,3,3,3,1,1,"NY_4752",5,0,3,1,0,1,1,"50","female","woman","","76115","thank you!"
"41","sliderTrial","html-slider-response",143,612195,"0.0-143.0",NA,"656776a7904ae00d6b91d1dd","6568acf16915e4810e9b555f",11,NA,NA,NA,NA,NA,NA,NA,NA,NA,NA,NA,"2061","[""SV_PolicingMSA/NY_4752/IMG_2_4752.jpg"",""SV_PolicingMSA/NY_4752/IMG_7_4752.jpg"",""SV_PolicingMSA/NY_4752/IMG_12_4752.jpg"",""SV_PolicingMSA/NY_4752/IMG_4_4752.jpg"",""SV_PolicingMSA/NY_4752/IMG_9_4752.jpg"",""SV_PolicingMSA/NY_4752/IMG_6_4752.jpg"",""SV_PolicingMSA/NY_4752/IMG_3_4752.jpg"",""SV_PolicingMSA/NY_4752/IMG_0_4752.jpg""]","5",NA,NA,NA,NA,NA,5,NA,4,"[""./rc_img/cop_condGroup_18_CommunitySafety_autoscaled.png"",""./rc_img/cop_condGroup_18_SafeStreets_autoscaled.png""]",5,NA,NA,"NY_4752","NY_4752",5,1,2,2,2,2,8,"NY_4752",5,3,3,3,1,1,"NY_4752",5,0,3,1,0,1,1,"50","female","woman","","76115","thank you!"
"42","sliderTrial","html-slider-response",144,616235,"0.0-144.0",NA,"656776a7904ae00d6b91d1dd","6568acf16915e4810e9b555f",11,NA,NA,NA,NA,NA,NA,NA,NA,NA,NA,NA,"4039","[""SV_PolicingMSA/NY_4752/IMG_2_4752.jpg"",""SV_PolicingMSA/NY_4752/IMG_7_4752.jpg"",""SV_PolicingMSA/NY_4752/IMG_12_4752.jpg"",""SV_PolicingMSA/NY_4752/IMG_4_4752.jpg"",""SV_PolicingMSA/NY_4752/IMG_9_4752.jpg"",""SV_PolicingMSA/NY_4752/IMG_6_4752.jpg"",""SV_PolicingMSA/NY_4752/IMG_3_4752.jpg"",""SV_PolicingMSA/NY_4752/IMG_0_4752.jpg""]","5",NA,NA,NA,NA,NA,5,NA,4,"[""./rc_img/cop_condGroup_15_CommunitySafety_autoscaled.png"",""./rc_img/cop_condGroup_15_SafeStreets_autoscaled.png""]",5,NA,NA,"NY_4752","NY_4752",5,1,2,2,2,2,8,"NY_4752",5,3,3,3,1,1,"NY_4752",5,0,3,1,0,1,1,"50","female","woman","","76115","thank you!"
