"","task","trial_type","trial_index","time_elapsed","internal_node_id","subject_id","study_id","session_id","section","width","height","webaudio","browser","browser_version","mobile","os","fullscreen","vsync_rate","webcam","microphone","rt","stimulus","response","success","timeout","failed_images","failed_audio","failed_video","block.x.x","accuracy","slider_start","choices","correct","standardized_response","num_attention_checks_correct","stim_tract","stim_tractT","block.x","P0_Q1.wealthy","P0_Q1.safe","P0_Q1.walkable","P0_Q1.traditional","P0_Q1.diverse","block_fixed","stim_tractT.x","block.y","P0_Q1.violence","P0_Q1.crime","P0_Q1.drug","P0_Q1.schools","P0_Q1.opportunities","stim_tractT.y","block.y.y","P0_Q1.movein","P0_Q1.moveout","P0_Q1.shopping","P0_Q1.walk","P0_Q1.park","P0_Q1.school","age","sex","gender","gender-self-describe","zipcode","surveyComments"
"1","sliderTrial_attention","html-slider-response",18,126702,"0.0-18.0",NA,"656776a7904ae00d6b91d1dd","6568aa415bf7d1b82e42e951",4,NA,NA,NA,NA,NA,NA,NA,NA,NA,NA,NA,"null","[""SV_PolicingMSA/CO_252/IMG_14_252.jpg"",""SV_PolicingMSA/CO_252/IMG_3_252.jpg"",""SV_PolicingMSA/CO_252/IMG_11_252.jpg"",""SV_PolicingMSA/CO_252/IMG_6_252.jpg"",""SV_PolicingMSA/CO_252/IMG_0_252.jpg"",""SV_PolicingMSA/CO_252/IMG_8_252.jpg"",""SV_PolicingMSA/CO_252/IMG_7_252.jpg"",""SV_PolicingMSA/CO_252/IMG_12_252.jpg""]","null",NA,NA,NA,NA,NA,0,NA,4,"[""./assets/img/attnchk.png"",""./assets/img/attnchk.png""]",TRUE,NA,NA,"CO_252/","CO_252",0,1,1,2,2,1,1,"CO_252",0,2,3,2,2,2,"CO_252",0,1,3,1,0,1,1,"51","male","man","","80634",""
"2","sliderTrial","html-slider-response",19,140077,"0.0-19.0",NA,"656776a7904ae00d6b91d1dd","6568aa415bf7d1b82e42e951",4,NA,NA,NA,NA,NA,NA,NA,NA,NA,NA,NA,"13370","[""SV_PolicingMSA/CO_252/IMG_14_252.jpg"",""SV_PolicingMSA/CO_252/IMG_3_252.jpg"",""SV_PolicingMSA/CO_252/IMG_11_252.jpg"",""SV_PolicingMSA/CO_252/IMG_6_252.jpg"",""SV_PolicingMSA/CO_252/IMG_0_252.jpg"",""SV_PolicingMSA/CO_252/IMG_8_252.jpg"",""SV_PolicingMSA/CO_252/IMG_7_252.jpg"",""SV_PolicingMSA/CO_252/IMG_12_252.jpg""]","4",NA,NA,NA,NA,NA,0,NA,4,"[""./rc_img/cop_condGroup_4_SafeStreets_autoscaled.png"",""./rc_img/cop_condGroup_4_CommunitySafety_autoscaled.png""]",NA,4,NA,"CO_252/","CO_252",0,1,1,2,2,1,1,"CO_252",0,2,3,2,2,2,"CO_252",0,1,3,1,0,1,1,"51","male","man","","80634",""
"3","sliderTrial","html-slider-response",20,152443,"0.0-20.0",NA,"656776a7904ae00d6b91d1dd","6568aa415bf7d1b82e42e951",4,NA,NA,NA,NA,NA,NA,NA,NA,NA,NA,NA,"12365","[""SV_PolicingMSA/CO_252/IMG_14_252.jpg"",""SV_PolicingMSA/CO_252/IMG_3_252.jpg"",""SV_PolicingMSA/CO_252/IMG_11_252.jpg"",""SV_PolicingMSA/CO_252/IMG_6_252.jpg"",""SV_PolicingMSA/CO_252/IMG_0_252.jpg"",""SV_PolicingMSA/CO_252/IMG_8_252.jpg"",""SV_PolicingMSA/CO_252/IMG_7_252.jpg"",""SV_PolicingMSA/CO_252/IMG_12_252.jpg""]","4",NA,NA,NA,NA,NA,0,NA,4,"[""./rc_img/cop_condGroup_2_SafeStreets_autoscaled.png"",""./rc_img/cop_condGroup_2_CommunitySafety_autoscaled.png""]",NA,4,NA,"CO_252/","CO_252",0,1,1,2,2,1,1,"CO_252",0,2,3,2,2,2,"CO_252",0,1,3,1,0,1,1,"51","male","man","","80634",""
"4","sliderTrial","html-slider-response",21,156482,"0.0-21.0",NA,"656776a7904ae00d6b91d1dd","6568aa415bf7d1b82e42e951",4,NA,NA,NA,NA,NA,NA,NA,NA,NA,NA,NA,"4039","[""SV_PolicingMSA/CO_252/IMG_14_252.jpg"",""SV_PolicingMSA/CO_252/IMG_3_252.jpg"",""SV_PolicingMSA/CO_252/IMG_11_252.jpg"",""SV_PolicingMSA/CO_252/IMG_6_252.jpg"",""SV_PolicingMSA/CO_252/IMG_0_252.jpg"",""SV_PolicingMSA/CO_252/IMG_8_252.jpg"",""SV_PolicingMSA/CO_252/IMG_7_252.jpg"",""SV_PolicingMSA/CO_252/IMG_12_252.jpg""]","4",NA,NA,NA,NA,NA,0,NA,4,"[""./rc_img/cop_condGroup_3_SafeStreets_autoscaled.png"",""./rc_img/cop_condGroup_3_CommunitySafety_autoscaled.png""]",NA,4,NA,"CO_252/","CO_252",0,1,1,2,2,1,1,"CO_252",0,2,3,2,2,2,"CO_252",0,1,3,1,0,1,1,"51","male","man","","80634",""
"5","sliderTrial","html-slider-response",22,158331,"0.0-22.0",NA,"656776a7904ae00d6b91d1dd","6568aa415bf7d1b82e42e951",4,NA,NA,NA,NA,NA,NA,NA,NA,NA,NA,NA,"1847","[""SV_PolicingMSA/CO_252/IMG_14_252.jpg"",""SV_PolicingMSA/CO_252/IMG_3_252.jpg"",""SV_PolicingMSA/CO_252/IMG_11_252.jpg"",""SV_PolicingMSA/CO_252/IMG_6_252.jpg"",""SV_PolicingMSA/CO_252/IMG_0_252.jpg"",""SV_PolicingMSA/CO_252/IMG_8_252.jpg"",""SV_PolicingMSA/CO_252/IMG_7_252.jpg"",""SV_PolicingMSA/CO_252/IMG_12_252.jpg""]","4",NA,NA,NA,NA,NA,0,NA,4,"[""./rc_img/cop_condGroup_1_SafeStreets_autoscaled.png"",""./rc_img/cop_condGroup_1_CommunitySafety_autoscaled.png""]",NA,4,NA,"CO_252/","CO_252",0,1,1,2,2,1,1,"CO_252",0,2,3,2,2,2,"CO_252",0,1,3,1,0,1,1,"51","male","man","","80634",""
"6","sliderTrial","html-slider-response",23,164217,"0.0-23.0",NA,"656776a7904ae00d6b91d1dd","6568aa415bf7d1b82e42e951",4,NA,NA,NA,NA,NA,NA,NA,NA,NA,NA,NA,"5884","[""SV_PolicingMSA/CO_252/IMG_14_252.jpg"",""SV_PolicingMSA/CO_252/IMG_3_252.jpg"",""SV_PolicingMSA/CO_252/IMG_11_252.jpg"",""SV_PolicingMSA/CO_252/IMG_6_252.jpg"",""SV_PolicingMSA/CO_252/IMG_0_252.jpg"",""SV_PolicingMSA/CO_252/IMG_8_252.jpg"",""SV_PolicingMSA/CO_252/IMG_7_252.jpg"",""SV_PolicingMSA/CO_252/IMG_12_252.jpg""]","4",NA,NA,NA,NA,NA,0,NA,4,"[""./rc_img/cop_condGroup_6_SafeStreets_autoscaled.png"",""./rc_img/cop_condGroup_6_CommunitySafety_autoscaled.png""]",NA,4,NA,"CO_252/","CO_252",0,1,1,2,2,1,1,"CO_252",0,2,3,2,2,2,"CO_252",0,1,3,1,0,1,1,"51","male","man","","80634",""
"7","sliderTrial","html-slider-response",36,230978,"0.0-36.0",NA,"656776a7904ae00d6b91d1dd","6568aa415bf7d1b82e42e951",4,NA,NA,NA,NA,NA,NA,NA,NA,NA,NA,NA,"6182","[""SV_PolicingMSA/CO_674/IMG_8_674.jpg"",""SV_PolicingMSA/CO_674/IMG_4_674.jpg"",""SV_PolicingMSA/CO_674/IMG_13_674.jpg"",""SV_PolicingMSA/CO_674/IMG_7_674.jpg"",""SV_PolicingMSA/CO_674/IMG_0_674.jpg"",""SV_PolicingMSA/CO_674/IMG_2_674.jpg"",""SV_PolicingMSA/CO_674/IMG_10_674.jpg"",""SV_PolicingMSA/CO_674/IMG_14_674.jpg""]","3",NA,NA,NA,NA,NA,4,NA,4,"[""./rc_img/cop_condGroup_16_CommunitySafety_autoscaled.png"",""./rc_img/cop_condGroup_16_SafeStreets_autoscaled.png""]",NA,3,NA,"CO_674/","CO_674",4,3,3,3,3,3,7,"CO_674",4,1,1,1,3,2,"CO_674",4,3,1,3,2,2,3,"51","male","man","","80634",""
"8","sliderTrial","html-slider-response",37,235393,"0.0-37.0",NA,"656776a7904ae00d6b91d1dd","6568aa415bf7d1b82e42e951",4,NA,NA,NA,NA,NA,NA,NA,NA,NA,NA,NA,"4414","[""SV_PolicingMSA/CO_674/IMG_8_674.jpg"",""SV_PolicingMSA/CO_674/IMG_4_674.jpg"",""SV_PolicingMSA/CO_674/IMG_13_674.jpg"",""SV_PolicingMSA/CO_674/IMG_7_674.jpg"",""SV_PolicingMSA/CO_674/IMG_0_674.jpg"",""SV_PolicingMSA/CO_674/IMG_2_674.jpg"",""SV_PolicingMSA/CO_674/IMG_10_674.jpg"",""SV_PolicingMSA/CO_674/IMG_14_674.jpg""]","5",NA,NA,NA,NA,NA,4,NA,4,"[""./rc_img/cop_condGroup_10_SafeStreets_autoscaled.png"",""./rc_img/cop_condGroup_10_CommunitySafety_autoscaled.png""]",NA,3,NA,"CO_674/","CO_674",4,3,3,3,3,3,7,"CO_674",4,1,1,1,3,2,"CO_674",4,3,1,3,2,2,3,"51","male","man","","80634",""
"9","sliderTrial","html-slider-response",38,238521,"0.0-38.0",NA,"656776a7904ae00d6b91d1dd","6568aa415bf7d1b82e42e951",4,NA,NA,NA,NA,NA,NA,NA,NA,NA,NA,NA,"3127","[""SV_PolicingMSA/CO_674/IMG_8_674.jpg"",""SV_PolicingMSA/CO_674/IMG_4_674.jpg"",""SV_PolicingMSA/CO_674/IMG_13_674.jpg"",""SV_PolicingMSA/CO_674/IMG_7_674.jpg"",""SV_PolicingMSA/CO_674/IMG_0_674.jpg"",""SV_PolicingMSA/CO_674/IMG_2_674.jpg"",""SV_PolicingMSA/CO_674/IMG_10_674.jpg"",""SV_PolicingMSA/CO_674/IMG_14_674.jpg""]","3",NA,NA,NA,NA,NA,4,NA,4,"[""./rc_img/cop_condGroup_14_CommunitySafety_autoscaled.png"",""./rc_img/cop_condGroup_14_SafeStreets_autoscaled.png""]",NA,3,NA,"CO_674/","CO_674",4,3,3,3,3,3,7,"CO_674",4,1,1,1,3,2,"CO_674",4,3,1,3,2,2,3,"51","male","man","","80634",""
"10","sliderTrial","html-slider-response",39,241890,"0.0-39.0",NA,"656776a7904ae00d6b91d1dd","6568aa415bf7d1b82e42e951",4,NA,NA,NA,NA,NA,NA,NA,NA,NA,NA,NA,"3367","[""SV_PolicingMSA/CO_674/IMG_8_674.jpg"",""SV_PolicingMSA/CO_674/IMG_4_674.jpg"",""SV_PolicingMSA/CO_674/IMG_13_674.jpg"",""SV_PolicingMSA/CO_674/IMG_7_674.jpg"",""SV_PolicingMSA/CO_674/IMG_0_674.jpg"",""SV_PolicingMSA/CO_674/IMG_2_674.jpg"",""SV_PolicingMSA/CO_674/IMG_10_674.jpg"",""SV_PolicingMSA/CO_674/IMG_14_674.jpg""]","3",NA,NA,NA,NA,NA,4,NA,4,"[""./rc_img/cop_condGroup_11_CommunitySafety_autoscaled.png"",""./rc_img/cop_condGroup_11_SafeStreets_autoscaled.png""]",NA,3,NA,"CO_674/","CO_674",4,3,3,3,3,3,7,"CO_674",4,1,1,1,3,2,"CO_674",4,3,1,3,2,2,3,"51","male","man","","80634",""
"11","sliderTrial","html-slider-response",40,246705,"0.0-40.0",NA,"656776a7904ae00d6b91d1dd","6568aa415bf7d1b82e42e951",4,NA,NA,NA,NA,NA,NA,NA,NA,NA,NA,NA,"4814","[""SV_PolicingMSA/CO_674/IMG_8_674.jpg"",""SV_PolicingMSA/CO_674/IMG_4_674.jpg"",""SV_PolicingMSA/CO_674/IMG_13_674.jpg"",""SV_PolicingMSA/CO_674/IMG_7_674.jpg"",""SV_PolicingMSA/CO_674/IMG_0_674.jpg"",""SV_PolicingMSA/CO_674/IMG_2_674.jpg"",""SV_PolicingMSA/CO_674/IMG_10_674.jpg"",""SV_PolicingMSA/CO_674/IMG_14_674.jpg""]","4",NA,NA,NA,NA,NA,4,NA,4,"[""./rc_img/cop_condGroup_17_SafeStreets_autoscaled.png"",""./rc_img/cop_condGroup_17_CommunitySafety_autoscaled.png""]",NA,4,NA,"CO_674/","CO_674",4,3,3,3,3,3,7,"CO_674",4,1,1,1,3,2,"CO_674",4,3,1,3,2,2,3,"51","male","man","","80634",""
"12","sliderTrial_attention","html-slider-response",53,312923,"0.0-53.0",NA,"656776a7904ae00d6b91d1dd","6568aa415bf7d1b82e42e951",4,NA,NA,NA,NA,NA,NA,NA,NA,NA,NA,NA,"null","[""SV_PolicingMSA/CO_368/IMG_4_368.jpg"",""SV_PolicingMSA/CO_368/IMG_7_368.jpg"",""SV_PolicingMSA/CO_368/IMG_6_368.jpg"",""SV_PolicingMSA/CO_368/IMG_1_368.jpg"",""SV_PolicingMSA/CO_368/IMG_10_368.jpg"",""SV_PolicingMSA/CO_368/IMG_9_368.jpg"",""SV_PolicingMSA/CO_368/IMG_2_368.jpg"",""SV_PolicingMSA/CO_368/IMG_11_368.jpg""]","null",NA,NA,NA,NA,NA,1,NA,4,"[""./assets/img/attnchk.png"",""./assets/img/attnchk.png""]",TRUE,NA,NA,"CO_368/","CO_368",1,1,1,0,0,2,2,"CO_368",1,2,3,3,1,1,"CO_368",1,0,4,0,0,0,0,"51","male","man","","80634",""
"13","sliderTrial","html-slider-response",54,315712,"0.0-54.0",NA,"656776a7904ae00d6b91d1dd","6568aa415bf7d1b82e42e951",4,NA,NA,NA,NA,NA,NA,NA,NA,NA,NA,NA,"2786","[""SV_PolicingMSA/CO_368/IMG_4_368.jpg"",""SV_PolicingMSA/CO_368/IMG_7_368.jpg"",""SV_PolicingMSA/CO_368/IMG_6_368.jpg"",""SV_PolicingMSA/CO_368/IMG_1_368.jpg"",""SV_PolicingMSA/CO_368/IMG_10_368.jpg"",""SV_PolicingMSA/CO_368/IMG_9_368.jpg"",""SV_PolicingMSA/CO_368/IMG_2_368.jpg"",""SV_PolicingMSA/CO_368/IMG_11_368.jpg""]","4",NA,NA,NA,NA,NA,1,NA,4,"[""./rc_img/cop_condGroup_7_CommunitySafety_autoscaled.png"",""./rc_img/cop_condGroup_7_SafeStreets_autoscaled.png""]",NA,4,NA,"CO_368/","CO_368",1,1,1,0,0,2,2,"CO_368",1,2,3,3,1,1,"CO_368",1,0,4,0,0,0,0,"51","male","man","","80634",""
"14","sliderTrial","html-slider-response",55,318244,"0.0-55.0",NA,"656776a7904ae00d6b91d1dd","6568aa415bf7d1b82e42e951",4,NA,NA,NA,NA,NA,NA,NA,NA,NA,NA,NA,"2529","[""SV_PolicingMSA/CO_368/IMG_4_368.jpg"",""SV_PolicingMSA/CO_368/IMG_7_368.jpg"",""SV_PolicingMSA/CO_368/IMG_6_368.jpg"",""SV_PolicingMSA/CO_368/IMG_1_368.jpg"",""SV_PolicingMSA/CO_368/IMG_10_368.jpg"",""SV_PolicingMSA/CO_368/IMG_9_368.jpg"",""SV_PolicingMSA/CO_368/IMG_2_368.jpg"",""SV_PolicingMSA/CO_368/IMG_11_368.jpg""]","4",NA,NA,NA,NA,NA,1,NA,4,"[""./rc_img/cop_condGroup_8_CommunitySafety_autoscaled.png"",""./rc_img/cop_condGroup_8_SafeStreets_autoscaled.png""]",NA,4,NA,"CO_368/","CO_368",1,1,1,0,0,2,2,"CO_368",1,2,3,3,1,1,"CO_368",1,0,4,0,0,0,0,"51","male","man","","80634",""
"15","sliderTrial","html-slider-response",56,321098,"0.0-56.0",NA,"656776a7904ae00d6b91d1dd","6568aa415bf7d1b82e42e951",4,NA,NA,NA,NA,NA,NA,NA,NA,NA,NA,NA,"2853","[""SV_PolicingMSA/CO_368/IMG_4_368.jpg"",""SV_PolicingMSA/CO_368/IMG_7_368.jpg"",""SV_PolicingMSA/CO_368/IMG_6_368.jpg"",""SV_PolicingMSA/CO_368/IMG_1_368.jpg"",""SV_PolicingMSA/CO_368/IMG_10_368.jpg"",""SV_PolicingMSA/CO_368/IMG_9_368.jpg"",""SV_PolicingMSA/CO_368/IMG_2_368.jpg"",""SV_PolicingMSA/CO_368/IMG_11_368.jpg""]","4",NA,NA,NA,NA,NA,1,NA,4,"[""./rc_img/cop_condGroup_5_CommunitySafety_autoscaled.png"",""./rc_img/cop_condGroup_5_SafeStreets_autoscaled.png""]",NA,4,NA,"CO_368/","CO_368",1,1,1,0,0,2,2,"CO_368",1,2,3,3,1,1,"CO_368",1,0,4,0,0,0,0,"51","male","man","","80634",""
"16","sliderTrial","html-slider-response",57,324737,"0.0-57.0",NA,"656776a7904ae00d6b91d1dd","6568aa415bf7d1b82e42e951",4,NA,NA,NA,NA,NA,NA,NA,NA,NA,NA,NA,"3638","[""SV_PolicingMSA/CO_368/IMG_4_368.jpg"",""SV_PolicingMSA/CO_368/IMG_7_368.jpg"",""SV_PolicingMSA/CO_368/IMG_6_368.jpg"",""SV_PolicingMSA/CO_368/IMG_1_368.jpg"",""SV_PolicingMSA/CO_368/IMG_10_368.jpg"",""SV_PolicingMSA/CO_368/IMG_9_368.jpg"",""SV_PolicingMSA/CO_368/IMG_2_368.jpg"",""SV_PolicingMSA/CO_368/IMG_11_368.jpg""]","4",NA,NA,NA,NA,NA,1,NA,4,"[""./rc_img/cop_condGroup_12_CommunitySafety_autoscaled.png"",""./rc_img/cop_condGroup_12_SafeStreets_autoscaled.png""]",NA,4,NA,"CO_368/","CO_368",1,1,1,0,0,2,2,"CO_368",1,2,3,3,1,1,"CO_368",1,0,4,0,0,0,0,"51","male","man","","80634",""
"17","sliderTrial","html-slider-response",58,326822,"0.0-58.0",NA,"656776a7904ae00d6b91d1dd","6568aa415bf7d1b82e42e951",4,NA,NA,NA,NA,NA,NA,NA,NA,NA,NA,NA,"2083","[""SV_PolicingMSA/CO_368/IMG_4_368.jpg"",""SV_PolicingMSA/CO_368/IMG_7_368.jpg"",""SV_PolicingMSA/CO_368/IMG_6_368.jpg"",""SV_PolicingMSA/CO_368/IMG_1_368.jpg"",""SV_PolicingMSA/CO_368/IMG_10_368.jpg"",""SV_PolicingMSA/CO_368/IMG_9_368.jpg"",""SV_PolicingMSA/CO_368/IMG_2_368.jpg"",""SV_PolicingMSA/CO_368/IMG_11_368.jpg""]","4",NA,NA,NA,NA,NA,1,NA,4,"[""./rc_img/cop_condGroup_9_SafeStreets_autoscaled.png"",""./rc_img/cop_condGroup_9_CommunitySafety_autoscaled.png""]",NA,4,NA,"CO_368/","CO_368",1,1,1,0,0,2,2,"CO_368",1,2,3,3,1,1,"CO_368",1,0,4,0,0,0,0,"51","male","man","","80634",""
"18","sliderTrial","html-slider-response",71,392161,"0.0-71.0",NA,"656776a7904ae00d6b91d1dd","6568aa415bf7d1b82e42e951",4,NA,NA,NA,NA,NA,NA,NA,NA,NA,NA,NA,"3248","[""SV_PolicingMSA/CO_1308/IMG_4_1308.jpg"",""SV_PolicingMSA/CO_1308/IMG_3_1308.jpg"",""SV_PolicingMSA/CO_1308/IMG_8_1308.jpg"",""SV_PolicingMSA/CO_1308/IMG_14_1308.jpg"",""SV_PolicingMSA/CO_1308/IMG_0_1308.jpg"",""SV_PolicingMSA/CO_1308/IMG_2_1308.jpg"",""SV_PolicingMSA/CO_1308/IMG_13_1308.jpg"",""SV_PolicingMSA/CO_1308/IMG_11_1308.jpg""]","4",NA,NA,NA,NA,NA,3,NA,4,"[""./rc_img/cop_condGroup_18_CommunitySafety_autoscaled.png"",""./rc_img/cop_condGroup_18_SafeStreets_autoscaled.png""]",NA,4,NA,"CO_1308","CO_1308",3,2,2,2,1,3,5,"CO_1308",3,2,2,3,1,3,"CO_1308",3,0,2,2,2,1,2,"51","male","man","","80634",""
"19","sliderTrial","html-slider-response",72,393353,"0.0-72.0",NA,"656776a7904ae00d6b91d1dd","6568aa415bf7d1b82e42e951",4,NA,NA,NA,NA,NA,NA,NA,NA,NA,NA,NA,"1191","[""SV_PolicingMSA/CO_1308/IMG_4_1308.jpg"",""SV_PolicingMSA/CO_1308/IMG_3_1308.jpg"",""SV_PolicingMSA/CO_1308/IMG_8_1308.jpg"",""SV_PolicingMSA/CO_1308/IMG_14_1308.jpg"",""SV_PolicingMSA/CO_1308/IMG_0_1308.jpg"",""SV_PolicingMSA/CO_1308/IMG_2_1308.jpg"",""SV_PolicingMSA/CO_1308/IMG_13_1308.jpg"",""SV_PolicingMSA/CO_1308/IMG_11_1308.jpg""]","4",NA,NA,NA,NA,NA,3,NA,4,"[""./rc_img/cop_condGroup_15_CommunitySafety_autoscaled.png"",""./rc_img/cop_condGroup_15_SafeStreets_autoscaled.png""]",NA,4,NA,"CO_1308","CO_1308",3,2,2,2,1,3,5,"CO_1308",3,2,2,3,1,3,"CO_1308",3,0,2,2,2,1,2,"51","male","man","","80634",""
"20","sliderTrial","html-slider-response",73,394424,"0.0-73.0",NA,"656776a7904ae00d6b91d1dd","6568aa415bf7d1b82e42e951",4,NA,NA,NA,NA,NA,NA,NA,NA,NA,NA,NA,"1071","[""SV_PolicingMSA/CO_1308/IMG_4_1308.jpg"",""SV_PolicingMSA/CO_1308/IMG_3_1308.jpg"",""SV_PolicingMSA/CO_1308/IMG_8_1308.jpg"",""SV_PolicingMSA/CO_1308/IMG_14_1308.jpg"",""SV_PolicingMSA/CO_1308/IMG_0_1308.jpg"",""SV_PolicingMSA/CO_1308/IMG_2_1308.jpg"",""SV_PolicingMSA/CO_1308/IMG_13_1308.jpg"",""SV_PolicingMSA/CO_1308/IMG_11_1308.jpg""]","4",NA,NA,NA,NA,NA,3,NA,4,"[""./rc_img/cop_condGroup_13_CommunitySafety_autoscaled.png"",""./rc_img/cop_condGroup_13_SafeStreets_autoscaled.png""]",NA,4,NA,"CO_1308","CO_1308",3,2,2,2,1,3,5,"CO_1308",3,2,2,3,1,3,"CO_1308",3,0,2,2,2,1,2,"51","male","man","","80634",""
"21","sliderTrial","html-slider-response",74,395280,"0.0-74.0",NA,"656776a7904ae00d6b91d1dd","6568aa415bf7d1b82e42e951",4,NA,NA,NA,NA,NA,NA,NA,NA,NA,NA,NA,"854","[""SV_PolicingMSA/CO_1308/IMG_4_1308.jpg"",""SV_PolicingMSA/CO_1308/IMG_3_1308.jpg"",""SV_PolicingMSA/CO_1308/IMG_8_1308.jpg"",""SV_PolicingMSA/CO_1308/IMG_14_1308.jpg"",""SV_PolicingMSA/CO_1308/IMG_0_1308.jpg"",""SV_PolicingMSA/CO_1308/IMG_2_1308.jpg"",""SV_PolicingMSA/CO_1308/IMG_13_1308.jpg"",""SV_PolicingMSA/CO_1308/IMG_11_1308.jpg""]","4",NA,NA,NA,NA,NA,3,NA,4,"[""./rc_img/cop_condGroup_20_CommunitySafety_autoscaled.png"",""./rc_img/cop_condGroup_20_SafeStreets_autoscaled.png""]",NA,4,NA,"CO_1308","CO_1308",3,2,2,2,1,3,5,"CO_1308",3,2,2,3,1,3,"CO_1308",3,0,2,2,2,1,2,"51","male","man","","80634",""
"22","sliderTrial","html-slider-response",75,396313,"0.0-75.0",NA,"656776a7904ae00d6b91d1dd","6568aa415bf7d1b82e42e951",4,NA,NA,NA,NA,NA,NA,NA,NA,NA,NA,NA,"1033","[""SV_PolicingMSA/CO_1308/IMG_4_1308.jpg"",""SV_PolicingMSA/CO_1308/IMG_3_1308.jpg"",""SV_PolicingMSA/CO_1308/IMG_8_1308.jpg"",""SV_PolicingMSA/CO_1308/IMG_14_1308.jpg"",""SV_PolicingMSA/CO_1308/IMG_0_1308.jpg"",""SV_PolicingMSA/CO_1308/IMG_2_1308.jpg"",""SV_PolicingMSA/CO_1308/IMG_13_1308.jpg"",""SV_PolicingMSA/CO_1308/IMG_11_1308.jpg""]","4",NA,NA,NA,NA,NA,3,NA,4,"[""./rc_img/cop_condGroup_19_SafeStreets_autoscaled.png"",""./rc_img/cop_condGroup_19_CommunitySafety_autoscaled.png""]",NA,4,NA,"CO_1308","CO_1308",3,2,2,2,1,3,5,"CO_1308",3,2,2,3,1,3,"CO_1308",3,0,2,2,2,1,2,"51","male","man","","80634",""
"23","sliderTrial","html-slider-response",89,473042,"0.0-89.0",NA,"656776a7904ae00d6b91d1dd","6568aa415bf7d1b82e42e951",4,NA,NA,NA,NA,NA,NA,NA,NA,NA,NA,NA,"4755","[""SV_PolicingMSA/CO_649/IMG_11_649.jpg"",""SV_PolicingMSA/CO_649/IMG_6_649.jpg"",""SV_PolicingMSA/CO_649/IMG_14_649.jpg"",""SV_PolicingMSA/CO_649/IMG_9_649.jpg"",""SV_PolicingMSA/CO_649/IMG_12_649.jpg"",""SV_PolicingMSA/CO_649/IMG_3_649.jpg"",""SV_PolicingMSA/CO_649/IMG_4_649.jpg"",""SV_PolicingMSA/CO_649/IMG_8_649.jpg""]","4",NA,NA,NA,NA,NA,2,NA,4,"[""./rc_img/cop_condGroup_16_CommunitySafety_autoscaled.png"",""./rc_img/cop_condGroup_16_SafeStreets_autoscaled.png""]",NA,4,NA,"CO_649/","CO_649",2,2,2,2,2,3,3,"CO_649",2,2,2,2,2,2,"CO_649",2,2,2,1,1,1,1,"51","male","man","","80634",""
"24","sliderTrial","html-slider-response",90,474041,"0.0-90.0",NA,"656776a7904ae00d6b91d1dd","6568aa415bf7d1b82e42e951",4,NA,NA,NA,NA,NA,NA,NA,NA,NA,NA,NA,"997","[""SV_PolicingMSA/CO_649/IMG_11_649.jpg"",""SV_PolicingMSA/CO_649/IMG_6_649.jpg"",""SV_PolicingMSA/CO_649/IMG_14_649.jpg"",""SV_PolicingMSA/CO_649/IMG_9_649.jpg"",""SV_PolicingMSA/CO_649/IMG_12_649.jpg"",""SV_PolicingMSA/CO_649/IMG_3_649.jpg"",""SV_PolicingMSA/CO_649/IMG_4_649.jpg"",""SV_PolicingMSA/CO_649/IMG_8_649.jpg""]","4",NA,NA,NA,NA,NA,2,NA,4,"[""./rc_img/cop_condGroup_10_SafeStreets_autoscaled.png"",""./rc_img/cop_condGroup_10_CommunitySafety_autoscaled.png""]",NA,4,NA,"CO_649/","CO_649",2,2,2,2,2,3,3,"CO_649",2,2,2,2,2,2,"CO_649",2,2,2,1,1,1,1,"51","male","man","","80634",""
"25","sliderTrial","html-slider-response",91,475104,"0.0-91.0",NA,"656776a7904ae00d6b91d1dd","6568aa415bf7d1b82e42e951",4,NA,NA,NA,NA,NA,NA,NA,NA,NA,NA,NA,"1063","[""SV_PolicingMSA/CO_649/IMG_11_649.jpg"",""SV_PolicingMSA/CO_649/IMG_6_649.jpg"",""SV_PolicingMSA/CO_649/IMG_14_649.jpg"",""SV_PolicingMSA/CO_649/IMG_9_649.jpg"",""SV_PolicingMSA/CO_649/IMG_12_649.jpg"",""SV_PolicingMSA/CO_649/IMG_3_649.jpg"",""SV_PolicingMSA/CO_649/IMG_4_649.jpg"",""SV_PolicingMSA/CO_649/IMG_8_649.jpg""]","4",NA,NA,NA,NA,NA,2,NA,4,"[""./rc_img/cop_condGroup_14_CommunitySafety_autoscaled.png"",""./rc_img/cop_condGroup_14_SafeStreets_autoscaled.png""]",NA,4,NA,"CO_649/","CO_649",2,2,2,2,2,3,3,"CO_649",2,2,2,2,2,2,"CO_649",2,2,2,1,1,1,1,"51","male","man","","80634",""
"26","sliderTrial","html-slider-response",92,476234,"0.0-92.0",NA,"656776a7904ae00d6b91d1dd","6568aa415bf7d1b82e42e951",4,NA,NA,NA,NA,NA,NA,NA,NA,NA,NA,NA,"1128","[""SV_PolicingMSA/CO_649/IMG_11_649.jpg"",""SV_PolicingMSA/CO_649/IMG_6_649.jpg"",""SV_PolicingMSA/CO_649/IMG_14_649.jpg"",""SV_PolicingMSA/CO_649/IMG_9_649.jpg"",""SV_PolicingMSA/CO_649/IMG_12_649.jpg"",""SV_PolicingMSA/CO_649/IMG_3_649.jpg"",""SV_PolicingMSA/CO_649/IMG_4_649.jpg"",""SV_PolicingMSA/CO_649/IMG_8_649.jpg""]","4",NA,NA,NA,NA,NA,2,NA,4,"[""./rc_img/cop_condGroup_11_CommunitySafety_autoscaled.png"",""./rc_img/cop_condGroup_11_SafeStreets_autoscaled.png""]",NA,4,NA,"CO_649/","CO_649",2,2,2,2,2,3,3,"CO_649",2,2,2,2,2,2,"CO_649",2,2,2,1,1,1,1,"51","male","man","","80634",""
"27","sliderTrial","html-slider-response",93,477194,"0.0-93.0",NA,"656776a7904ae00d6b91d1dd","6568aa415bf7d1b82e42e951",4,NA,NA,NA,NA,NA,NA,NA,NA,NA,NA,NA,"960","[""SV_PolicingMSA/CO_649/IMG_11_649.jpg"",""SV_PolicingMSA/CO_649/IMG_6_649.jpg"",""SV_PolicingMSA/CO_649/IMG_14_649.jpg"",""SV_PolicingMSA/CO_649/IMG_9_649.jpg"",""SV_PolicingMSA/CO_649/IMG_12_649.jpg"",""SV_PolicingMSA/CO_649/IMG_3_649.jpg"",""SV_PolicingMSA/CO_649/IMG_4_649.jpg"",""SV_PolicingMSA/CO_649/IMG_8_649.jpg""]","4",NA,NA,NA,NA,NA,2,NA,4,"[""./rc_img/cop_condGroup_17_SafeStreets_autoscaled.png"",""./rc_img/cop_condGroup_17_CommunitySafety_autoscaled.png""]",NA,4,NA,"CO_649/","CO_649",2,2,2,2,2,3,3,"CO_649",2,2,2,2,2,2,"CO_649",2,2,2,1,1,1,1,"51","male","man","","80634",""
"28","sliderTrial","html-slider-response",106,533104,"0.0-106.0",NA,"656776a7904ae00d6b91d1dd","6568aa415bf7d1b82e42e951",4,NA,NA,NA,NA,NA,NA,NA,NA,NA,NA,NA,"5542","[""SV_PolicingMSA/CO_543/IMG_10_543.jpg"",""SV_PolicingMSA/CO_543/IMG_6_543.jpg"",""SV_PolicingMSA/CO_543/IMG_14_543.jpg"",""SV_PolicingMSA/CO_543/IMG_0_543.jpg"",""SV_PolicingMSA/CO_543/IMG_5_543.jpg"",""SV_PolicingMSA/CO_543/IMG_9_543.jpg"",""SV_PolicingMSA/CO_543/IMG_1_543.jpg"",""SV_PolicingMSA/CO_543/IMG_13_543.jpg""]","3",NA,NA,NA,NA,NA,2,NA,4,"[""./rc_img/cop_condGroup_4_SafeStreets_autoscaled.png"",""./rc_img/cop_condGroup_4_CommunitySafety_autoscaled.png""]",NA,5,NA,"CO_543/","CO_543",2,1,2,2,2,2,4,"CO_543",2,2,2,2,2,2,"CO_543",2,2,2,3,2,3,3,"51","male","man","","80634",""
"29","sliderTrial","html-slider-response",107,535056,"0.0-107.0",NA,"656776a7904ae00d6b91d1dd","6568aa415bf7d1b82e42e951",4,NA,NA,NA,NA,NA,NA,NA,NA,NA,NA,NA,"1952","[""SV_PolicingMSA/CO_543/IMG_10_543.jpg"",""SV_PolicingMSA/CO_543/IMG_6_543.jpg"",""SV_PolicingMSA/CO_543/IMG_14_543.jpg"",""SV_PolicingMSA/CO_543/IMG_0_543.jpg"",""SV_PolicingMSA/CO_543/IMG_5_543.jpg"",""SV_PolicingMSA/CO_543/IMG_9_543.jpg"",""SV_PolicingMSA/CO_543/IMG_1_543.jpg"",""SV_PolicingMSA/CO_543/IMG_13_543.jpg""]","5",NA,NA,NA,NA,NA,2,NA,4,"[""./rc_img/cop_condGroup_2_SafeStreets_autoscaled.png"",""./rc_img/cop_condGroup_2_CommunitySafety_autoscaled.png""]",NA,3,NA,"CO_543/","CO_543",2,1,2,2,2,2,4,"CO_543",2,2,2,2,2,2,"CO_543",2,2,2,3,2,3,3,"51","male","man","","80634",""
"30","sliderTrial","html-slider-response",108,538092,"0.0-108.0",NA,"656776a7904ae00d6b91d1dd","6568aa415bf7d1b82e42e951",4,NA,NA,NA,NA,NA,NA,NA,NA,NA,NA,NA,"3035","[""SV_PolicingMSA/CO_543/IMG_10_543.jpg"",""SV_PolicingMSA/CO_543/IMG_6_543.jpg"",""SV_PolicingMSA/CO_543/IMG_14_543.jpg"",""SV_PolicingMSA/CO_543/IMG_0_543.jpg"",""SV_PolicingMSA/CO_543/IMG_5_543.jpg"",""SV_PolicingMSA/CO_543/IMG_9_543.jpg"",""SV_PolicingMSA/CO_543/IMG_1_543.jpg"",""SV_PolicingMSA/CO_543/IMG_13_543.jpg""]","3",NA,NA,NA,NA,NA,2,NA,4,"[""./rc_img/cop_condGroup_3_SafeStreets_autoscaled.png"",""./rc_img/cop_condGroup_3_CommunitySafety_autoscaled.png""]",NA,5,NA,"CO_543/","CO_543",2,1,2,2,2,2,4,"CO_543",2,2,2,2,2,2,"CO_543",2,2,2,3,2,3,3,"51","male","man","","80634",""
"31","sliderTrial","html-slider-response",109,542055,"0.0-109.0",NA,"656776a7904ae00d6b91d1dd","6568aa415bf7d1b82e42e951",4,NA,NA,NA,NA,NA,NA,NA,NA,NA,NA,NA,"3962","[""SV_PolicingMSA/CO_543/IMG_10_543.jpg"",""SV_PolicingMSA/CO_543/IMG_6_543.jpg"",""SV_PolicingMSA/CO_543/IMG_14_543.jpg"",""SV_PolicingMSA/CO_543/IMG_0_543.jpg"",""SV_PolicingMSA/CO_543/IMG_5_543.jpg"",""SV_PolicingMSA/CO_543/IMG_9_543.jpg"",""SV_PolicingMSA/CO_543/IMG_1_543.jpg"",""SV_PolicingMSA/CO_543/IMG_13_543.jpg""]","5",NA,NA,NA,NA,NA,2,NA,4,"[""./rc_img/cop_condGroup_1_SafeStreets_autoscaled.png"",""./rc_img/cop_condGroup_1_CommunitySafety_autoscaled.png""]",NA,3,NA,"CO_543/","CO_543",2,1,2,2,2,2,4,"CO_543",2,2,2,2,2,2,"CO_543",2,2,2,3,2,3,3,"51","male","man","","80634",""
"32","sliderTrial","html-slider-response",110,543216,"0.0-110.0",NA,"656776a7904ae00d6b91d1dd","6568aa415bf7d1b82e42e951",4,NA,NA,NA,NA,NA,NA,NA,NA,NA,NA,NA,"1160","[""SV_PolicingMSA/CO_543/IMG_10_543.jpg"",""SV_PolicingMSA/CO_543/IMG_6_543.jpg"",""SV_PolicingMSA/CO_543/IMG_14_543.jpg"",""SV_PolicingMSA/CO_543/IMG_0_543.jpg"",""SV_PolicingMSA/CO_543/IMG_5_543.jpg"",""SV_PolicingMSA/CO_543/IMG_9_543.jpg"",""SV_PolicingMSA/CO_543/IMG_1_543.jpg"",""SV_PolicingMSA/CO_543/IMG_13_543.jpg""]","4",NA,NA,NA,NA,NA,2,NA,4,"[""./rc_img/cop_condGroup_6_SafeStreets_autoscaled.png"",""./rc_img/cop_condGroup_6_CommunitySafety_autoscaled.png""]",NA,4,NA,"CO_543/","CO_543",2,1,2,2,2,2,4,"CO_543",2,2,2,2,2,2,"CO_543",2,2,2,3,2,3,3,"51","male","man","","80634",""
"33","sliderTrial","html-slider-response",123,598448,"0.0-123.0",NA,"656776a7904ae00d6b91d1dd","6568aa415bf7d1b82e42e951",4,NA,NA,NA,NA,NA,NA,NA,NA,NA,NA,NA,"3940","[""SV_PolicingMSA/CO_572/IMG_3_572.jpg"",""SV_PolicingMSA/CO_572/IMG_8_572.jpg"",""SV_PolicingMSA/CO_572/IMG_14_572.jpg"",""SV_PolicingMSA/CO_572/IMG_4_572.jpg"",""SV_PolicingMSA/CO_572/IMG_11_572.jpg"",""SV_PolicingMSA/CO_572/IMG_5_572.jpg"",""SV_PolicingMSA/CO_572/IMG_1_572.jpg"",""SV_PolicingMSA/CO_572/IMG_2_572.jpg""]","4",NA,NA,NA,NA,NA,5,NA,4,"[""./rc_img/cop_condGroup_18_CommunitySafety_autoscaled.png"",""./rc_img/cop_condGroup_18_SafeStreets_autoscaled.png""]",NA,4,NA,"CO_572/","CO_572",5,2,3,3,4,2,8,"CO_572",5,1,1,1,2,2,"CO_572",5,3,1,3,3,3,3,"51","male","man","","80634",""
"34","sliderTrial","html-slider-response",124,601024,"0.0-124.0",NA,"656776a7904ae00d6b91d1dd","6568aa415bf7d1b82e42e951",4,NA,NA,NA,NA,NA,NA,NA,NA,NA,NA,NA,"2574","[""SV_PolicingMSA/CO_572/IMG_3_572.jpg"",""SV_PolicingMSA/CO_572/IMG_8_572.jpg"",""SV_PolicingMSA/CO_572/IMG_14_572.jpg"",""SV_PolicingMSA/CO_572/IMG_4_572.jpg"",""SV_PolicingMSA/CO_572/IMG_11_572.jpg"",""SV_PolicingMSA/CO_572/IMG_5_572.jpg"",""SV_PolicingMSA/CO_572/IMG_1_572.jpg"",""SV_PolicingMSA/CO_572/IMG_2_572.jpg""]","4",NA,NA,NA,NA,NA,5,NA,4,"[""./rc_img/cop_condGroup_15_CommunitySafety_autoscaled.png"",""./rc_img/cop_condGroup_15_SafeStreets_autoscaled.png""]",NA,4,NA,"CO_572/","CO_572",5,2,3,3,4,2,8,"CO_572",5,1,1,1,2,2,"CO_572",5,3,1,3,3,3,3,"51","male","man","","80634",""
"35","sliderTrial","html-slider-response",125,605514,"0.0-125.0",NA,"656776a7904ae00d6b91d1dd","6568aa415bf7d1b82e42e951",4,NA,NA,NA,NA,NA,NA,NA,NA,NA,NA,NA,"4490","[""SV_PolicingMSA/CO_572/IMG_3_572.jpg"",""SV_PolicingMSA/CO_572/IMG_8_572.jpg"",""SV_PolicingMSA/CO_572/IMG_14_572.jpg"",""SV_PolicingMSA/CO_572/IMG_4_572.jpg"",""SV_PolicingMSA/CO_572/IMG_11_572.jpg"",""SV_PolicingMSA/CO_572/IMG_5_572.jpg"",""SV_PolicingMSA/CO_572/IMG_1_572.jpg"",""SV_PolicingMSA/CO_572/IMG_2_572.jpg""]","3",NA,NA,NA,NA,NA,5,NA,4,"[""./rc_img/cop_condGroup_13_CommunitySafety_autoscaled.png"",""./rc_img/cop_condGroup_13_SafeStreets_autoscaled.png""]",NA,3,NA,"CO_572/","CO_572",5,2,3,3,4,2,8,"CO_572",5,1,1,1,2,2,"CO_572",5,3,1,3,3,3,3,"51","male","man","","80634",""
"36","sliderTrial","html-slider-response",126,607256,"0.0-126.0",NA,"656776a7904ae00d6b91d1dd","6568aa415bf7d1b82e42e951",4,NA,NA,NA,NA,NA,NA,NA,NA,NA,NA,NA,"1741","[""SV_PolicingMSA/CO_572/IMG_3_572.jpg"",""SV_PolicingMSA/CO_572/IMG_8_572.jpg"",""SV_PolicingMSA/CO_572/IMG_14_572.jpg"",""SV_PolicingMSA/CO_572/IMG_4_572.jpg"",""SV_PolicingMSA/CO_572/IMG_11_572.jpg"",""SV_PolicingMSA/CO_572/IMG_5_572.jpg"",""SV_PolicingMSA/CO_572/IMG_1_572.jpg"",""SV_PolicingMSA/CO_572/IMG_2_572.jpg""]","4",NA,NA,NA,NA,NA,5,NA,4,"[""./rc_img/cop_condGroup_20_CommunitySafety_autoscaled.png"",""./rc_img/cop_condGroup_20_SafeStreets_autoscaled.png""]",NA,4,NA,"CO_572/","CO_572",5,2,3,3,4,2,8,"CO_572",5,1,1,1,2,2,"CO_572",5,3,1,3,3,3,3,"51","male","man","","80634",""
"37","sliderTrial","html-slider-response",127,610119,"0.0-127.0",NA,"656776a7904ae00d6b91d1dd","6568aa415bf7d1b82e42e951",4,NA,NA,NA,NA,NA,NA,NA,NA,NA,NA,NA,"2863","[""SV_PolicingMSA/CO_572/IMG_3_572.jpg"",""SV_PolicingMSA/CO_572/IMG_8_572.jpg"",""SV_PolicingMSA/CO_572/IMG_14_572.jpg"",""SV_PolicingMSA/CO_572/IMG_4_572.jpg"",""SV_PolicingMSA/CO_572/IMG_11_572.jpg"",""SV_PolicingMSA/CO_572/IMG_5_572.jpg"",""SV_PolicingMSA/CO_572/IMG_1_572.jpg"",""SV_PolicingMSA/CO_572/IMG_2_572.jpg""]","4",NA,NA,NA,NA,NA,5,NA,4,"[""./rc_img/cop_condGroup_19_SafeStreets_autoscaled.png"",""./rc_img/cop_condGroup_19_CommunitySafety_autoscaled.png""]",NA,4,NA,"CO_572/","CO_572",5,2,3,3,4,2,8,"CO_572",5,1,1,1,2,2,"CO_572",5,3,1,3,3,3,3,"51","male","man","","80634",""
"38","sliderTrial","html-slider-response",140,654255,"0.0-140.0",NA,"656776a7904ae00d6b91d1dd","6568aa415bf7d1b82e42e951",4,NA,NA,NA,NA,NA,NA,NA,NA,NA,NA,NA,"5453","[""SV_PolicingMSA/CO_1325/IMG_13_1325.jpg"",""SV_PolicingMSA/CO_1325/IMG_5_1325.jpg"",""SV_PolicingMSA/CO_1325/IMG_3_1325.jpg"",""SV_PolicingMSA/CO_1325/IMG_9_1325.jpg"",""SV_PolicingMSA/CO_1325/IMG_14_1325.jpg"",""SV_PolicingMSA/CO_1325/IMG_11_1325.jpg"",""SV_PolicingMSA/CO_1325/IMG_1_1325.jpg"",""SV_PolicingMSA/CO_1325/IMG_8_1325.jpg""]","5",NA,NA,NA,NA,NA,3,NA,4,"[""./rc_img/cop_condGroup_7_CommunitySafety_autoscaled.png"",""./rc_img/cop_condGroup_7_SafeStreets_autoscaled.png""]",NA,5,NA,"CO_1325","CO_1325",3,2,2,2,2,2,6,"CO_1325",3,1,1,1,2,2,"CO_1325",3,2,2,2,2,2,2,"51","male","man","","80634",""
"39","sliderTrial","html-slider-response",141,658295,"0.0-141.0",NA,"656776a7904ae00d6b91d1dd","6568aa415bf7d1b82e42e951",4,NA,NA,NA,NA,NA,NA,NA,NA,NA,NA,NA,"4040","[""SV_PolicingMSA/CO_1325/IMG_13_1325.jpg"",""SV_PolicingMSA/CO_1325/IMG_5_1325.jpg"",""SV_PolicingMSA/CO_1325/IMG_3_1325.jpg"",""SV_PolicingMSA/CO_1325/IMG_9_1325.jpg"",""SV_PolicingMSA/CO_1325/IMG_14_1325.jpg"",""SV_PolicingMSA/CO_1325/IMG_11_1325.jpg"",""SV_PolicingMSA/CO_1325/IMG_1_1325.jpg"",""SV_PolicingMSA/CO_1325/IMG_8_1325.jpg""]","7",NA,NA,NA,NA,NA,3,NA,4,"[""./rc_img/cop_condGroup_8_CommunitySafety_autoscaled.png"",""./rc_img/cop_condGroup_8_SafeStreets_autoscaled.png""]",NA,7,NA,"CO_1325","CO_1325",3,2,2,2,2,2,6,"CO_1325",3,1,1,1,2,2,"CO_1325",3,2,2,2,2,2,2,"51","male","man","","80634",""
"40","sliderTrial","html-slider-response",142,662407,"0.0-142.0",NA,"656776a7904ae00d6b91d1dd","6568aa415bf7d1b82e42e951",4,NA,NA,NA,NA,NA,NA,NA,NA,NA,NA,NA,"4110","[""SV_PolicingMSA/CO_1325/IMG_13_1325.jpg"",""SV_PolicingMSA/CO_1325/IMG_5_1325.jpg"",""SV_PolicingMSA/CO_1325/IMG_3_1325.jpg"",""SV_PolicingMSA/CO_1325/IMG_9_1325.jpg"",""SV_PolicingMSA/CO_1325/IMG_14_1325.jpg"",""SV_PolicingMSA/CO_1325/IMG_11_1325.jpg"",""SV_PolicingMSA/CO_1325/IMG_1_1325.jpg"",""SV_PolicingMSA/CO_1325/IMG_8_1325.jpg""]","7",NA,NA,NA,NA,NA,3,NA,4,"[""./rc_img/cop_condGroup_5_CommunitySafety_autoscaled.png"",""./rc_img/cop_condGroup_5_SafeStreets_autoscaled.png""]",NA,7,NA,"CO_1325","CO_1325",3,2,2,2,2,2,6,"CO_1325",3,1,1,1,2,2,"CO_1325",3,2,2,2,2,2,2,"51","male","man","","80634",""
"41","sliderTrial","html-slider-response",143,666158,"0.0-143.0",NA,"656776a7904ae00d6b91d1dd","6568aa415bf7d1b82e42e951",4,NA,NA,NA,NA,NA,NA,NA,NA,NA,NA,NA,"3750","[""SV_PolicingMSA/CO_1325/IMG_13_1325.jpg"",""SV_PolicingMSA/CO_1325/IMG_5_1325.jpg"",""SV_PolicingMSA/CO_1325/IMG_3_1325.jpg"",""SV_PolicingMSA/CO_1325/IMG_9_1325.jpg"",""SV_PolicingMSA/CO_1325/IMG_14_1325.jpg"",""SV_PolicingMSA/CO_1325/IMG_11_1325.jpg"",""SV_PolicingMSA/CO_1325/IMG_1_1325.jpg"",""SV_PolicingMSA/CO_1325/IMG_8_1325.jpg""]","7",NA,NA,NA,NA,NA,3,NA,4,"[""./rc_img/cop_condGroup_12_CommunitySafety_autoscaled.png"",""./rc_img/cop_condGroup_12_SafeStreets_autoscaled.png""]",NA,7,NA,"CO_1325","CO_1325",3,2,2,2,2,2,6,"CO_1325",3,1,1,1,2,2,"CO_1325",3,2,2,2,2,2,2,"51","male","man","","80634",""
"42","sliderTrial","html-slider-response",144,670777,"0.0-144.0",NA,"656776a7904ae00d6b91d1dd","6568aa415bf7d1b82e42e951",4,NA,NA,NA,NA,NA,NA,NA,NA,NA,NA,NA,"4618","[""SV_PolicingMSA/CO_1325/IMG_13_1325.jpg"",""SV_PolicingMSA/CO_1325/IMG_5_1325.jpg"",""SV_PolicingMSA/CO_1325/IMG_3_1325.jpg"",""SV_PolicingMSA/CO_1325/IMG_9_1325.jpg"",""SV_PolicingMSA/CO_1325/IMG_14_1325.jpg"",""SV_PolicingMSA/CO_1325/IMG_11_1325.jpg"",""SV_PolicingMSA/CO_1325/IMG_1_1325.jpg"",""SV_PolicingMSA/CO_1325/IMG_8_1325.jpg""]","1",NA,NA,NA,NA,NA,3,NA,4,"[""./rc_img/cop_condGroup_9_SafeStreets_autoscaled.png"",""./rc_img/cop_condGroup_9_CommunitySafety_autoscaled.png""]",NA,7,NA,"CO_1325","CO_1325",3,2,2,2,2,2,6,"CO_1325",3,1,1,1,2,2,"CO_1325",3,2,2,2,2,2,2,"51","male","man","","80634",""
