"","task","trial_type","trial_index","time_elapsed","internal_node_id","subject_id","study_id","session_id","section","width","height","webaudio","browser","browser_version","mobile","os","fullscreen","vsync_rate","webcam","microphone","rt","stimulus","response","success","timeout","failed_images","failed_audio","failed_video","block.x.x","accuracy","slider_start","choices","standardized_response","correct","num_attention_checks_correct","stim_tract","stim_tractT","block.x","P0_Q1.wealthy","P0_Q1.safe","P0_Q1.walkable","P0_Q1.traditional","P0_Q1.diverse","block_fixed","stim_tractT.x","block.y","P0_Q1.violence","P0_Q1.crime","P0_Q1.drug","P0_Q1.schools","P0_Q1.opportunities","stim_tractT.y","block.y.y","P0_Q1.movein","P0_Q1.moveout","P0_Q1.shopping","P0_Q1.walk","P0_Q1.park","P0_Q1.school","age","sex","gender","gender-self-describe","zipcode","surveyComments"
"1","sliderTrial","html-slider-response",18,239383,"0.0-18.0",NA,"656776a7904ae00d6b91d1dd","6568b4a0c742ad7e6541cb7e",2,NA,NA,NA,NA,NA,NA,NA,NA,NA,NA,NA,"17910","[""SV_PolicingMSA/LA_1076/IMG_5_1076.jpg"",""SV_PolicingMSA/LA_1076/IMG_8_1076.jpg"",""SV_PolicingMSA/LA_1076/IMG_14_1076.jpg"",""SV_PolicingMSA/LA_1076/IMG_12_1076.jpg"",""SV_PolicingMSA/LA_1076/IMG_4_1076.jpg"",""SV_PolicingMSA/LA_1076/IMG_3_1076.jpg"",""SV_PolicingMSA/LA_1076/IMG_6_1076.jpg"",""SV_PolicingMSA/LA_1076/IMG_11_1076.jpg""]","7",NA,NA,NA,NA,NA,5,NA,4,"[""./rc_img/cop_condGroup_6_CommunitySafety_autoscaled.png"",""./rc_img/cop_condGroup_6_SafeStreets_autoscaled.png""]",7,NA,NA,"LA_1076","LA_1076",5,3,3,4,4,2,8,"LA_1076",5,1,2,3,3,3,"LA_1076",5,3,2,3,3,3,2,"56","male","man","","22226","none"
"2","sliderTrial","html-slider-response",19,248762,"0.0-19.0",NA,"656776a7904ae00d6b91d1dd","6568b4a0c742ad7e6541cb7e",2,NA,NA,NA,NA,NA,NA,NA,NA,NA,NA,NA,"9376","[""SV_PolicingMSA/LA_1076/IMG_5_1076.jpg"",""SV_PolicingMSA/LA_1076/IMG_8_1076.jpg"",""SV_PolicingMSA/LA_1076/IMG_14_1076.jpg"",""SV_PolicingMSA/LA_1076/IMG_12_1076.jpg"",""SV_PolicingMSA/LA_1076/IMG_4_1076.jpg"",""SV_PolicingMSA/LA_1076/IMG_3_1076.jpg"",""SV_PolicingMSA/LA_1076/IMG_6_1076.jpg"",""SV_PolicingMSA/LA_1076/IMG_11_1076.jpg""]","7",NA,NA,NA,NA,NA,5,NA,4,"[""./rc_img/cop_condGroup_15_CommunitySafety_autoscaled.png"",""./rc_img/cop_condGroup_15_SafeStreets_autoscaled.png""]",7,NA,NA,"LA_1076","LA_1076",5,3,3,4,4,2,8,"LA_1076",5,1,2,3,3,3,"LA_1076",5,3,2,3,3,3,2,"56","male","man","","22226","none"
"3","sliderTrial","html-slider-response",20,270098,"0.0-20.0",NA,"656776a7904ae00d6b91d1dd","6568b4a0c742ad7e6541cb7e",2,NA,NA,NA,NA,NA,NA,NA,NA,NA,NA,NA,"21332","[""SV_PolicingMSA/LA_1076/IMG_5_1076.jpg"",""SV_PolicingMSA/LA_1076/IMG_8_1076.jpg"",""SV_PolicingMSA/LA_1076/IMG_14_1076.jpg"",""SV_PolicingMSA/LA_1076/IMG_12_1076.jpg"",""SV_PolicingMSA/LA_1076/IMG_4_1076.jpg"",""SV_PolicingMSA/LA_1076/IMG_3_1076.jpg"",""SV_PolicingMSA/LA_1076/IMG_6_1076.jpg"",""SV_PolicingMSA/LA_1076/IMG_11_1076.jpg""]","1",NA,NA,NA,NA,NA,5,NA,4,"[""./rc_img/cop_condGroup_18_CommunitySafety_autoscaled.png"",""./rc_img/cop_condGroup_18_SafeStreets_autoscaled.png""]",1,NA,NA,"LA_1076","LA_1076",5,3,3,4,4,2,8,"LA_1076",5,1,2,3,3,3,"LA_1076",5,3,2,3,3,3,2,"56","male","man","","22226","none"
"4","sliderTrial","html-slider-response",21,275826,"0.0-21.0",NA,"656776a7904ae00d6b91d1dd","6568b4a0c742ad7e6541cb7e",2,NA,NA,NA,NA,NA,NA,NA,NA,NA,NA,NA,"5724","[""SV_PolicingMSA/LA_1076/IMG_5_1076.jpg"",""SV_PolicingMSA/LA_1076/IMG_8_1076.jpg"",""SV_PolicingMSA/LA_1076/IMG_14_1076.jpg"",""SV_PolicingMSA/LA_1076/IMG_12_1076.jpg"",""SV_PolicingMSA/LA_1076/IMG_4_1076.jpg"",""SV_PolicingMSA/LA_1076/IMG_3_1076.jpg"",""SV_PolicingMSA/LA_1076/IMG_6_1076.jpg"",""SV_PolicingMSA/LA_1076/IMG_11_1076.jpg""]","7",NA,NA,NA,NA,NA,5,NA,4,"[""./rc_img/cop_condGroup_17_SafeStreets_autoscaled.png"",""./rc_img/cop_condGroup_17_CommunitySafety_autoscaled.png""]",1,NA,NA,"LA_1076","LA_1076",5,3,3,4,4,2,8,"LA_1076",5,1,2,3,3,3,"LA_1076",5,3,2,3,3,3,2,"56","male","man","","22226","none"
"5","sliderTrial","html-slider-response",22,281657,"0.0-22.0",NA,"656776a7904ae00d6b91d1dd","6568b4a0c742ad7e6541cb7e",2,NA,NA,NA,NA,NA,NA,NA,NA,NA,NA,NA,"5829","[""SV_PolicingMSA/LA_1076/IMG_5_1076.jpg"",""SV_PolicingMSA/LA_1076/IMG_8_1076.jpg"",""SV_PolicingMSA/LA_1076/IMG_14_1076.jpg"",""SV_PolicingMSA/LA_1076/IMG_12_1076.jpg"",""SV_PolicingMSA/LA_1076/IMG_4_1076.jpg"",""SV_PolicingMSA/LA_1076/IMG_3_1076.jpg"",""SV_PolicingMSA/LA_1076/IMG_6_1076.jpg"",""SV_PolicingMSA/LA_1076/IMG_11_1076.jpg""]","1",NA,NA,NA,NA,NA,5,NA,4,"[""./rc_img/cop_condGroup_11_CommunitySafety_autoscaled.png"",""./rc_img/cop_condGroup_11_SafeStreets_autoscaled.png""]",1,NA,NA,"LA_1076","LA_1076",5,3,3,4,4,2,8,"LA_1076",5,1,2,3,3,3,"LA_1076",5,3,2,3,3,3,2,"56","male","man","","22226","none"
"6","sliderTrial","html-slider-response",35,346079,"0.0-35.0",NA,"656776a7904ae00d6b91d1dd","6568b4a0c742ad7e6541cb7e",2,NA,NA,NA,NA,NA,NA,NA,NA,NA,NA,NA,"6653","[""SV_PolicingMSA/LA_447/IMG_2_447.jpg"",""SV_PolicingMSA/LA_447/IMG_7_447.jpg"",""SV_PolicingMSA/LA_447/IMG_3_447.jpg"",""SV_PolicingMSA/LA_447/IMG_10_447.jpg"",""SV_PolicingMSA/LA_447/IMG_0_447.jpg"",""SV_PolicingMSA/LA_447/IMG_14_447.jpg"",""SV_PolicingMSA/LA_447/IMG_5_447.jpg"",""SV_PolicingMSA/LA_447/IMG_9_447.jpg""]","7",NA,NA,NA,NA,NA,3,NA,4,"[""./rc_img/cop_condGroup_4_SafeStreets_autoscaled.png"",""./rc_img/cop_condGroup_4_CommunitySafety_autoscaled.png""]",1,NA,NA,"LA_447/","LA_447",3,2,3,3,2,1,5,"LA_447",3,1,1,1,3,3,"LA_447",3,3,3,3,3,3,3,"56","male","man","","22226","none"
"7","sliderTrial","html-slider-response",36,350224,"0.0-36.0",NA,"656776a7904ae00d6b91d1dd","6568b4a0c742ad7e6541cb7e",2,NA,NA,NA,NA,NA,NA,NA,NA,NA,NA,NA,"4142","[""SV_PolicingMSA/LA_447/IMG_2_447.jpg"",""SV_PolicingMSA/LA_447/IMG_7_447.jpg"",""SV_PolicingMSA/LA_447/IMG_3_447.jpg"",""SV_PolicingMSA/LA_447/IMG_10_447.jpg"",""SV_PolicingMSA/LA_447/IMG_0_447.jpg"",""SV_PolicingMSA/LA_447/IMG_14_447.jpg"",""SV_PolicingMSA/LA_447/IMG_5_447.jpg"",""SV_PolicingMSA/LA_447/IMG_9_447.jpg""]","1",NA,NA,NA,NA,NA,3,NA,4,"[""./rc_img/cop_condGroup_12_CommunitySafety_autoscaled.png"",""./rc_img/cop_condGroup_12_SafeStreets_autoscaled.png""]",1,NA,NA,"LA_447/","LA_447",3,2,3,3,2,1,5,"LA_447",3,1,1,1,3,3,"LA_447",3,3,3,3,3,3,3,"56","male","man","","22226","none"
"8","sliderTrial","html-slider-response",37,354259,"0.0-37.0",NA,"656776a7904ae00d6b91d1dd","6568b4a0c742ad7e6541cb7e",2,NA,NA,NA,NA,NA,NA,NA,NA,NA,NA,NA,"4030","[""SV_PolicingMSA/LA_447/IMG_2_447.jpg"",""SV_PolicingMSA/LA_447/IMG_7_447.jpg"",""SV_PolicingMSA/LA_447/IMG_3_447.jpg"",""SV_PolicingMSA/LA_447/IMG_10_447.jpg"",""SV_PolicingMSA/LA_447/IMG_0_447.jpg"",""SV_PolicingMSA/LA_447/IMG_14_447.jpg"",""SV_PolicingMSA/LA_447/IMG_5_447.jpg"",""SV_PolicingMSA/LA_447/IMG_9_447.jpg""]","7",NA,NA,NA,NA,NA,3,NA,4,"[""./rc_img/cop_condGroup_5_SafeStreets_autoscaled.png"",""./rc_img/cop_condGroup_5_CommunitySafety_autoscaled.png""]",1,NA,NA,"LA_447/","LA_447",3,2,3,3,2,1,5,"LA_447",3,1,1,1,3,3,"LA_447",3,3,3,3,3,3,3,"56","male","man","","22226","none"
"9","sliderTrial","html-slider-response",38,358906,"0.0-38.0",NA,"656776a7904ae00d6b91d1dd","6568b4a0c742ad7e6541cb7e",2,NA,NA,NA,NA,NA,NA,NA,NA,NA,NA,NA,"4645","[""SV_PolicingMSA/LA_447/IMG_2_447.jpg"",""SV_PolicingMSA/LA_447/IMG_7_447.jpg"",""SV_PolicingMSA/LA_447/IMG_3_447.jpg"",""SV_PolicingMSA/LA_447/IMG_10_447.jpg"",""SV_PolicingMSA/LA_447/IMG_0_447.jpg"",""SV_PolicingMSA/LA_447/IMG_14_447.jpg"",""SV_PolicingMSA/LA_447/IMG_5_447.jpg"",""SV_PolicingMSA/LA_447/IMG_9_447.jpg""]","7",NA,NA,NA,NA,NA,3,NA,4,"[""./rc_img/cop_condGroup_2_SafeStreets_autoscaled.png"",""./rc_img/cop_condGroup_2_CommunitySafety_autoscaled.png""]",1,NA,NA,"LA_447/","LA_447",3,2,3,3,2,1,5,"LA_447",3,1,1,1,3,3,"LA_447",3,3,3,3,3,3,3,"56","male","man","","22226","none"
"10","sliderTrial","html-slider-response",39,362759,"0.0-39.0",NA,"656776a7904ae00d6b91d1dd","6568b4a0c742ad7e6541cb7e",2,NA,NA,NA,NA,NA,NA,NA,NA,NA,NA,NA,"3849","[""SV_PolicingMSA/LA_447/IMG_2_447.jpg"",""SV_PolicingMSA/LA_447/IMG_7_447.jpg"",""SV_PolicingMSA/LA_447/IMG_3_447.jpg"",""SV_PolicingMSA/LA_447/IMG_10_447.jpg"",""SV_PolicingMSA/LA_447/IMG_0_447.jpg"",""SV_PolicingMSA/LA_447/IMG_14_447.jpg"",""SV_PolicingMSA/LA_447/IMG_5_447.jpg"",""SV_PolicingMSA/LA_447/IMG_9_447.jpg""]","7",NA,NA,NA,NA,NA,3,NA,4,"[""./rc_img/cop_condGroup_14_SafeStreets_autoscaled.png"",""./rc_img/cop_condGroup_14_CommunitySafety_autoscaled.png""]",1,NA,NA,"LA_447/","LA_447",3,2,3,3,2,1,5,"LA_447",3,1,1,1,3,3,"LA_447",3,3,3,3,3,3,3,"56","male","man","","22226","none"
"11","sliderTrial","html-slider-response",52,402044,"0.0-52.0",NA,"656776a7904ae00d6b91d1dd","6568b4a0c742ad7e6541cb7e",2,NA,NA,NA,NA,NA,NA,NA,NA,NA,NA,NA,"4239","[""SV_PolicingMSA/LA_42/IMG_0_42.jpg"",""SV_PolicingMSA/LA_42/IMG_5_42.jpg"",""SV_PolicingMSA/LA_42/IMG_2_42.jpg"",""SV_PolicingMSA/LA_42/IMG_1_42.jpg"",""SV_PolicingMSA/LA_42/IMG_10_42.jpg"",""SV_PolicingMSA/LA_42/IMG_7_42.jpg"",""SV_PolicingMSA/LA_42/IMG_13_42.jpg"",""SV_PolicingMSA/LA_42/IMG_14_42.jpg""]","7",NA,NA,NA,NA,NA,2,NA,4,"[""./rc_img/cop_condGroup_16_CommunitySafety_autoscaled.png"",""./rc_img/cop_condGroup_16_SafeStreets_autoscaled.png""]",7,NA,NA,"LA_42/I","LA_42I",2,4,3,4,4,3,3,"LA_42I",2,3,4,3,2,2,"LA_42I",2,2,2,2,2,2,2,"56","male","man","","22226","none"
"12","sliderTrial","html-slider-response",53,405042,"0.0-53.0",NA,"656776a7904ae00d6b91d1dd","6568b4a0c742ad7e6541cb7e",2,NA,NA,NA,NA,NA,NA,NA,NA,NA,NA,NA,"2995","[""SV_PolicingMSA/LA_42/IMG_0_42.jpg"",""SV_PolicingMSA/LA_42/IMG_5_42.jpg"",""SV_PolicingMSA/LA_42/IMG_2_42.jpg"",""SV_PolicingMSA/LA_42/IMG_1_42.jpg"",""SV_PolicingMSA/LA_42/IMG_10_42.jpg"",""SV_PolicingMSA/LA_42/IMG_7_42.jpg"",""SV_PolicingMSA/LA_42/IMG_13_42.jpg"",""SV_PolicingMSA/LA_42/IMG_14_42.jpg""]","1",NA,NA,NA,NA,NA,2,NA,4,"[""./rc_img/cop_condGroup_8_SafeStreets_autoscaled.png"",""./rc_img/cop_condGroup_8_CommunitySafety_autoscaled.png""]",7,NA,NA,"LA_42/I","LA_42I",2,4,3,4,4,3,3,"LA_42I",2,3,4,3,2,2,"LA_42I",2,2,2,2,2,2,2,"56","male","man","","22226","none"
"13","sliderTrial","html-slider-response",54,408280,"0.0-54.0",NA,"656776a7904ae00d6b91d1dd","6568b4a0c742ad7e6541cb7e",2,NA,NA,NA,NA,NA,NA,NA,NA,NA,NA,NA,"3235","[""SV_PolicingMSA/LA_42/IMG_0_42.jpg"",""SV_PolicingMSA/LA_42/IMG_5_42.jpg"",""SV_PolicingMSA/LA_42/IMG_2_42.jpg"",""SV_PolicingMSA/LA_42/IMG_1_42.jpg"",""SV_PolicingMSA/LA_42/IMG_10_42.jpg"",""SV_PolicingMSA/LA_42/IMG_7_42.jpg"",""SV_PolicingMSA/LA_42/IMG_13_42.jpg"",""SV_PolicingMSA/LA_42/IMG_14_42.jpg""]","1",NA,NA,NA,NA,NA,2,NA,4,"[""./rc_img/cop_condGroup_7_SafeStreets_autoscaled.png"",""./rc_img/cop_condGroup_7_CommunitySafety_autoscaled.png""]",7,NA,NA,"LA_42/I","LA_42I",2,4,3,4,4,3,3,"LA_42I",2,3,4,3,2,2,"LA_42I",2,2,2,2,2,2,2,"56","male","man","","22226","none"
"14","sliderTrial","html-slider-response",55,411521,"0.0-55.0",NA,"656776a7904ae00d6b91d1dd","6568b4a0c742ad7e6541cb7e",2,NA,NA,NA,NA,NA,NA,NA,NA,NA,NA,NA,"3237","[""SV_PolicingMSA/LA_42/IMG_0_42.jpg"",""SV_PolicingMSA/LA_42/IMG_5_42.jpg"",""SV_PolicingMSA/LA_42/IMG_2_42.jpg"",""SV_PolicingMSA/LA_42/IMG_1_42.jpg"",""SV_PolicingMSA/LA_42/IMG_10_42.jpg"",""SV_PolicingMSA/LA_42/IMG_7_42.jpg"",""SV_PolicingMSA/LA_42/IMG_13_42.jpg"",""SV_PolicingMSA/LA_42/IMG_14_42.jpg""]","7",NA,NA,NA,NA,NA,2,NA,4,"[""./rc_img/cop_condGroup_1_CommunitySafety_autoscaled.png"",""./rc_img/cop_condGroup_1_SafeStreets_autoscaled.png""]",7,NA,NA,"LA_42/I","LA_42I",2,4,3,4,4,3,3,"LA_42I",2,3,4,3,2,2,"LA_42I",2,2,2,2,2,2,2,"56","male","man","","22226","none"
"15","sliderTrial","html-slider-response",56,414737,"0.0-56.0",NA,"656776a7904ae00d6b91d1dd","6568b4a0c742ad7e6541cb7e",2,NA,NA,NA,NA,NA,NA,NA,NA,NA,NA,NA,"3213","[""SV_PolicingMSA/LA_42/IMG_0_42.jpg"",""SV_PolicingMSA/LA_42/IMG_5_42.jpg"",""SV_PolicingMSA/LA_42/IMG_2_42.jpg"",""SV_PolicingMSA/LA_42/IMG_1_42.jpg"",""SV_PolicingMSA/LA_42/IMG_10_42.jpg"",""SV_PolicingMSA/LA_42/IMG_7_42.jpg"",""SV_PolicingMSA/LA_42/IMG_13_42.jpg"",""SV_PolicingMSA/LA_42/IMG_14_42.jpg""]","1",NA,NA,NA,NA,NA,2,NA,4,"[""./rc_img/cop_condGroup_9_SafeStreets_autoscaled.png"",""./rc_img/cop_condGroup_9_CommunitySafety_autoscaled.png""]",7,NA,NA,"LA_42/I","LA_42I",2,4,3,4,4,3,3,"LA_42I",2,3,4,3,2,2,"LA_42I",2,2,2,2,2,2,2,"56","male","man","","22226","none"
"16","sliderTrial","html-slider-response",69,465514,"0.0-69.0",NA,"656776a7904ae00d6b91d1dd","6568b4a0c742ad7e6541cb7e",2,NA,NA,NA,NA,NA,NA,NA,NA,NA,NA,NA,"3897","[""SV_PolicingMSA/LA_55/IMG_2_55.jpg"",""SV_PolicingMSA/LA_55/IMG_0_55.jpg"",""SV_PolicingMSA/LA_55/IMG_14_55.jpg"",""SV_PolicingMSA/LA_55/IMG_3_55.jpg"",""SV_PolicingMSA/LA_55/IMG_8_55.jpg"",""SV_PolicingMSA/LA_55/IMG_10_55.jpg"",""SV_PolicingMSA/LA_55/IMG_9_55.jpg"",""SV_PolicingMSA/LA_55/IMG_4_55.jpg""]","7",NA,NA,NA,NA,NA,0,NA,4,"[""./rc_img/cop_condGroup_16_CommunitySafety_autoscaled.png"",""./rc_img/cop_condGroup_16_SafeStreets_autoscaled.png""]",7,NA,NA,"LA_55/I","LA_55I",0,3,2,4,2,3,1,"LA_55I",0,3,4,3,1,1,"LA_55I",0,1,1,1,1,1,1,"56","male","man","","22226","none"
"17","sliderTrial","html-slider-response",70,468550,"0.0-70.0",NA,"656776a7904ae00d6b91d1dd","6568b4a0c742ad7e6541cb7e",2,NA,NA,NA,NA,NA,NA,NA,NA,NA,NA,NA,"3033","[""SV_PolicingMSA/LA_55/IMG_2_55.jpg"",""SV_PolicingMSA/LA_55/IMG_0_55.jpg"",""SV_PolicingMSA/LA_55/IMG_14_55.jpg"",""SV_PolicingMSA/LA_55/IMG_3_55.jpg"",""SV_PolicingMSA/LA_55/IMG_8_55.jpg"",""SV_PolicingMSA/LA_55/IMG_10_55.jpg"",""SV_PolicingMSA/LA_55/IMG_9_55.jpg"",""SV_PolicingMSA/LA_55/IMG_4_55.jpg""]","1",NA,NA,NA,NA,NA,0,NA,4,"[""./rc_img/cop_condGroup_8_SafeStreets_autoscaled.png"",""./rc_img/cop_condGroup_8_CommunitySafety_autoscaled.png""]",7,NA,NA,"LA_55/I","LA_55I",0,3,2,4,2,3,1,"LA_55I",0,3,4,3,1,1,"LA_55I",0,1,1,1,1,1,1,"56","male","man","","22226","none"
"18","sliderTrial_attention","html-slider-response",71,478565,"0.0-71.0",NA,"656776a7904ae00d6b91d1dd","6568b4a0c742ad7e6541cb7e",2,NA,NA,NA,NA,NA,NA,NA,NA,NA,NA,NA,"null","[""SV_PolicingMSA/LA_55/IMG_2_55.jpg"",""SV_PolicingMSA/LA_55/IMG_0_55.jpg"",""SV_PolicingMSA/LA_55/IMG_14_55.jpg"",""SV_PolicingMSA/LA_55/IMG_3_55.jpg"",""SV_PolicingMSA/LA_55/IMG_8_55.jpg"",""SV_PolicingMSA/LA_55/IMG_10_55.jpg"",""SV_PolicingMSA/LA_55/IMG_9_55.jpg"",""SV_PolicingMSA/LA_55/IMG_4_55.jpg""]","null",NA,NA,NA,NA,NA,0,NA,4,"[""./assets/img/attnchk.png"",""./assets/img/attnchk.png""]",NA,TRUE,NA,"LA_55/I","LA_55I",0,3,2,4,2,3,1,"LA_55I",0,3,4,3,1,1,"LA_55I",0,1,1,1,1,1,1,"56","male","man","","22226","none"
"19","sliderTrial","html-slider-response",72,484758,"0.0-72.0",NA,"656776a7904ae00d6b91d1dd","6568b4a0c742ad7e6541cb7e",2,NA,NA,NA,NA,NA,NA,NA,NA,NA,NA,NA,"6185","[""SV_PolicingMSA/LA_55/IMG_2_55.jpg"",""SV_PolicingMSA/LA_55/IMG_0_55.jpg"",""SV_PolicingMSA/LA_55/IMG_14_55.jpg"",""SV_PolicingMSA/LA_55/IMG_3_55.jpg"",""SV_PolicingMSA/LA_55/IMG_8_55.jpg"",""SV_PolicingMSA/LA_55/IMG_10_55.jpg"",""SV_PolicingMSA/LA_55/IMG_9_55.jpg"",""SV_PolicingMSA/LA_55/IMG_4_55.jpg""]","1",NA,NA,NA,NA,NA,0,NA,4,"[""./rc_img/cop_condGroup_7_SafeStreets_autoscaled.png"",""./rc_img/cop_condGroup_7_CommunitySafety_autoscaled.png""]",7,NA,NA,"LA_55/I","LA_55I",0,3,2,4,2,3,1,"LA_55I",0,3,4,3,1,1,"LA_55I",0,1,1,1,1,1,1,"56","male","man","","22226","none"
"20","sliderTrial","html-slider-response",73,488072,"0.0-73.0",NA,"656776a7904ae00d6b91d1dd","6568b4a0c742ad7e6541cb7e",2,NA,NA,NA,NA,NA,NA,NA,NA,NA,NA,NA,"3311","[""SV_PolicingMSA/LA_55/IMG_2_55.jpg"",""SV_PolicingMSA/LA_55/IMG_0_55.jpg"",""SV_PolicingMSA/LA_55/IMG_14_55.jpg"",""SV_PolicingMSA/LA_55/IMG_3_55.jpg"",""SV_PolicingMSA/LA_55/IMG_8_55.jpg"",""SV_PolicingMSA/LA_55/IMG_10_55.jpg"",""SV_PolicingMSA/LA_55/IMG_9_55.jpg"",""SV_PolicingMSA/LA_55/IMG_4_55.jpg""]","7",NA,NA,NA,NA,NA,0,NA,4,"[""./rc_img/cop_condGroup_1_CommunitySafety_autoscaled.png"",""./rc_img/cop_condGroup_1_SafeStreets_autoscaled.png""]",7,NA,NA,"LA_55/I","LA_55I",0,3,2,4,2,3,1,"LA_55I",0,3,4,3,1,1,"LA_55I",0,1,1,1,1,1,1,"56","male","man","","22226","none"
"21","sliderTrial","html-slider-response",74,493642,"0.0-74.0",NA,"656776a7904ae00d6b91d1dd","6568b4a0c742ad7e6541cb7e",2,NA,NA,NA,NA,NA,NA,NA,NA,NA,NA,NA,"5567","[""SV_PolicingMSA/LA_55/IMG_2_55.jpg"",""SV_PolicingMSA/LA_55/IMG_0_55.jpg"",""SV_PolicingMSA/LA_55/IMG_14_55.jpg"",""SV_PolicingMSA/LA_55/IMG_3_55.jpg"",""SV_PolicingMSA/LA_55/IMG_8_55.jpg"",""SV_PolicingMSA/LA_55/IMG_10_55.jpg"",""SV_PolicingMSA/LA_55/IMG_9_55.jpg"",""SV_PolicingMSA/LA_55/IMG_4_55.jpg""]","1",NA,NA,NA,NA,NA,0,NA,4,"[""./rc_img/cop_condGroup_9_SafeStreets_autoscaled.png"",""./rc_img/cop_condGroup_9_CommunitySafety_autoscaled.png""]",7,NA,NA,"LA_55/I","LA_55I",0,3,2,4,2,3,1,"LA_55I",0,3,4,3,1,1,"LA_55I",0,1,1,1,1,1,1,"56","male","man","","22226","none"
"22","sliderTrial","html-slider-response",88,540101,"0.0-88.0",NA,"656776a7904ae00d6b91d1dd","6568b4a0c742ad7e6541cb7e",2,NA,NA,NA,NA,NA,NA,NA,NA,NA,NA,NA,"4099","[""SV_PolicingMSA/LA_599/IMG_2_599.jpg"",""SV_PolicingMSA/LA_599/IMG_4_599.jpg"",""SV_PolicingMSA/LA_599/IMG_1_599.jpg"",""SV_PolicingMSA/LA_599/IMG_9_599.jpg"",""SV_PolicingMSA/LA_599/IMG_11_599.jpg"",""SV_PolicingMSA/LA_599/IMG_3_599.jpg"",""SV_PolicingMSA/LA_599/IMG_5_599.jpg"",""SV_PolicingMSA/LA_599/IMG_8_599.jpg""]","1",NA,NA,NA,NA,NA,3,NA,4,"[""./rc_img/cop_condGroup_6_CommunitySafety_autoscaled.png"",""./rc_img/cop_condGroup_6_SafeStreets_autoscaled.png""]",1,NA,NA,"LA_599/","LA_599",3,4,4,4,4,4,6,"LA_599",3,0,0,0,4,4,"LA_599",3,4,4,4,4,4,4,"56","male","man","","22226","none"
"23","sliderTrial","html-slider-response",89,543421,"0.0-89.0",NA,"656776a7904ae00d6b91d1dd","6568b4a0c742ad7e6541cb7e",2,NA,NA,NA,NA,NA,NA,NA,NA,NA,NA,NA,"3317","[""SV_PolicingMSA/LA_599/IMG_2_599.jpg"",""SV_PolicingMSA/LA_599/IMG_4_599.jpg"",""SV_PolicingMSA/LA_599/IMG_1_599.jpg"",""SV_PolicingMSA/LA_599/IMG_9_599.jpg"",""SV_PolicingMSA/LA_599/IMG_11_599.jpg"",""SV_PolicingMSA/LA_599/IMG_3_599.jpg"",""SV_PolicingMSA/LA_599/IMG_5_599.jpg"",""SV_PolicingMSA/LA_599/IMG_8_599.jpg""]","1",NA,NA,NA,NA,NA,3,NA,4,"[""./rc_img/cop_condGroup_15_CommunitySafety_autoscaled.png"",""./rc_img/cop_condGroup_15_SafeStreets_autoscaled.png""]",1,NA,NA,"LA_599/","LA_599",3,4,4,4,4,4,6,"LA_599",3,0,0,0,4,4,"LA_599",3,4,4,4,4,4,4,"56","male","man","","22226","none"
"24","sliderTrial","html-slider-response",90,546661,"0.0-90.0",NA,"656776a7904ae00d6b91d1dd","6568b4a0c742ad7e6541cb7e",2,NA,NA,NA,NA,NA,NA,NA,NA,NA,NA,NA,"3236","[""SV_PolicingMSA/LA_599/IMG_2_599.jpg"",""SV_PolicingMSA/LA_599/IMG_4_599.jpg"",""SV_PolicingMSA/LA_599/IMG_1_599.jpg"",""SV_PolicingMSA/LA_599/IMG_9_599.jpg"",""SV_PolicingMSA/LA_599/IMG_11_599.jpg"",""SV_PolicingMSA/LA_599/IMG_3_599.jpg"",""SV_PolicingMSA/LA_599/IMG_5_599.jpg"",""SV_PolicingMSA/LA_599/IMG_8_599.jpg""]","1",NA,NA,NA,NA,NA,3,NA,4,"[""./rc_img/cop_condGroup_18_CommunitySafety_autoscaled.png"",""./rc_img/cop_condGroup_18_SafeStreets_autoscaled.png""]",1,NA,NA,"LA_599/","LA_599",3,4,4,4,4,4,6,"LA_599",3,0,0,0,4,4,"LA_599",3,4,4,4,4,4,4,"56","male","man","","22226","none"
"25","sliderTrial","html-slider-response",91,549599,"0.0-91.0",NA,"656776a7904ae00d6b91d1dd","6568b4a0c742ad7e6541cb7e",2,NA,NA,NA,NA,NA,NA,NA,NA,NA,NA,NA,"2934","[""SV_PolicingMSA/LA_599/IMG_2_599.jpg"",""SV_PolicingMSA/LA_599/IMG_4_599.jpg"",""SV_PolicingMSA/LA_599/IMG_1_599.jpg"",""SV_PolicingMSA/LA_599/IMG_9_599.jpg"",""SV_PolicingMSA/LA_599/IMG_11_599.jpg"",""SV_PolicingMSA/LA_599/IMG_3_599.jpg"",""SV_PolicingMSA/LA_599/IMG_5_599.jpg"",""SV_PolicingMSA/LA_599/IMG_8_599.jpg""]","7",NA,NA,NA,NA,NA,3,NA,4,"[""./rc_img/cop_condGroup_17_SafeStreets_autoscaled.png"",""./rc_img/cop_condGroup_17_CommunitySafety_autoscaled.png""]",1,NA,NA,"LA_599/","LA_599",3,4,4,4,4,4,6,"LA_599",3,0,0,0,4,4,"LA_599",3,4,4,4,4,4,4,"56","male","man","","22226","none"
"26","sliderTrial","html-slider-response",92,553137,"0.0-92.0",NA,"656776a7904ae00d6b91d1dd","6568b4a0c742ad7e6541cb7e",2,NA,NA,NA,NA,NA,NA,NA,NA,NA,NA,NA,"3534","[""SV_PolicingMSA/LA_599/IMG_2_599.jpg"",""SV_PolicingMSA/LA_599/IMG_4_599.jpg"",""SV_PolicingMSA/LA_599/IMG_1_599.jpg"",""SV_PolicingMSA/LA_599/IMG_9_599.jpg"",""SV_PolicingMSA/LA_599/IMG_11_599.jpg"",""SV_PolicingMSA/LA_599/IMG_3_599.jpg"",""SV_PolicingMSA/LA_599/IMG_5_599.jpg"",""SV_PolicingMSA/LA_599/IMG_8_599.jpg""]","1",NA,NA,NA,NA,NA,3,NA,4,"[""./rc_img/cop_condGroup_11_CommunitySafety_autoscaled.png"",""./rc_img/cop_condGroup_11_SafeStreets_autoscaled.png""]",1,NA,NA,"LA_599/","LA_599",3,4,4,4,4,4,6,"LA_599",3,0,0,0,4,4,"LA_599",3,4,4,4,4,4,4,"56","male","man","","22226","none"
"27","sliderTrial","html-slider-response",105,589624,"0.0-105.0",NA,"656776a7904ae00d6b91d1dd","6568b4a0c742ad7e6541cb7e",2,NA,NA,NA,NA,NA,NA,NA,NA,NA,NA,NA,"4370","[""SV_PolicingMSA/LA_546/IMG_11_546.jpg"",""SV_PolicingMSA/LA_546/IMG_9_546.jpg"",""SV_PolicingMSA/LA_546/IMG_2_546.jpg"",""SV_PolicingMSA/LA_546/IMG_3_546.jpg"",""SV_PolicingMSA/LA_546/IMG_6_546.jpg"",""SV_PolicingMSA/LA_546/IMG_13_546.jpg"",""SV_PolicingMSA/LA_546/IMG_1_546.jpg"",""SV_PolicingMSA/LA_546/IMG_14_546.jpg""]","1",NA,NA,NA,NA,NA,1,NA,4,"[""./rc_img/cop_condGroup_4_SafeStreets_autoscaled.png"",""./rc_img/cop_condGroup_4_CommunitySafety_autoscaled.png""]",7,NA,NA,"LA_546/","LA_546",1,3,4,3,3,3,2,"LA_546",1,2,2,2,3,3,"LA_546",1,1,1,1,1,1,1,"56","male","man","","22226","none"
"28","sliderTrial","html-slider-response",106,593612,"0.0-106.0",NA,"656776a7904ae00d6b91d1dd","6568b4a0c742ad7e6541cb7e",2,NA,NA,NA,NA,NA,NA,NA,NA,NA,NA,NA,"3985","[""SV_PolicingMSA/LA_546/IMG_11_546.jpg"",""SV_PolicingMSA/LA_546/IMG_9_546.jpg"",""SV_PolicingMSA/LA_546/IMG_2_546.jpg"",""SV_PolicingMSA/LA_546/IMG_3_546.jpg"",""SV_PolicingMSA/LA_546/IMG_6_546.jpg"",""SV_PolicingMSA/LA_546/IMG_13_546.jpg"",""SV_PolicingMSA/LA_546/IMG_1_546.jpg"",""SV_PolicingMSA/LA_546/IMG_14_546.jpg""]","7",NA,NA,NA,NA,NA,1,NA,4,"[""./rc_img/cop_condGroup_12_CommunitySafety_autoscaled.png"",""./rc_img/cop_condGroup_12_SafeStreets_autoscaled.png""]",7,NA,NA,"LA_546/","LA_546",1,3,4,3,3,3,2,"LA_546",1,2,2,2,3,3,"LA_546",1,1,1,1,1,1,1,"56","male","man","","22226","none"
"29","sliderTrial","html-slider-response",107,597542,"0.0-107.0",NA,"656776a7904ae00d6b91d1dd","6568b4a0c742ad7e6541cb7e",2,NA,NA,NA,NA,NA,NA,NA,NA,NA,NA,NA,"3927","[""SV_PolicingMSA/LA_546/IMG_11_546.jpg"",""SV_PolicingMSA/LA_546/IMG_9_546.jpg"",""SV_PolicingMSA/LA_546/IMG_2_546.jpg"",""SV_PolicingMSA/LA_546/IMG_3_546.jpg"",""SV_PolicingMSA/LA_546/IMG_6_546.jpg"",""SV_PolicingMSA/LA_546/IMG_13_546.jpg"",""SV_PolicingMSA/LA_546/IMG_1_546.jpg"",""SV_PolicingMSA/LA_546/IMG_14_546.jpg""]","1",NA,NA,NA,NA,NA,1,NA,4,"[""./rc_img/cop_condGroup_5_SafeStreets_autoscaled.png"",""./rc_img/cop_condGroup_5_CommunitySafety_autoscaled.png""]",7,NA,NA,"LA_546/","LA_546",1,3,4,3,3,3,2,"LA_546",1,2,2,2,3,3,"LA_546",1,1,1,1,1,1,1,"56","male","man","","22226","none"
"30","sliderTrial_attention","html-slider-response",108,607559,"0.0-108.0",NA,"656776a7904ae00d6b91d1dd","6568b4a0c742ad7e6541cb7e",2,NA,NA,NA,NA,NA,NA,NA,NA,NA,NA,NA,"null","[""SV_PolicingMSA/LA_546/IMG_11_546.jpg"",""SV_PolicingMSA/LA_546/IMG_9_546.jpg"",""SV_PolicingMSA/LA_546/IMG_2_546.jpg"",""SV_PolicingMSA/LA_546/IMG_3_546.jpg"",""SV_PolicingMSA/LA_546/IMG_6_546.jpg"",""SV_PolicingMSA/LA_546/IMG_13_546.jpg"",""SV_PolicingMSA/LA_546/IMG_1_546.jpg"",""SV_PolicingMSA/LA_546/IMG_14_546.jpg""]","null",NA,NA,NA,NA,NA,1,NA,4,"[""./assets/img/attnchk.png"",""./assets/img/attnchk.png""]",NA,TRUE,NA,"LA_546/","LA_546",1,3,4,3,3,3,2,"LA_546",1,2,2,2,3,3,"LA_546",1,1,1,1,1,1,1,"56","male","man","","22226","none"
"31","sliderTrial","html-slider-response",109,612048,"0.0-109.0",NA,"656776a7904ae00d6b91d1dd","6568b4a0c742ad7e6541cb7e",2,NA,NA,NA,NA,NA,NA,NA,NA,NA,NA,NA,"4485","[""SV_PolicingMSA/LA_546/IMG_11_546.jpg"",""SV_PolicingMSA/LA_546/IMG_9_546.jpg"",""SV_PolicingMSA/LA_546/IMG_2_546.jpg"",""SV_PolicingMSA/LA_546/IMG_3_546.jpg"",""SV_PolicingMSA/LA_546/IMG_6_546.jpg"",""SV_PolicingMSA/LA_546/IMG_13_546.jpg"",""SV_PolicingMSA/LA_546/IMG_1_546.jpg"",""SV_PolicingMSA/LA_546/IMG_14_546.jpg""]","1",NA,NA,NA,NA,NA,1,NA,4,"[""./rc_img/cop_condGroup_2_SafeStreets_autoscaled.png"",""./rc_img/cop_condGroup_2_CommunitySafety_autoscaled.png""]",7,NA,NA,"LA_546/","LA_546",1,3,4,3,3,3,2,"LA_546",1,2,2,2,3,3,"LA_546",1,1,1,1,1,1,1,"56","male","man","","22226","none"
"32","sliderTrial","html-slider-response",110,615084,"0.0-110.0",NA,"656776a7904ae00d6b91d1dd","6568b4a0c742ad7e6541cb7e",2,NA,NA,NA,NA,NA,NA,NA,NA,NA,NA,NA,"3032","[""SV_PolicingMSA/LA_546/IMG_11_546.jpg"",""SV_PolicingMSA/LA_546/IMG_9_546.jpg"",""SV_PolicingMSA/LA_546/IMG_2_546.jpg"",""SV_PolicingMSA/LA_546/IMG_3_546.jpg"",""SV_PolicingMSA/LA_546/IMG_6_546.jpg"",""SV_PolicingMSA/LA_546/IMG_13_546.jpg"",""SV_PolicingMSA/LA_546/IMG_1_546.jpg"",""SV_PolicingMSA/LA_546/IMG_14_546.jpg""]","1",NA,NA,NA,NA,NA,1,NA,4,"[""./rc_img/cop_condGroup_14_SafeStreets_autoscaled.png"",""./rc_img/cop_condGroup_14_CommunitySafety_autoscaled.png""]",7,NA,NA,"LA_546/","LA_546",1,3,4,3,3,3,2,"LA_546",1,2,2,2,3,3,"LA_546",1,1,1,1,1,1,1,"56","male","man","","22226","none"
"33","sliderTrial","html-slider-response",123,662518,"0.0-123.0",NA,"656776a7904ae00d6b91d1dd","6568b4a0c742ad7e6541cb7e",2,NA,NA,NA,NA,NA,NA,NA,NA,NA,NA,NA,"6835","[""SV_PolicingMSA/LA_547/IMG_13_547.jpg"",""SV_PolicingMSA/LA_547/IMG_6_547.jpg"",""SV_PolicingMSA/LA_547/IMG_2_547.jpg"",""SV_PolicingMSA/LA_547/IMG_3_547.jpg"",""SV_PolicingMSA/LA_547/IMG_12_547.jpg"",""SV_PolicingMSA/LA_547/IMG_1_547.jpg"",""SV_PolicingMSA/LA_547/IMG_14_547.jpg"",""SV_PolicingMSA/LA_547/IMG_10_547.jpg""]","1",NA,NA,NA,NA,NA,2,NA,4,"[""./rc_img/cop_condGroup_13_SafeStreets_autoscaled.png"",""./rc_img/cop_condGroup_13_CommunitySafety_autoscaled.png""]",7,NA,NA,"LA_547/","LA_547",2,1,1,2,3,3,4,"LA_547",2,4,4,4,0,0,"LA_547",2,0,0,0,0,0,0,"56","male","man","","22226","none"
"34","sliderTrial","html-slider-response",124,666170,"0.0-124.0",NA,"656776a7904ae00d6b91d1dd","6568b4a0c742ad7e6541cb7e",2,NA,NA,NA,NA,NA,NA,NA,NA,NA,NA,NA,"3649","[""SV_PolicingMSA/LA_547/IMG_13_547.jpg"",""SV_PolicingMSA/LA_547/IMG_6_547.jpg"",""SV_PolicingMSA/LA_547/IMG_2_547.jpg"",""SV_PolicingMSA/LA_547/IMG_3_547.jpg"",""SV_PolicingMSA/LA_547/IMG_12_547.jpg"",""SV_PolicingMSA/LA_547/IMG_1_547.jpg"",""SV_PolicingMSA/LA_547/IMG_14_547.jpg"",""SV_PolicingMSA/LA_547/IMG_10_547.jpg""]","1",NA,NA,NA,NA,NA,2,NA,4,"[""./rc_img/cop_condGroup_19_SafeStreets_autoscaled.png"",""./rc_img/cop_condGroup_19_CommunitySafety_autoscaled.png""]",7,NA,NA,"LA_547/","LA_547",2,1,1,2,3,3,4,"LA_547",2,4,4,4,0,0,"LA_547",2,0,0,0,0,0,0,"56","male","man","","22226","none"
"35","sliderTrial","html-slider-response",125,669250,"0.0-125.0",NA,"656776a7904ae00d6b91d1dd","6568b4a0c742ad7e6541cb7e",2,NA,NA,NA,NA,NA,NA,NA,NA,NA,NA,NA,"3077","[""SV_PolicingMSA/LA_547/IMG_13_547.jpg"",""SV_PolicingMSA/LA_547/IMG_6_547.jpg"",""SV_PolicingMSA/LA_547/IMG_2_547.jpg"",""SV_PolicingMSA/LA_547/IMG_3_547.jpg"",""SV_PolicingMSA/LA_547/IMG_12_547.jpg"",""SV_PolicingMSA/LA_547/IMG_1_547.jpg"",""SV_PolicingMSA/LA_547/IMG_14_547.jpg"",""SV_PolicingMSA/LA_547/IMG_10_547.jpg""]","1",NA,NA,NA,NA,NA,2,NA,4,"[""./rc_img/cop_condGroup_20_SafeStreets_autoscaled.png"",""./rc_img/cop_condGroup_20_CommunitySafety_autoscaled.png""]",7,NA,NA,"LA_547/","LA_547",2,1,1,2,3,3,4,"LA_547",2,4,4,4,0,0,"LA_547",2,0,0,0,0,0,0,"56","male","man","","22226","none"
"36","sliderTrial","html-slider-response",126,672032,"0.0-126.0",NA,"656776a7904ae00d6b91d1dd","6568b4a0c742ad7e6541cb7e",2,NA,NA,NA,NA,NA,NA,NA,NA,NA,NA,NA,"2779","[""SV_PolicingMSA/LA_547/IMG_13_547.jpg"",""SV_PolicingMSA/LA_547/IMG_6_547.jpg"",""SV_PolicingMSA/LA_547/IMG_2_547.jpg"",""SV_PolicingMSA/LA_547/IMG_3_547.jpg"",""SV_PolicingMSA/LA_547/IMG_12_547.jpg"",""SV_PolicingMSA/LA_547/IMG_1_547.jpg"",""SV_PolicingMSA/LA_547/IMG_14_547.jpg"",""SV_PolicingMSA/LA_547/IMG_10_547.jpg""]","7",NA,NA,NA,NA,NA,2,NA,4,"[""./rc_img/cop_condGroup_3_CommunitySafety_autoscaled.png"",""./rc_img/cop_condGroup_3_SafeStreets_autoscaled.png""]",7,NA,NA,"LA_547/","LA_547",2,1,1,2,3,3,4,"LA_547",2,4,4,4,0,0,"LA_547",2,0,0,0,0,0,0,"56","male","man","","22226","none"
"37","sliderTrial","html-slider-response",127,675526,"0.0-127.0",NA,"656776a7904ae00d6b91d1dd","6568b4a0c742ad7e6541cb7e",2,NA,NA,NA,NA,NA,NA,NA,NA,NA,NA,NA,"3491","[""SV_PolicingMSA/LA_547/IMG_13_547.jpg"",""SV_PolicingMSA/LA_547/IMG_6_547.jpg"",""SV_PolicingMSA/LA_547/IMG_2_547.jpg"",""SV_PolicingMSA/LA_547/IMG_3_547.jpg"",""SV_PolicingMSA/LA_547/IMG_12_547.jpg"",""SV_PolicingMSA/LA_547/IMG_1_547.jpg"",""SV_PolicingMSA/LA_547/IMG_14_547.jpg"",""SV_PolicingMSA/LA_547/IMG_10_547.jpg""]","1",NA,NA,NA,NA,NA,2,NA,4,"[""./rc_img/cop_condGroup_10_SafeStreets_autoscaled.png"",""./rc_img/cop_condGroup_10_CommunitySafety_autoscaled.png""]",7,NA,NA,"LA_547/","LA_547",2,1,1,2,3,3,4,"LA_547",2,4,4,4,0,0,"LA_547",2,0,0,0,0,0,0,"56","male","man","","22226","none"
"38","sliderTrial","html-slider-response",140,721001,"0.0-140.0",NA,"656776a7904ae00d6b91d1dd","6568b4a0c742ad7e6541cb7e",2,NA,NA,NA,NA,NA,NA,NA,NA,NA,NA,NA,"4929","[""SV_PolicingMSA/LA_438/IMG_10_438.jpg"",""SV_PolicingMSA/LA_438/IMG_11_438.jpg"",""SV_PolicingMSA/LA_438/IMG_14_438.jpg"",""SV_PolicingMSA/LA_438/IMG_9_438.jpg"",""SV_PolicingMSA/LA_438/IMG_8_438.jpg"",""SV_PolicingMSA/LA_438/IMG_0_438.jpg"",""SV_PolicingMSA/LA_438/IMG_6_438.jpg"",""SV_PolicingMSA/LA_438/IMG_3_438.jpg""]","7",NA,NA,NA,NA,NA,4,NA,4,"[""./rc_img/cop_condGroup_13_SafeStreets_autoscaled.png"",""./rc_img/cop_condGroup_13_CommunitySafety_autoscaled.png""]",1,NA,NA,"LA_438/","LA_438",4,4,4,4,4,4,7,"LA_438",4,0,0,0,4,4,"LA_438",4,4,4,4,4,4,4,"56","male","man","","22226","none"
"39","sliderTrial","html-slider-response",141,724135,"0.0-141.0",NA,"656776a7904ae00d6b91d1dd","6568b4a0c742ad7e6541cb7e",2,NA,NA,NA,NA,NA,NA,NA,NA,NA,NA,NA,"3130","[""SV_PolicingMSA/LA_438/IMG_10_438.jpg"",""SV_PolicingMSA/LA_438/IMG_11_438.jpg"",""SV_PolicingMSA/LA_438/IMG_14_438.jpg"",""SV_PolicingMSA/LA_438/IMG_9_438.jpg"",""SV_PolicingMSA/LA_438/IMG_8_438.jpg"",""SV_PolicingMSA/LA_438/IMG_0_438.jpg"",""SV_PolicingMSA/LA_438/IMG_6_438.jpg"",""SV_PolicingMSA/LA_438/IMG_3_438.jpg""]","7",NA,NA,NA,NA,NA,4,NA,4,"[""./rc_img/cop_condGroup_19_SafeStreets_autoscaled.png"",""./rc_img/cop_condGroup_19_CommunitySafety_autoscaled.png""]",1,NA,NA,"LA_438/","LA_438",4,4,4,4,4,4,7,"LA_438",4,0,0,0,4,4,"LA_438",4,4,4,4,4,4,4,"56","male","man","","22226","none"
"40","sliderTrial","html-slider-response",142,727853,"0.0-142.0",NA,"656776a7904ae00d6b91d1dd","6568b4a0c742ad7e6541cb7e",2,NA,NA,NA,NA,NA,NA,NA,NA,NA,NA,NA,"3715","[""SV_PolicingMSA/LA_438/IMG_10_438.jpg"",""SV_PolicingMSA/LA_438/IMG_11_438.jpg"",""SV_PolicingMSA/LA_438/IMG_14_438.jpg"",""SV_PolicingMSA/LA_438/IMG_9_438.jpg"",""SV_PolicingMSA/LA_438/IMG_8_438.jpg"",""SV_PolicingMSA/LA_438/IMG_0_438.jpg"",""SV_PolicingMSA/LA_438/IMG_6_438.jpg"",""SV_PolicingMSA/LA_438/IMG_3_438.jpg""]","7",NA,NA,NA,NA,NA,4,NA,4,"[""./rc_img/cop_condGroup_20_SafeStreets_autoscaled.png"",""./rc_img/cop_condGroup_20_CommunitySafety_autoscaled.png""]",1,NA,NA,"LA_438/","LA_438",4,4,4,4,4,4,7,"LA_438",4,0,0,0,4,4,"LA_438",4,4,4,4,4,4,4,"56","male","man","","22226","none"
"41","sliderTrial","html-slider-response",143,730973,"0.0-143.0",NA,"656776a7904ae00d6b91d1dd","6568b4a0c742ad7e6541cb7e",2,NA,NA,NA,NA,NA,NA,NA,NA,NA,NA,NA,"3117","[""SV_PolicingMSA/LA_438/IMG_10_438.jpg"",""SV_PolicingMSA/LA_438/IMG_11_438.jpg"",""SV_PolicingMSA/LA_438/IMG_14_438.jpg"",""SV_PolicingMSA/LA_438/IMG_9_438.jpg"",""SV_PolicingMSA/LA_438/IMG_8_438.jpg"",""SV_PolicingMSA/LA_438/IMG_0_438.jpg"",""SV_PolicingMSA/LA_438/IMG_6_438.jpg"",""SV_PolicingMSA/LA_438/IMG_3_438.jpg""]","1",NA,NA,NA,NA,NA,4,NA,4,"[""./rc_img/cop_condGroup_3_CommunitySafety_autoscaled.png"",""./rc_img/cop_condGroup_3_SafeStreets_autoscaled.png""]",1,NA,NA,"LA_438/","LA_438",4,4,4,4,4,4,7,"LA_438",4,0,0,0,4,4,"LA_438",4,4,4,4,4,4,4,"56","male","man","","22226","none"
"42","sliderTrial","html-slider-response",144,733829,"0.0-144.0",NA,"656776a7904ae00d6b91d1dd","6568b4a0c742ad7e6541cb7e",2,NA,NA,NA,NA,NA,NA,NA,NA,NA,NA,NA,"2853","[""SV_PolicingMSA/LA_438/IMG_10_438.jpg"",""SV_PolicingMSA/LA_438/IMG_11_438.jpg"",""SV_PolicingMSA/LA_438/IMG_14_438.jpg"",""SV_PolicingMSA/LA_438/IMG_9_438.jpg"",""SV_PolicingMSA/LA_438/IMG_8_438.jpg"",""SV_PolicingMSA/LA_438/IMG_0_438.jpg"",""SV_PolicingMSA/LA_438/IMG_6_438.jpg"",""SV_PolicingMSA/LA_438/IMG_3_438.jpg""]","7",NA,NA,NA,NA,NA,4,NA,4,"[""./rc_img/cop_condGroup_10_SafeStreets_autoscaled.png"",""./rc_img/cop_condGroup_10_CommunitySafety_autoscaled.png""]",1,NA,NA,"LA_438/","LA_438",4,4,4,4,4,4,7,"LA_438",4,0,0,0,4,4,"LA_438",4,4,4,4,4,4,4,"56","male","man","","22226","none"
