"","task","trial_type","trial_index","time_elapsed","internal_node_id","subject_id","study_id","session_id","section","width","height","webaudio","browser","browser_version","mobile","os","fullscreen","vsync_rate","webcam","microphone","rt","stimulus","response","success","timeout","failed_images","failed_audio","failed_video","block.x.x","accuracy","slider_start","choices","standardized_response","correct","num_attention_checks_correct","stim_tract","stim_tractT","block.x","P0_Q1.wealthy","P0_Q1.safe","P0_Q1.walkable","P0_Q1.traditional","P0_Q1.diverse","block_fixed","stim_tractT.x","block.y","P0_Q1.violence","P0_Q1.crime","P0_Q1.drug","P0_Q1.schools","P0_Q1.opportunities","stim_tractT.y","block.y.y","P0_Q1.movein","P0_Q1.moveout","P0_Q1.shopping","P0_Q1.walk","P0_Q1.park","P0_Q1.school","age","sex","gender","gender-self-describe","zipcode","surveyComments"
"1","sliderTrial","html-slider-response",18,332473,"0.0-18.0",NA,"656776a7904ae00d6b91d1dd","6568adf9ff7f646cd9137aec",10,NA,NA,NA,NA,NA,NA,NA,NA,NA,NA,NA,"11958","[""SV_PolicingMSA/FL_1410/IMG_8_1410.jpg"",""SV_PolicingMSA/FL_1410/IMG_9_1410.jpg"",""SV_PolicingMSA/FL_1410/IMG_1_1410.jpg"",""SV_PolicingMSA/FL_1410/IMG_5_1410.jpg"",""SV_PolicingMSA/FL_1410/IMG_10_1410.jpg"",""SV_PolicingMSA/FL_1410/IMG_11_1410.jpg"",""SV_PolicingMSA/FL_1410/IMG_4_1410.jpg"",""SV_PolicingMSA/FL_1410/IMG_6_1410.jpg""]","3",NA,NA,NA,NA,NA,2,NA,4,"[""./rc_img/cop_condGroup_9_CommunitySafety_autoscaled.png"",""./rc_img/cop_condGroup_9_SafeStreets_autoscaled.png""]",3,NA,NA,"FL_1410","FL_1410",2,2,3,3,2,2,3,"FL_1410",2,1,1,2,2,2,"FL_1410",2,2,1,3,2,4,3,"33","female","woman","","04950","no"
"2","sliderTrial","html-slider-response",19,335973,"0.0-19.0",NA,"656776a7904ae00d6b91d1dd","6568adf9ff7f646cd9137aec",10,NA,NA,NA,NA,NA,NA,NA,NA,NA,NA,NA,"3497","[""SV_PolicingMSA/FL_1410/IMG_8_1410.jpg"",""SV_PolicingMSA/FL_1410/IMG_9_1410.jpg"",""SV_PolicingMSA/FL_1410/IMG_1_1410.jpg"",""SV_PolicingMSA/FL_1410/IMG_5_1410.jpg"",""SV_PolicingMSA/FL_1410/IMG_10_1410.jpg"",""SV_PolicingMSA/FL_1410/IMG_11_1410.jpg"",""SV_PolicingMSA/FL_1410/IMG_4_1410.jpg"",""SV_PolicingMSA/FL_1410/IMG_6_1410.jpg""]","5",NA,NA,NA,NA,NA,2,NA,4,"[""./rc_img/cop_condGroup_12_SafeStreets_autoscaled.png"",""./rc_img/cop_condGroup_12_CommunitySafety_autoscaled.png""]",3,NA,NA,"FL_1410","FL_1410",2,2,3,3,2,2,3,"FL_1410",2,1,1,2,2,2,"FL_1410",2,2,1,3,2,4,3,"33","female","woman","","04950","no"
"3","sliderTrial","html-slider-response",20,341362,"0.0-20.0",NA,"656776a7904ae00d6b91d1dd","6568adf9ff7f646cd9137aec",10,NA,NA,NA,NA,NA,NA,NA,NA,NA,NA,NA,"5387","[""SV_PolicingMSA/FL_1410/IMG_8_1410.jpg"",""SV_PolicingMSA/FL_1410/IMG_9_1410.jpg"",""SV_PolicingMSA/FL_1410/IMG_1_1410.jpg"",""SV_PolicingMSA/FL_1410/IMG_5_1410.jpg"",""SV_PolicingMSA/FL_1410/IMG_10_1410.jpg"",""SV_PolicingMSA/FL_1410/IMG_11_1410.jpg"",""SV_PolicingMSA/FL_1410/IMG_4_1410.jpg"",""SV_PolicingMSA/FL_1410/IMG_6_1410.jpg""]","3",NA,NA,NA,NA,NA,2,NA,4,"[""./rc_img/cop_condGroup_4_CommunitySafety_autoscaled.png"",""./rc_img/cop_condGroup_4_SafeStreets_autoscaled.png""]",3,NA,NA,"FL_1410","FL_1410",2,2,3,3,2,2,3,"FL_1410",2,1,1,2,2,2,"FL_1410",2,2,1,3,2,4,3,"33","female","woman","","04950","no"
"4","sliderTrial","html-slider-response",21,345062,"0.0-21.0",NA,"656776a7904ae00d6b91d1dd","6568adf9ff7f646cd9137aec",10,NA,NA,NA,NA,NA,NA,NA,NA,NA,NA,NA,"3698","[""SV_PolicingMSA/FL_1410/IMG_8_1410.jpg"",""SV_PolicingMSA/FL_1410/IMG_9_1410.jpg"",""SV_PolicingMSA/FL_1410/IMG_1_1410.jpg"",""SV_PolicingMSA/FL_1410/IMG_5_1410.jpg"",""SV_PolicingMSA/FL_1410/IMG_10_1410.jpg"",""SV_PolicingMSA/FL_1410/IMG_11_1410.jpg"",""SV_PolicingMSA/FL_1410/IMG_4_1410.jpg"",""SV_PolicingMSA/FL_1410/IMG_6_1410.jpg""]","2",NA,NA,NA,NA,NA,2,NA,4,"[""./rc_img/cop_condGroup_18_CommunitySafety_autoscaled.png"",""./rc_img/cop_condGroup_18_SafeStreets_autoscaled.png""]",2,NA,NA,"FL_1410","FL_1410",2,2,3,3,2,2,3,"FL_1410",2,1,1,2,2,2,"FL_1410",2,2,1,3,2,4,3,"33","female","woman","","04950","no"
"5","sliderTrial","html-slider-response",22,348563,"0.0-22.0",NA,"656776a7904ae00d6b91d1dd","6568adf9ff7f646cd9137aec",10,NA,NA,NA,NA,NA,NA,NA,NA,NA,NA,NA,"3499","[""SV_PolicingMSA/FL_1410/IMG_8_1410.jpg"",""SV_PolicingMSA/FL_1410/IMG_9_1410.jpg"",""SV_PolicingMSA/FL_1410/IMG_1_1410.jpg"",""SV_PolicingMSA/FL_1410/IMG_5_1410.jpg"",""SV_PolicingMSA/FL_1410/IMG_10_1410.jpg"",""SV_PolicingMSA/FL_1410/IMG_11_1410.jpg"",""SV_PolicingMSA/FL_1410/IMG_4_1410.jpg"",""SV_PolicingMSA/FL_1410/IMG_6_1410.jpg""]","3",NA,NA,NA,NA,NA,2,NA,4,"[""./rc_img/cop_condGroup_3_CommunitySafety_autoscaled.png"",""./rc_img/cop_condGroup_3_SafeStreets_autoscaled.png""]",3,NA,NA,"FL_1410","FL_1410",2,2,3,3,2,2,3,"FL_1410",2,1,1,2,2,2,"FL_1410",2,2,1,3,2,4,3,"33","female","woman","","04950","no"
"6","sliderTrial","html-slider-response",35,396708,"0.0-35.0",NA,"656776a7904ae00d6b91d1dd","6568adf9ff7f646cd9137aec",10,NA,NA,NA,NA,NA,NA,NA,NA,NA,NA,NA,"7258","[""SV_PolicingMSA/FL_4887/IMG_11_4887.jpg"",""SV_PolicingMSA/FL_4887/IMG_7_4887.jpg"",""SV_PolicingMSA/FL_4887/IMG_9_4887.jpg"",""SV_PolicingMSA/FL_4887/IMG_6_4887.jpg"",""SV_PolicingMSA/FL_4887/IMG_10_4887.jpg"",""SV_PolicingMSA/FL_4887/IMG_2_4887.jpg"",""SV_PolicingMSA/FL_4887/IMG_0_4887.jpg"",""SV_PolicingMSA/FL_4887/IMG_8_4887.jpg""]","3",NA,NA,NA,NA,NA,5,NA,4,"[""./rc_img/cop_condGroup_8_SafeStreets_autoscaled.png"",""./rc_img/cop_condGroup_8_CommunitySafety_autoscaled.png""]",5,NA,NA,"FL_4887","FL_4887",5,3,2,2,2,2,8,"FL_4887",5,1,1,2,2,2,"FL_4887",5,2,1,3,3,4,3,"33","female","woman","","04950","no"
"7","sliderTrial","html-slider-response",36,398876,"0.0-36.0",NA,"656776a7904ae00d6b91d1dd","6568adf9ff7f646cd9137aec",10,NA,NA,NA,NA,NA,NA,NA,NA,NA,NA,NA,"2165","[""SV_PolicingMSA/FL_4887/IMG_11_4887.jpg"",""SV_PolicingMSA/FL_4887/IMG_7_4887.jpg"",""SV_PolicingMSA/FL_4887/IMG_9_4887.jpg"",""SV_PolicingMSA/FL_4887/IMG_6_4887.jpg"",""SV_PolicingMSA/FL_4887/IMG_10_4887.jpg"",""SV_PolicingMSA/FL_4887/IMG_2_4887.jpg"",""SV_PolicingMSA/FL_4887/IMG_0_4887.jpg"",""SV_PolicingMSA/FL_4887/IMG_8_4887.jpg""]","3",NA,NA,NA,NA,NA,5,NA,4,"[""./rc_img/cop_condGroup_1_SafeStreets_autoscaled.png"",""./rc_img/cop_condGroup_1_CommunitySafety_autoscaled.png""]",5,NA,NA,"FL_4887","FL_4887",5,3,2,2,2,2,8,"FL_4887",5,1,1,2,2,2,"FL_4887",5,2,1,3,3,4,3,"33","female","woman","","04950","no"
"8","sliderTrial","html-slider-response",37,401500,"0.0-37.0",NA,"656776a7904ae00d6b91d1dd","6568adf9ff7f646cd9137aec",10,NA,NA,NA,NA,NA,NA,NA,NA,NA,NA,NA,"2622","[""SV_PolicingMSA/FL_4887/IMG_11_4887.jpg"",""SV_PolicingMSA/FL_4887/IMG_7_4887.jpg"",""SV_PolicingMSA/FL_4887/IMG_9_4887.jpg"",""SV_PolicingMSA/FL_4887/IMG_6_4887.jpg"",""SV_PolicingMSA/FL_4887/IMG_10_4887.jpg"",""SV_PolicingMSA/FL_4887/IMG_2_4887.jpg"",""SV_PolicingMSA/FL_4887/IMG_0_4887.jpg"",""SV_PolicingMSA/FL_4887/IMG_8_4887.jpg""]","3",NA,NA,NA,NA,NA,5,NA,4,"[""./rc_img/cop_condGroup_10_SafeStreets_autoscaled.png"",""./rc_img/cop_condGroup_10_CommunitySafety_autoscaled.png""]",5,NA,NA,"FL_4887","FL_4887",5,3,2,2,2,2,8,"FL_4887",5,1,1,2,2,2,"FL_4887",5,2,1,3,3,4,3,"33","female","woman","","04950","no"
"9","sliderTrial","html-slider-response",38,405135,"0.0-38.0",NA,"656776a7904ae00d6b91d1dd","6568adf9ff7f646cd9137aec",10,NA,NA,NA,NA,NA,NA,NA,NA,NA,NA,NA,"3633","[""SV_PolicingMSA/FL_4887/IMG_11_4887.jpg"",""SV_PolicingMSA/FL_4887/IMG_7_4887.jpg"",""SV_PolicingMSA/FL_4887/IMG_9_4887.jpg"",""SV_PolicingMSA/FL_4887/IMG_6_4887.jpg"",""SV_PolicingMSA/FL_4887/IMG_10_4887.jpg"",""SV_PolicingMSA/FL_4887/IMG_2_4887.jpg"",""SV_PolicingMSA/FL_4887/IMG_0_4887.jpg"",""SV_PolicingMSA/FL_4887/IMG_8_4887.jpg""]","5",NA,NA,NA,NA,NA,5,NA,4,"[""./rc_img/cop_condGroup_15_SafeStreets_autoscaled.png"",""./rc_img/cop_condGroup_15_CommunitySafety_autoscaled.png""]",3,NA,NA,"FL_4887","FL_4887",5,3,2,2,2,2,8,"FL_4887",5,1,1,2,2,2,"FL_4887",5,2,1,3,3,4,3,"33","female","woman","","04950","no"
"10","sliderTrial","html-slider-response",39,407517,"0.0-39.0",NA,"656776a7904ae00d6b91d1dd","6568adf9ff7f646cd9137aec",10,NA,NA,NA,NA,NA,NA,NA,NA,NA,NA,NA,"2380","[""SV_PolicingMSA/FL_4887/IMG_11_4887.jpg"",""SV_PolicingMSA/FL_4887/IMG_7_4887.jpg"",""SV_PolicingMSA/FL_4887/IMG_9_4887.jpg"",""SV_PolicingMSA/FL_4887/IMG_6_4887.jpg"",""SV_PolicingMSA/FL_4887/IMG_10_4887.jpg"",""SV_PolicingMSA/FL_4887/IMG_2_4887.jpg"",""SV_PolicingMSA/FL_4887/IMG_0_4887.jpg"",""SV_PolicingMSA/FL_4887/IMG_8_4887.jpg""]","5",NA,NA,NA,NA,NA,5,NA,4,"[""./rc_img/cop_condGroup_11_SafeStreets_autoscaled.png"",""./rc_img/cop_condGroup_11_CommunitySafety_autoscaled.png""]",3,NA,NA,"FL_4887","FL_4887",5,3,2,2,2,2,8,"FL_4887",5,1,1,2,2,2,"FL_4887",5,2,1,3,3,4,3,"33","female","woman","","04950","no"
"11","sliderTrial","html-slider-response",52,458320,"0.0-52.0",NA,"656776a7904ae00d6b91d1dd","6568adf9ff7f646cd9137aec",10,NA,NA,NA,NA,NA,NA,NA,NA,NA,NA,NA,"2660","[""SV_PolicingMSA/FL_4062/IMG_9_4062.jpg"",""SV_PolicingMSA/FL_4062/IMG_7_4062.jpg"",""SV_PolicingMSA/FL_4062/IMG_11_4062.jpg"",""SV_PolicingMSA/FL_4062/IMG_8_4062.jpg"",""SV_PolicingMSA/FL_4062/IMG_6_4062.jpg"",""SV_PolicingMSA/FL_4062/IMG_14_4062.jpg"",""SV_PolicingMSA/FL_4062/IMG_2_4062.jpg"",""SV_PolicingMSA/FL_4062/IMG_3_4062.jpg""]","3",NA,NA,NA,NA,NA,3,NA,4,"[""./rc_img/cop_condGroup_19_SafeStreets_autoscaled.png"",""./rc_img/cop_condGroup_19_CommunitySafety_autoscaled.png""]",5,NA,NA,"FL_4062","FL_4062",3,1,1,2,1,3,5,"FL_4062",3,2,2,3,1,1,"FL_4062",3,1,2,2,1,2,2,"33","female","woman","","04950","no"
"12","sliderTrial","html-slider-response",53,460751,"0.0-53.0",NA,"656776a7904ae00d6b91d1dd","6568adf9ff7f646cd9137aec",10,NA,NA,NA,NA,NA,NA,NA,NA,NA,NA,NA,"2429","[""SV_PolicingMSA/FL_4062/IMG_9_4062.jpg"",""SV_PolicingMSA/FL_4062/IMG_7_4062.jpg"",""SV_PolicingMSA/FL_4062/IMG_11_4062.jpg"",""SV_PolicingMSA/FL_4062/IMG_8_4062.jpg"",""SV_PolicingMSA/FL_4062/IMG_6_4062.jpg"",""SV_PolicingMSA/FL_4062/IMG_14_4062.jpg"",""SV_PolicingMSA/FL_4062/IMG_2_4062.jpg"",""SV_PolicingMSA/FL_4062/IMG_3_4062.jpg""]","3",NA,NA,NA,NA,NA,3,NA,4,"[""./rc_img/cop_condGroup_6_SafeStreets_autoscaled.png"",""./rc_img/cop_condGroup_6_CommunitySafety_autoscaled.png""]",5,NA,NA,"FL_4062","FL_4062",3,1,1,2,1,3,5,"FL_4062",3,2,2,3,1,1,"FL_4062",3,1,2,2,1,2,2,"33","female","woman","","04950","no"
"13","sliderTrial","html-slider-response",54,463004,"0.0-54.0",NA,"656776a7904ae00d6b91d1dd","6568adf9ff7f646cd9137aec",10,NA,NA,NA,NA,NA,NA,NA,NA,NA,NA,NA,"2251","[""SV_PolicingMSA/FL_4062/IMG_9_4062.jpg"",""SV_PolicingMSA/FL_4062/IMG_7_4062.jpg"",""SV_PolicingMSA/FL_4062/IMG_11_4062.jpg"",""SV_PolicingMSA/FL_4062/IMG_8_4062.jpg"",""SV_PolicingMSA/FL_4062/IMG_6_4062.jpg"",""SV_PolicingMSA/FL_4062/IMG_14_4062.jpg"",""SV_PolicingMSA/FL_4062/IMG_2_4062.jpg"",""SV_PolicingMSA/FL_4062/IMG_3_4062.jpg""]","5",NA,NA,NA,NA,NA,3,NA,4,"[""./rc_img/cop_condGroup_7_CommunitySafety_autoscaled.png"",""./rc_img/cop_condGroup_7_SafeStreets_autoscaled.png""]",5,NA,NA,"FL_4062","FL_4062",3,1,1,2,1,3,5,"FL_4062",3,2,2,3,1,1,"FL_4062",3,1,2,2,1,2,2,"33","female","woman","","04950","no"
"14","sliderTrial","html-slider-response",55,465891,"0.0-55.0",NA,"656776a7904ae00d6b91d1dd","6568adf9ff7f646cd9137aec",10,NA,NA,NA,NA,NA,NA,NA,NA,NA,NA,NA,"2885","[""SV_PolicingMSA/FL_4062/IMG_9_4062.jpg"",""SV_PolicingMSA/FL_4062/IMG_7_4062.jpg"",""SV_PolicingMSA/FL_4062/IMG_11_4062.jpg"",""SV_PolicingMSA/FL_4062/IMG_8_4062.jpg"",""SV_PolicingMSA/FL_4062/IMG_6_4062.jpg"",""SV_PolicingMSA/FL_4062/IMG_14_4062.jpg"",""SV_PolicingMSA/FL_4062/IMG_2_4062.jpg"",""SV_PolicingMSA/FL_4062/IMG_3_4062.jpg""]","2",NA,NA,NA,NA,NA,3,NA,4,"[""./rc_img/cop_condGroup_5_CommunitySafety_autoscaled.png"",""./rc_img/cop_condGroup_5_SafeStreets_autoscaled.png""]",2,NA,NA,"FL_4062","FL_4062",3,1,1,2,1,3,5,"FL_4062",3,2,2,3,1,1,"FL_4062",3,1,2,2,1,2,2,"33","female","woman","","04950","no"
"15","sliderTrial","html-slider-response",56,467766,"0.0-56.0",NA,"656776a7904ae00d6b91d1dd","6568adf9ff7f646cd9137aec",10,NA,NA,NA,NA,NA,NA,NA,NA,NA,NA,NA,"1873","[""SV_PolicingMSA/FL_4062/IMG_9_4062.jpg"",""SV_PolicingMSA/FL_4062/IMG_7_4062.jpg"",""SV_PolicingMSA/FL_4062/IMG_11_4062.jpg"",""SV_PolicingMSA/FL_4062/IMG_8_4062.jpg"",""SV_PolicingMSA/FL_4062/IMG_6_4062.jpg"",""SV_PolicingMSA/FL_4062/IMG_14_4062.jpg"",""SV_PolicingMSA/FL_4062/IMG_2_4062.jpg"",""SV_PolicingMSA/FL_4062/IMG_3_4062.jpg""]","2",NA,NA,NA,NA,NA,3,NA,4,"[""./rc_img/cop_condGroup_2_SafeStreets_autoscaled.png"",""./rc_img/cop_condGroup_2_CommunitySafety_autoscaled.png""]",6,NA,NA,"FL_4062","FL_4062",3,1,1,2,1,3,5,"FL_4062",3,2,2,3,1,1,"FL_4062",3,1,2,2,1,2,2,"33","female","woman","","04950","no"
"16","sliderTrial","html-slider-response",69,513378,"0.0-69.0",NA,"656776a7904ae00d6b91d1dd","6568adf9ff7f646cd9137aec",10,NA,NA,NA,NA,NA,NA,NA,NA,NA,NA,NA,"3265","[""SV_PolicingMSA/FL_4528/IMG_7_4528.jpg"",""SV_PolicingMSA/FL_4528/IMG_6_4528.jpg"",""SV_PolicingMSA/FL_4528/IMG_10_4528.jpg"",""SV_PolicingMSA/FL_4528/IMG_9_4528.jpg"",""SV_PolicingMSA/FL_4528/IMG_8_4528.jpg"",""SV_PolicingMSA/FL_4528/IMG_1_4528.jpg"",""SV_PolicingMSA/FL_4528/IMG_14_4528.jpg"",""SV_PolicingMSA/FL_4528/IMG_3_4528.jpg""]","2",NA,NA,NA,NA,NA,1,NA,4,"[""./rc_img/cop_condGroup_19_SafeStreets_autoscaled.png"",""./rc_img/cop_condGroup_19_CommunitySafety_autoscaled.png""]",6,NA,NA,"FL_4528","FL_4528",1,0,1,1,1,3,2,"FL_4528",1,3,3,3,1,0,"FL_4528",1,0,3,1,1,1,1,"33","female","woman","","04950","no"
"17","sliderTrial_attention","html-slider-response",70,523384,"0.0-70.0",NA,"656776a7904ae00d6b91d1dd","6568adf9ff7f646cd9137aec",10,NA,NA,NA,NA,NA,NA,NA,NA,NA,NA,NA,"null","[""SV_PolicingMSA/FL_4528/IMG_7_4528.jpg"",""SV_PolicingMSA/FL_4528/IMG_6_4528.jpg"",""SV_PolicingMSA/FL_4528/IMG_10_4528.jpg"",""SV_PolicingMSA/FL_4528/IMG_9_4528.jpg"",""SV_PolicingMSA/FL_4528/IMG_8_4528.jpg"",""SV_PolicingMSA/FL_4528/IMG_1_4528.jpg"",""SV_PolicingMSA/FL_4528/IMG_14_4528.jpg"",""SV_PolicingMSA/FL_4528/IMG_3_4528.jpg""]","null",NA,NA,NA,NA,NA,1,NA,4,"[""./assets/img/attnchk.png"",""./assets/img/attnchk.png""]",NA,TRUE,NA,"FL_4528","FL_4528",1,0,1,1,1,3,2,"FL_4528",1,3,3,3,1,0,"FL_4528",1,0,3,1,1,1,1,"33","female","woman","","04950","no"
"18","sliderTrial","html-slider-response",71,528142,"0.0-71.0",NA,"656776a7904ae00d6b91d1dd","6568adf9ff7f646cd9137aec",10,NA,NA,NA,NA,NA,NA,NA,NA,NA,NA,NA,"4755","[""SV_PolicingMSA/FL_4528/IMG_7_4528.jpg"",""SV_PolicingMSA/FL_4528/IMG_6_4528.jpg"",""SV_PolicingMSA/FL_4528/IMG_10_4528.jpg"",""SV_PolicingMSA/FL_4528/IMG_9_4528.jpg"",""SV_PolicingMSA/FL_4528/IMG_8_4528.jpg"",""SV_PolicingMSA/FL_4528/IMG_1_4528.jpg"",""SV_PolicingMSA/FL_4528/IMG_14_4528.jpg"",""SV_PolicingMSA/FL_4528/IMG_3_4528.jpg""]","2",NA,NA,NA,NA,NA,1,NA,4,"[""./rc_img/cop_condGroup_6_SafeStreets_autoscaled.png"",""./rc_img/cop_condGroup_6_CommunitySafety_autoscaled.png""]",6,NA,NA,"FL_4528","FL_4528",1,0,1,1,1,3,2,"FL_4528",1,3,3,3,1,0,"FL_4528",1,0,3,1,1,1,1,"33","female","woman","","04950","no"
"19","sliderTrial","html-slider-response",72,531578,"0.0-72.0",NA,"656776a7904ae00d6b91d1dd","6568adf9ff7f646cd9137aec",10,NA,NA,NA,NA,NA,NA,NA,NA,NA,NA,NA,"3434","[""SV_PolicingMSA/FL_4528/IMG_7_4528.jpg"",""SV_PolicingMSA/FL_4528/IMG_6_4528.jpg"",""SV_PolicingMSA/FL_4528/IMG_10_4528.jpg"",""SV_PolicingMSA/FL_4528/IMG_9_4528.jpg"",""SV_PolicingMSA/FL_4528/IMG_8_4528.jpg"",""SV_PolicingMSA/FL_4528/IMG_1_4528.jpg"",""SV_PolicingMSA/FL_4528/IMG_14_4528.jpg"",""SV_PolicingMSA/FL_4528/IMG_3_4528.jpg""]","6",NA,NA,NA,NA,NA,1,NA,4,"[""./rc_img/cop_condGroup_7_CommunitySafety_autoscaled.png"",""./rc_img/cop_condGroup_7_SafeStreets_autoscaled.png""]",6,NA,NA,"FL_4528","FL_4528",1,0,1,1,1,3,2,"FL_4528",1,3,3,3,1,0,"FL_4528",1,0,3,1,1,1,1,"33","female","woman","","04950","no"
"20","sliderTrial","html-slider-response",73,533895,"0.0-73.0",NA,"656776a7904ae00d6b91d1dd","6568adf9ff7f646cd9137aec",10,NA,NA,NA,NA,NA,NA,NA,NA,NA,NA,NA,"2315","[""SV_PolicingMSA/FL_4528/IMG_7_4528.jpg"",""SV_PolicingMSA/FL_4528/IMG_6_4528.jpg"",""SV_PolicingMSA/FL_4528/IMG_10_4528.jpg"",""SV_PolicingMSA/FL_4528/IMG_9_4528.jpg"",""SV_PolicingMSA/FL_4528/IMG_8_4528.jpg"",""SV_PolicingMSA/FL_4528/IMG_1_4528.jpg"",""SV_PolicingMSA/FL_4528/IMG_14_4528.jpg"",""SV_PolicingMSA/FL_4528/IMG_3_4528.jpg""]","6",NA,NA,NA,NA,NA,1,NA,4,"[""./rc_img/cop_condGroup_5_CommunitySafety_autoscaled.png"",""./rc_img/cop_condGroup_5_SafeStreets_autoscaled.png""]",6,NA,NA,"FL_4528","FL_4528",1,0,1,1,1,3,2,"FL_4528",1,3,3,3,1,0,"FL_4528",1,0,3,1,1,1,1,"33","female","woman","","04950","no"
"21","sliderTrial","html-slider-response",74,536370,"0.0-74.0",NA,"656776a7904ae00d6b91d1dd","6568adf9ff7f646cd9137aec",10,NA,NA,NA,NA,NA,NA,NA,NA,NA,NA,NA,"2472","[""SV_PolicingMSA/FL_4528/IMG_7_4528.jpg"",""SV_PolicingMSA/FL_4528/IMG_6_4528.jpg"",""SV_PolicingMSA/FL_4528/IMG_10_4528.jpg"",""SV_PolicingMSA/FL_4528/IMG_9_4528.jpg"",""SV_PolicingMSA/FL_4528/IMG_8_4528.jpg"",""SV_PolicingMSA/FL_4528/IMG_1_4528.jpg"",""SV_PolicingMSA/FL_4528/IMG_14_4528.jpg"",""SV_PolicingMSA/FL_4528/IMG_3_4528.jpg""]","2",NA,NA,NA,NA,NA,1,NA,4,"[""./rc_img/cop_condGroup_2_SafeStreets_autoscaled.png"",""./rc_img/cop_condGroup_2_CommunitySafety_autoscaled.png""]",6,NA,NA,"FL_4528","FL_4528",1,0,1,1,1,3,2,"FL_4528",1,3,3,3,1,0,"FL_4528",1,0,3,1,1,1,1,"33","female","woman","","04950","no"
"22","sliderTrial","html-slider-response",88,581760,"0.0-88.0",NA,"656776a7904ae00d6b91d1dd","6568adf9ff7f646cd9137aec",10,NA,NA,NA,NA,NA,NA,NA,NA,NA,NA,NA,"1914","[""SV_PolicingMSA/FL_5080/IMG_8_5080.jpg"",""SV_PolicingMSA/FL_5080/IMG_7_5080.jpg"",""SV_PolicingMSA/FL_5080/IMG_3_5080.jpg"",""SV_PolicingMSA/FL_5080/IMG_10_5080.jpg"",""SV_PolicingMSA/FL_5080/IMG_9_5080.jpg"",""SV_PolicingMSA/FL_5080/IMG_6_5080.jpg"",""SV_PolicingMSA/FL_5080/IMG_13_5080.jpg"",""SV_PolicingMSA/FL_5080/IMG_1_5080.jpg""]","6",NA,NA,NA,NA,NA,2,NA,4,"[""./rc_img/cop_condGroup_16_CommunitySafety_autoscaled.png"",""./rc_img/cop_condGroup_16_SafeStreets_autoscaled.png""]",6,NA,NA,"FL_5080","FL_5080",2,0,1,1,1,3,4,"FL_5080",2,3,3,3,1,1,"FL_5080",2,0,3,1,1,1,1,"33","female","woman","","04950","no"
"23","sliderTrial","html-slider-response",89,584314,"0.0-89.0",NA,"656776a7904ae00d6b91d1dd","6568adf9ff7f646cd9137aec",10,NA,NA,NA,NA,NA,NA,NA,NA,NA,NA,NA,"2551","[""SV_PolicingMSA/FL_5080/IMG_8_5080.jpg"",""SV_PolicingMSA/FL_5080/IMG_7_5080.jpg"",""SV_PolicingMSA/FL_5080/IMG_3_5080.jpg"",""SV_PolicingMSA/FL_5080/IMG_10_5080.jpg"",""SV_PolicingMSA/FL_5080/IMG_9_5080.jpg"",""SV_PolicingMSA/FL_5080/IMG_6_5080.jpg"",""SV_PolicingMSA/FL_5080/IMG_13_5080.jpg"",""SV_PolicingMSA/FL_5080/IMG_1_5080.jpg""]","2",NA,NA,NA,NA,NA,2,NA,4,"[""./rc_img/cop_condGroup_20_SafeStreets_autoscaled.png"",""./rc_img/cop_condGroup_20_CommunitySafety_autoscaled.png""]",6,NA,NA,"FL_5080","FL_5080",2,0,1,1,1,3,4,"FL_5080",2,3,3,3,1,1,"FL_5080",2,0,3,1,1,1,1,"33","female","woman","","04950","no"
"24","sliderTrial","html-slider-response",90,586587,"0.0-90.0",NA,"656776a7904ae00d6b91d1dd","6568adf9ff7f646cd9137aec",10,NA,NA,NA,NA,NA,NA,NA,NA,NA,NA,NA,"2270","[""SV_PolicingMSA/FL_5080/IMG_8_5080.jpg"",""SV_PolicingMSA/FL_5080/IMG_7_5080.jpg"",""SV_PolicingMSA/FL_5080/IMG_3_5080.jpg"",""SV_PolicingMSA/FL_5080/IMG_10_5080.jpg"",""SV_PolicingMSA/FL_5080/IMG_9_5080.jpg"",""SV_PolicingMSA/FL_5080/IMG_6_5080.jpg"",""SV_PolicingMSA/FL_5080/IMG_13_5080.jpg"",""SV_PolicingMSA/FL_5080/IMG_1_5080.jpg""]","2",NA,NA,NA,NA,NA,2,NA,4,"[""./rc_img/cop_condGroup_17_SafeStreets_autoscaled.png"",""./rc_img/cop_condGroup_17_CommunitySafety_autoscaled.png""]",6,NA,NA,"FL_5080","FL_5080",2,0,1,1,1,3,4,"FL_5080",2,3,3,3,1,1,"FL_5080",2,0,3,1,1,1,1,"33","female","woman","","04950","no"
"25","sliderTrial","html-slider-response",91,590629,"0.0-91.0",NA,"656776a7904ae00d6b91d1dd","6568adf9ff7f646cd9137aec",10,NA,NA,NA,NA,NA,NA,NA,NA,NA,NA,NA,"4040","[""SV_PolicingMSA/FL_5080/IMG_8_5080.jpg"",""SV_PolicingMSA/FL_5080/IMG_7_5080.jpg"",""SV_PolicingMSA/FL_5080/IMG_3_5080.jpg"",""SV_PolicingMSA/FL_5080/IMG_10_5080.jpg"",""SV_PolicingMSA/FL_5080/IMG_9_5080.jpg"",""SV_PolicingMSA/FL_5080/IMG_6_5080.jpg"",""SV_PolicingMSA/FL_5080/IMG_13_5080.jpg"",""SV_PolicingMSA/FL_5080/IMG_1_5080.jpg""]","3",NA,NA,NA,NA,NA,2,NA,4,"[""./rc_img/cop_condGroup_13_SafeStreets_autoscaled.png"",""./rc_img/cop_condGroup_13_CommunitySafety_autoscaled.png""]",5,NA,NA,"FL_5080","FL_5080",2,0,1,1,1,3,4,"FL_5080",2,3,3,3,1,1,"FL_5080",2,0,3,1,1,1,1,"33","female","woman","","04950","no"
"26","sliderTrial","html-slider-response",92,592654,"0.0-92.0",NA,"656776a7904ae00d6b91d1dd","6568adf9ff7f646cd9137aec",10,NA,NA,NA,NA,NA,NA,NA,NA,NA,NA,NA,"2023","[""SV_PolicingMSA/FL_5080/IMG_8_5080.jpg"",""SV_PolicingMSA/FL_5080/IMG_7_5080.jpg"",""SV_PolicingMSA/FL_5080/IMG_3_5080.jpg"",""SV_PolicingMSA/FL_5080/IMG_10_5080.jpg"",""SV_PolicingMSA/FL_5080/IMG_9_5080.jpg"",""SV_PolicingMSA/FL_5080/IMG_6_5080.jpg"",""SV_PolicingMSA/FL_5080/IMG_13_5080.jpg"",""SV_PolicingMSA/FL_5080/IMG_1_5080.jpg""]","3",NA,NA,NA,NA,NA,2,NA,4,"[""./rc_img/cop_condGroup_14_SafeStreets_autoscaled.png"",""./rc_img/cop_condGroup_14_CommunitySafety_autoscaled.png""]",5,NA,NA,"FL_5080","FL_5080",2,0,1,1,1,3,4,"FL_5080",2,3,3,3,1,1,"FL_5080",2,0,3,1,1,1,1,"33","female","woman","","04950","no"
"27","sliderTrial","html-slider-response",105,633818,"0.0-105.0",NA,"656776a7904ae00d6b91d1dd","6568adf9ff7f646cd9137aec",10,NA,NA,NA,NA,NA,NA,NA,NA,NA,NA,NA,"3261","[""SV_PolicingMSA/FL_4515/IMG_8_4515.jpg"",""SV_PolicingMSA/FL_4515/IMG_10_4515.jpg"",""SV_PolicingMSA/FL_4515/IMG_4_4515.jpg"",""SV_PolicingMSA/FL_4515/IMG_13_4515.jpg"",""SV_PolicingMSA/FL_4515/IMG_0_4515.jpg"",""SV_PolicingMSA/FL_4515/IMG_6_4515.jpg"",""SV_PolicingMSA/FL_4515/IMG_1_4515.jpg"",""SV_PolicingMSA/FL_4515/IMG_12_4515.jpg""]","5",NA,NA,NA,NA,NA,0,NA,4,"[""./rc_img/cop_condGroup_9_CommunitySafety_autoscaled.png"",""./rc_img/cop_condGroup_9_SafeStreets_autoscaled.png""]",5,NA,NA,"FL_4515","FL_4515",0,1,2,2,1,2,1,"FL_4515",0,2,2,3,1,1,"FL_4515",0,1,3,1,1,2,1,"33","female","woman","","04950","no"
"28","sliderTrial","html-slider-response",106,637595,"0.0-106.0",NA,"656776a7904ae00d6b91d1dd","6568adf9ff7f646cd9137aec",10,NA,NA,NA,NA,NA,NA,NA,NA,NA,NA,NA,"3775","[""SV_PolicingMSA/FL_4515/IMG_8_4515.jpg"",""SV_PolicingMSA/FL_4515/IMG_10_4515.jpg"",""SV_PolicingMSA/FL_4515/IMG_4_4515.jpg"",""SV_PolicingMSA/FL_4515/IMG_13_4515.jpg"",""SV_PolicingMSA/FL_4515/IMG_0_4515.jpg"",""SV_PolicingMSA/FL_4515/IMG_6_4515.jpg"",""SV_PolicingMSA/FL_4515/IMG_1_4515.jpg"",""SV_PolicingMSA/FL_4515/IMG_12_4515.jpg""]","3",NA,NA,NA,NA,NA,0,NA,4,"[""./rc_img/cop_condGroup_12_SafeStreets_autoscaled.png"",""./rc_img/cop_condGroup_12_CommunitySafety_autoscaled.png""]",5,NA,NA,"FL_4515","FL_4515",0,1,2,2,1,2,1,"FL_4515",0,2,2,3,1,1,"FL_4515",0,1,3,1,1,2,1,"33","female","woman","","04950","no"
"29","sliderTrial_attention","html-slider-response",107,647601,"0.0-107.0",NA,"656776a7904ae00d6b91d1dd","6568adf9ff7f646cd9137aec",10,NA,NA,NA,NA,NA,NA,NA,NA,NA,NA,NA,"null","[""SV_PolicingMSA/FL_4515/IMG_8_4515.jpg"",""SV_PolicingMSA/FL_4515/IMG_10_4515.jpg"",""SV_PolicingMSA/FL_4515/IMG_4_4515.jpg"",""SV_PolicingMSA/FL_4515/IMG_13_4515.jpg"",""SV_PolicingMSA/FL_4515/IMG_0_4515.jpg"",""SV_PolicingMSA/FL_4515/IMG_6_4515.jpg"",""SV_PolicingMSA/FL_4515/IMG_1_4515.jpg"",""SV_PolicingMSA/FL_4515/IMG_12_4515.jpg""]","null",NA,NA,NA,NA,NA,0,NA,4,"[""./assets/img/attnchk.png"",""./assets/img/attnchk.png""]",NA,TRUE,NA,"FL_4515","FL_4515",0,1,2,2,1,2,1,"FL_4515",0,2,2,3,1,1,"FL_4515",0,1,3,1,1,2,1,"33","female","woman","","04950","no"
"30","sliderTrial","html-slider-response",108,651896,"0.0-108.0",NA,"656776a7904ae00d6b91d1dd","6568adf9ff7f646cd9137aec",10,NA,NA,NA,NA,NA,NA,NA,NA,NA,NA,NA,"4294","[""SV_PolicingMSA/FL_4515/IMG_8_4515.jpg"",""SV_PolicingMSA/FL_4515/IMG_10_4515.jpg"",""SV_PolicingMSA/FL_4515/IMG_4_4515.jpg"",""SV_PolicingMSA/FL_4515/IMG_13_4515.jpg"",""SV_PolicingMSA/FL_4515/IMG_0_4515.jpg"",""SV_PolicingMSA/FL_4515/IMG_6_4515.jpg"",""SV_PolicingMSA/FL_4515/IMG_1_4515.jpg"",""SV_PolicingMSA/FL_4515/IMG_12_4515.jpg""]","5",NA,NA,NA,NA,NA,0,NA,4,"[""./rc_img/cop_condGroup_4_CommunitySafety_autoscaled.png"",""./rc_img/cop_condGroup_4_SafeStreets_autoscaled.png""]",5,NA,NA,"FL_4515","FL_4515",0,1,2,2,1,2,1,"FL_4515",0,2,2,3,1,1,"FL_4515",0,1,3,1,1,2,1,"33","female","woman","","04950","no"
"31","sliderTrial","html-slider-response",109,654606,"0.0-109.0",NA,"656776a7904ae00d6b91d1dd","6568adf9ff7f646cd9137aec",10,NA,NA,NA,NA,NA,NA,NA,NA,NA,NA,NA,"2707","[""SV_PolicingMSA/FL_4515/IMG_8_4515.jpg"",""SV_PolicingMSA/FL_4515/IMG_10_4515.jpg"",""SV_PolicingMSA/FL_4515/IMG_4_4515.jpg"",""SV_PolicingMSA/FL_4515/IMG_13_4515.jpg"",""SV_PolicingMSA/FL_4515/IMG_0_4515.jpg"",""SV_PolicingMSA/FL_4515/IMG_6_4515.jpg"",""SV_PolicingMSA/FL_4515/IMG_1_4515.jpg"",""SV_PolicingMSA/FL_4515/IMG_12_4515.jpg""]","5",NA,NA,NA,NA,NA,0,NA,4,"[""./rc_img/cop_condGroup_18_CommunitySafety_autoscaled.png"",""./rc_img/cop_condGroup_18_SafeStreets_autoscaled.png""]",5,NA,NA,"FL_4515","FL_4515",0,1,2,2,1,2,1,"FL_4515",0,2,2,3,1,1,"FL_4515",0,1,3,1,1,2,1,"33","female","woman","","04950","no"
"32","sliderTrial","html-slider-response",110,657479,"0.0-110.0",NA,"656776a7904ae00d6b91d1dd","6568adf9ff7f646cd9137aec",10,NA,NA,NA,NA,NA,NA,NA,NA,NA,NA,NA,"2870","[""SV_PolicingMSA/FL_4515/IMG_8_4515.jpg"",""SV_PolicingMSA/FL_4515/IMG_10_4515.jpg"",""SV_PolicingMSA/FL_4515/IMG_4_4515.jpg"",""SV_PolicingMSA/FL_4515/IMG_13_4515.jpg"",""SV_PolicingMSA/FL_4515/IMG_0_4515.jpg"",""SV_PolicingMSA/FL_4515/IMG_6_4515.jpg"",""SV_PolicingMSA/FL_4515/IMG_1_4515.jpg"",""SV_PolicingMSA/FL_4515/IMG_12_4515.jpg""]","5",NA,NA,NA,NA,NA,0,NA,4,"[""./rc_img/cop_condGroup_3_CommunitySafety_autoscaled.png"",""./rc_img/cop_condGroup_3_SafeStreets_autoscaled.png""]",5,NA,NA,"FL_4515","FL_4515",0,1,2,2,1,2,1,"FL_4515",0,2,2,3,1,1,"FL_4515",0,1,3,1,1,2,1,"33","female","woman","","04950","no"
"33","sliderTrial","html-slider-response",123,706513,"0.0-123.0",NA,"656776a7904ae00d6b91d1dd","6568adf9ff7f646cd9137aec",10,NA,NA,NA,NA,NA,NA,NA,NA,NA,NA,NA,"15388","[""SV_PolicingMSA/FL_2544/IMG_2_2544.jpg"",""SV_PolicingMSA/FL_2544/IMG_14_2544.jpg"",""SV_PolicingMSA/FL_2544/IMG_11_2544.jpg"",""SV_PolicingMSA/FL_2544/IMG_6_2544.jpg"",""SV_PolicingMSA/FL_2544/IMG_12_2544.jpg"",""SV_PolicingMSA/FL_2544/IMG_10_2544.jpg"",""SV_PolicingMSA/FL_2544/IMG_1_2544.jpg"",""SV_PolicingMSA/FL_2544/IMG_3_2544.jpg""]","2",NA,NA,NA,NA,NA,3,NA,4,"[""./rc_img/cop_condGroup_8_SafeStreets_autoscaled.png"",""./rc_img/cop_condGroup_8_CommunitySafety_autoscaled.png""]",6,NA,NA,"FL_2544","FL_2544",3,0,1,0,0,4,6,"FL_2544",3,3,3,3,0,0,"FL_2544",3,0,4,1,0,1,1,"33","female","woman","","04950","no"
"34","sliderTrial","html-slider-response",124,708773,"0.0-124.0",NA,"656776a7904ae00d6b91d1dd","6568adf9ff7f646cd9137aec",10,NA,NA,NA,NA,NA,NA,NA,NA,NA,NA,NA,"2258","[""SV_PolicingMSA/FL_2544/IMG_2_2544.jpg"",""SV_PolicingMSA/FL_2544/IMG_14_2544.jpg"",""SV_PolicingMSA/FL_2544/IMG_11_2544.jpg"",""SV_PolicingMSA/FL_2544/IMG_6_2544.jpg"",""SV_PolicingMSA/FL_2544/IMG_12_2544.jpg"",""SV_PolicingMSA/FL_2544/IMG_10_2544.jpg"",""SV_PolicingMSA/FL_2544/IMG_1_2544.jpg"",""SV_PolicingMSA/FL_2544/IMG_3_2544.jpg""]","2",NA,NA,NA,NA,NA,3,NA,4,"[""./rc_img/cop_condGroup_1_SafeStreets_autoscaled.png"",""./rc_img/cop_condGroup_1_CommunitySafety_autoscaled.png""]",6,NA,NA,"FL_2544","FL_2544",3,0,1,0,0,4,6,"FL_2544",3,3,3,3,0,0,"FL_2544",3,0,4,1,0,1,1,"33","female","woman","","04950","no"
"35","sliderTrial","html-slider-response",125,711276,"0.0-125.0",NA,"656776a7904ae00d6b91d1dd","6568adf9ff7f646cd9137aec",10,NA,NA,NA,NA,NA,NA,NA,NA,NA,NA,NA,"2501","[""SV_PolicingMSA/FL_2544/IMG_2_2544.jpg"",""SV_PolicingMSA/FL_2544/IMG_14_2544.jpg"",""SV_PolicingMSA/FL_2544/IMG_11_2544.jpg"",""SV_PolicingMSA/FL_2544/IMG_6_2544.jpg"",""SV_PolicingMSA/FL_2544/IMG_12_2544.jpg"",""SV_PolicingMSA/FL_2544/IMG_10_2544.jpg"",""SV_PolicingMSA/FL_2544/IMG_1_2544.jpg"",""SV_PolicingMSA/FL_2544/IMG_3_2544.jpg""]","2",NA,NA,NA,NA,NA,3,NA,4,"[""./rc_img/cop_condGroup_10_SafeStreets_autoscaled.png"",""./rc_img/cop_condGroup_10_CommunitySafety_autoscaled.png""]",6,NA,NA,"FL_2544","FL_2544",3,0,1,0,0,4,6,"FL_2544",3,3,3,3,0,0,"FL_2544",3,0,4,1,0,1,1,"33","female","woman","","04950","no"
"36","sliderTrial","html-slider-response",126,714049,"0.0-126.0",NA,"656776a7904ae00d6b91d1dd","6568adf9ff7f646cd9137aec",10,NA,NA,NA,NA,NA,NA,NA,NA,NA,NA,NA,"2771","[""SV_PolicingMSA/FL_2544/IMG_2_2544.jpg"",""SV_PolicingMSA/FL_2544/IMG_14_2544.jpg"",""SV_PolicingMSA/FL_2544/IMG_11_2544.jpg"",""SV_PolicingMSA/FL_2544/IMG_6_2544.jpg"",""SV_PolicingMSA/FL_2544/IMG_12_2544.jpg"",""SV_PolicingMSA/FL_2544/IMG_10_2544.jpg"",""SV_PolicingMSA/FL_2544/IMG_1_2544.jpg"",""SV_PolicingMSA/FL_2544/IMG_3_2544.jpg""]","2",NA,NA,NA,NA,NA,3,NA,4,"[""./rc_img/cop_condGroup_15_SafeStreets_autoscaled.png"",""./rc_img/cop_condGroup_15_CommunitySafety_autoscaled.png""]",6,NA,NA,"FL_2544","FL_2544",3,0,1,0,0,4,6,"FL_2544",3,3,3,3,0,0,"FL_2544",3,0,4,1,0,1,1,"33","female","woman","","04950","no"
"37","sliderTrial","html-slider-response",127,716629,"0.0-127.0",NA,"656776a7904ae00d6b91d1dd","6568adf9ff7f646cd9137aec",10,NA,NA,NA,NA,NA,NA,NA,NA,NA,NA,NA,"2578","[""SV_PolicingMSA/FL_2544/IMG_2_2544.jpg"",""SV_PolicingMSA/FL_2544/IMG_14_2544.jpg"",""SV_PolicingMSA/FL_2544/IMG_11_2544.jpg"",""SV_PolicingMSA/FL_2544/IMG_6_2544.jpg"",""SV_PolicingMSA/FL_2544/IMG_12_2544.jpg"",""SV_PolicingMSA/FL_2544/IMG_10_2544.jpg"",""SV_PolicingMSA/FL_2544/IMG_1_2544.jpg"",""SV_PolicingMSA/FL_2544/IMG_3_2544.jpg""]","3",NA,NA,NA,NA,NA,3,NA,4,"[""./rc_img/cop_condGroup_11_SafeStreets_autoscaled.png"",""./rc_img/cop_condGroup_11_CommunitySafety_autoscaled.png""]",5,NA,NA,"FL_2544","FL_2544",3,0,1,0,0,4,6,"FL_2544",3,3,3,3,0,0,"FL_2544",3,0,4,1,0,1,1,"33","female","woman","","04950","no"
"38","sliderTrial","html-slider-response",140,756248,"0.0-140.0",NA,"656776a7904ae00d6b91d1dd","6568adf9ff7f646cd9137aec",10,NA,NA,NA,NA,NA,NA,NA,NA,NA,NA,NA,"2012","[""SV_PolicingMSA/FL_4023/IMG_4_4023.jpg"",""SV_PolicingMSA/FL_4023/IMG_10_4023.jpg"",""SV_PolicingMSA/FL_4023/IMG_1_4023.jpg"",""SV_PolicingMSA/FL_4023/IMG_2_4023.jpg"",""SV_PolicingMSA/FL_4023/IMG_5_4023.jpg"",""SV_PolicingMSA/FL_4023/IMG_12_4023.jpg"",""SV_PolicingMSA/FL_4023/IMG_6_4023.jpg"",""SV_PolicingMSA/FL_4023/IMG_9_4023.jpg""]","3",NA,NA,NA,NA,NA,4,NA,4,"[""./rc_img/cop_condGroup_16_CommunitySafety_autoscaled.png"",""./rc_img/cop_condGroup_16_SafeStreets_autoscaled.png""]",3,NA,NA,"FL_4023","FL_4023",4,3,2,2,3,1,7,"FL_4023",4,1,1,1,3,3,"FL_4023",4,2,1,3,2,3,3,"33","female","woman","","04950","no"
"39","sliderTrial","html-slider-response",141,758329,"0.0-141.0",NA,"656776a7904ae00d6b91d1dd","6568adf9ff7f646cd9137aec",10,NA,NA,NA,NA,NA,NA,NA,NA,NA,NA,NA,"2079","[""SV_PolicingMSA/FL_4023/IMG_4_4023.jpg"",""SV_PolicingMSA/FL_4023/IMG_10_4023.jpg"",""SV_PolicingMSA/FL_4023/IMG_1_4023.jpg"",""SV_PolicingMSA/FL_4023/IMG_2_4023.jpg"",""SV_PolicingMSA/FL_4023/IMG_5_4023.jpg"",""SV_PolicingMSA/FL_4023/IMG_12_4023.jpg"",""SV_PolicingMSA/FL_4023/IMG_6_4023.jpg"",""SV_PolicingMSA/FL_4023/IMG_9_4023.jpg""]","5",NA,NA,NA,NA,NA,4,NA,4,"[""./rc_img/cop_condGroup_20_SafeStreets_autoscaled.png"",""./rc_img/cop_condGroup_20_CommunitySafety_autoscaled.png""]",3,NA,NA,"FL_4023","FL_4023",4,3,2,2,3,1,7,"FL_4023",4,1,1,1,3,3,"FL_4023",4,2,1,3,2,3,3,"33","female","woman","","04950","no"
"40","sliderTrial","html-slider-response",142,760475,"0.0-142.0",NA,"656776a7904ae00d6b91d1dd","6568adf9ff7f646cd9137aec",10,NA,NA,NA,NA,NA,NA,NA,NA,NA,NA,NA,"2142","[""SV_PolicingMSA/FL_4023/IMG_4_4023.jpg"",""SV_PolicingMSA/FL_4023/IMG_10_4023.jpg"",""SV_PolicingMSA/FL_4023/IMG_1_4023.jpg"",""SV_PolicingMSA/FL_4023/IMG_2_4023.jpg"",""SV_PolicingMSA/FL_4023/IMG_5_4023.jpg"",""SV_PolicingMSA/FL_4023/IMG_12_4023.jpg"",""SV_PolicingMSA/FL_4023/IMG_6_4023.jpg"",""SV_PolicingMSA/FL_4023/IMG_9_4023.jpg""]","5",NA,NA,NA,NA,NA,4,NA,4,"[""./rc_img/cop_condGroup_17_SafeStreets_autoscaled.png"",""./rc_img/cop_condGroup_17_CommunitySafety_autoscaled.png""]",3,NA,NA,"FL_4023","FL_4023",4,3,2,2,3,1,7,"FL_4023",4,1,1,1,3,3,"FL_4023",4,2,1,3,2,3,3,"33","female","woman","","04950","no"
"41","sliderTrial","html-slider-response",143,763320,"0.0-143.0",NA,"656776a7904ae00d6b91d1dd","6568adf9ff7f646cd9137aec",10,NA,NA,NA,NA,NA,NA,NA,NA,NA,NA,NA,"2843","[""SV_PolicingMSA/FL_4023/IMG_4_4023.jpg"",""SV_PolicingMSA/FL_4023/IMG_10_4023.jpg"",""SV_PolicingMSA/FL_4023/IMG_1_4023.jpg"",""SV_PolicingMSA/FL_4023/IMG_2_4023.jpg"",""SV_PolicingMSA/FL_4023/IMG_5_4023.jpg"",""SV_PolicingMSA/FL_4023/IMG_12_4023.jpg"",""SV_PolicingMSA/FL_4023/IMG_6_4023.jpg"",""SV_PolicingMSA/FL_4023/IMG_9_4023.jpg""]","5",NA,NA,NA,NA,NA,4,NA,4,"[""./rc_img/cop_condGroup_13_SafeStreets_autoscaled.png"",""./rc_img/cop_condGroup_13_CommunitySafety_autoscaled.png""]",3,NA,NA,"FL_4023","FL_4023",4,3,2,2,3,1,7,"FL_4023",4,1,1,1,3,3,"FL_4023",4,2,1,3,2,3,3,"33","female","woman","","04950","no"
"42","sliderTrial","html-slider-response",144,765330,"0.0-144.0",NA,"656776a7904ae00d6b91d1dd","6568adf9ff7f646cd9137aec",10,NA,NA,NA,NA,NA,NA,NA,NA,NA,NA,NA,"2008","[""SV_PolicingMSA/FL_4023/IMG_4_4023.jpg"",""SV_PolicingMSA/FL_4023/IMG_10_4023.jpg"",""SV_PolicingMSA/FL_4023/IMG_1_4023.jpg"",""SV_PolicingMSA/FL_4023/IMG_2_4023.jpg"",""SV_PolicingMSA/FL_4023/IMG_5_4023.jpg"",""SV_PolicingMSA/FL_4023/IMG_12_4023.jpg"",""SV_PolicingMSA/FL_4023/IMG_6_4023.jpg"",""SV_PolicingMSA/FL_4023/IMG_9_4023.jpg""]","5",NA,NA,NA,NA,NA,4,NA,4,"[""./rc_img/cop_condGroup_14_SafeStreets_autoscaled.png"",""./rc_img/cop_condGroup_14_CommunitySafety_autoscaled.png""]",3,NA,NA,"FL_4023","FL_4023",4,3,2,2,3,1,7,"FL_4023",4,1,1,1,3,3,"FL_4023",4,2,1,3,2,3,3,"33","female","woman","","04950","no"
