"","task","trial_type","trial_index","time_elapsed","internal_node_id","subject_id","study_id","session_id","section","width","height","webaudio","browser","browser_version","mobile","os","fullscreen","vsync_rate","webcam","microphone","rt","stimulus","response","success","timeout","failed_images","failed_audio","failed_video","block.x.x","accuracy","slider_start","choices","standardized_response","correct","num_attention_checks_correct","stim_tract","stim_tractT","block.x","P0_Q1.wealthy","P0_Q1.safe","P0_Q1.walkable","P0_Q1.traditional","P0_Q1.diverse","block_fixed","stim_tractT.x","block.y","P0_Q1.violence","P0_Q1.crime","P0_Q1.drug","P0_Q1.schools","P0_Q1.opportunities","stim_tractT.y","block.y.y","P0_Q1.movein","P0_Q1.moveout","P0_Q1.shopping","P0_Q1.walk","P0_Q1.park","P0_Q1.school","age","sex","gender","gender-self-describe","zipcode","surveyComments"
"1","sliderTrial","html-slider-response",18,1230161,"0.0-18.0",NA,"656776a7904ae00d6b91d1dd","6568aa625c255e39d98f4e99",2,NA,NA,NA,NA,NA,NA,NA,NA,NA,NA,NA,"1358","[""SV_PolicingMSA/LA_547/IMG_13_547.jpg"",""SV_PolicingMSA/LA_547/IMG_6_547.jpg"",""SV_PolicingMSA/LA_547/IMG_2_547.jpg"",""SV_PolicingMSA/LA_547/IMG_3_547.jpg"",""SV_PolicingMSA/LA_547/IMG_12_547.jpg"",""SV_PolicingMSA/LA_547/IMG_1_547.jpg"",""SV_PolicingMSA/LA_547/IMG_14_547.jpg"",""SV_PolicingMSA/LA_547/IMG_10_547.jpg""]","4",NA,NA,NA,NA,NA,2,NA,4,"[""./rc_img/cop_condGroup_4_CommunitySafety_autoscaled.png"",""./rc_img/cop_condGroup_4_SafeStreets_autoscaled.png""]",4,NA,NA,"LA_547/","LA_547",2,3,3,3,3,3,3,"LA_547",2,3,3,3,3,3,"LA_547",2,3,3,3,3,3,3,"56","male","man","","20149",""
"2","sliderTrial","html-slider-response",19,1230828,"0.0-19.0",NA,"656776a7904ae00d6b91d1dd","6568aa625c255e39d98f4e99",2,NA,NA,NA,NA,NA,NA,NA,NA,NA,NA,NA,"665","[""SV_PolicingMSA/LA_547/IMG_13_547.jpg"",""SV_PolicingMSA/LA_547/IMG_6_547.jpg"",""SV_PolicingMSA/LA_547/IMG_2_547.jpg"",""SV_PolicingMSA/LA_547/IMG_3_547.jpg"",""SV_PolicingMSA/LA_547/IMG_12_547.jpg"",""SV_PolicingMSA/LA_547/IMG_1_547.jpg"",""SV_PolicingMSA/LA_547/IMG_14_547.jpg"",""SV_PolicingMSA/LA_547/IMG_10_547.jpg""]","4",NA,NA,NA,NA,NA,2,NA,4,"[""./rc_img/cop_condGroup_5_CommunitySafety_autoscaled.png"",""./rc_img/cop_condGroup_5_SafeStreets_autoscaled.png""]",4,NA,NA,"LA_547/","LA_547",2,3,3,3,3,3,3,"LA_547",2,3,3,3,3,3,"LA_547",2,3,3,3,3,3,3,"56","male","man","","20149",""
"3","sliderTrial","html-slider-response",20,1231391,"0.0-20.0",NA,"656776a7904ae00d6b91d1dd","6568aa625c255e39d98f4e99",2,NA,NA,NA,NA,NA,NA,NA,NA,NA,NA,NA,"561","[""SV_PolicingMSA/LA_547/IMG_13_547.jpg"",""SV_PolicingMSA/LA_547/IMG_6_547.jpg"",""SV_PolicingMSA/LA_547/IMG_2_547.jpg"",""SV_PolicingMSA/LA_547/IMG_3_547.jpg"",""SV_PolicingMSA/LA_547/IMG_12_547.jpg"",""SV_PolicingMSA/LA_547/IMG_1_547.jpg"",""SV_PolicingMSA/LA_547/IMG_14_547.jpg"",""SV_PolicingMSA/LA_547/IMG_10_547.jpg""]","4",NA,NA,NA,NA,NA,2,NA,4,"[""./rc_img/cop_condGroup_8_CommunitySafety_autoscaled.png"",""./rc_img/cop_condGroup_8_SafeStreets_autoscaled.png""]",4,NA,NA,"LA_547/","LA_547",2,3,3,3,3,3,3,"LA_547",2,3,3,3,3,3,"LA_547",2,3,3,3,3,3,3,"56","male","man","","20149",""
"4","sliderTrial","html-slider-response",21,1231968,"0.0-21.0",NA,"656776a7904ae00d6b91d1dd","6568aa625c255e39d98f4e99",2,NA,NA,NA,NA,NA,NA,NA,NA,NA,NA,NA,"576","[""SV_PolicingMSA/LA_547/IMG_13_547.jpg"",""SV_PolicingMSA/LA_547/IMG_6_547.jpg"",""SV_PolicingMSA/LA_547/IMG_2_547.jpg"",""SV_PolicingMSA/LA_547/IMG_3_547.jpg"",""SV_PolicingMSA/LA_547/IMG_12_547.jpg"",""SV_PolicingMSA/LA_547/IMG_1_547.jpg"",""SV_PolicingMSA/LA_547/IMG_14_547.jpg"",""SV_PolicingMSA/LA_547/IMG_10_547.jpg""]","4",NA,NA,NA,NA,NA,2,NA,4,"[""./rc_img/cop_condGroup_2_SafeStreets_autoscaled.png"",""./rc_img/cop_condGroup_2_CommunitySafety_autoscaled.png""]",4,NA,NA,"LA_547/","LA_547",2,3,3,3,3,3,3,"LA_547",2,3,3,3,3,3,"LA_547",2,3,3,3,3,3,3,"56","male","man","","20149",""
"5","sliderTrial","html-slider-response",22,1232546,"0.0-22.0",NA,"656776a7904ae00d6b91d1dd","6568aa625c255e39d98f4e99",2,NA,NA,NA,NA,NA,NA,NA,NA,NA,NA,NA,"576","[""SV_PolicingMSA/LA_547/IMG_13_547.jpg"",""SV_PolicingMSA/LA_547/IMG_6_547.jpg"",""SV_PolicingMSA/LA_547/IMG_2_547.jpg"",""SV_PolicingMSA/LA_547/IMG_3_547.jpg"",""SV_PolicingMSA/LA_547/IMG_12_547.jpg"",""SV_PolicingMSA/LA_547/IMG_1_547.jpg"",""SV_PolicingMSA/LA_547/IMG_14_547.jpg"",""SV_PolicingMSA/LA_547/IMG_10_547.jpg""]","4",NA,NA,NA,NA,NA,2,NA,4,"[""./rc_img/cop_condGroup_9_CommunitySafety_autoscaled.png"",""./rc_img/cop_condGroup_9_SafeStreets_autoscaled.png""]",4,NA,NA,"LA_547/","LA_547",2,3,3,3,3,3,3,"LA_547",2,3,3,3,3,3,"LA_547",2,3,3,3,3,3,3,"56","male","man","","20149",""
"6","sliderTrial","html-slider-response",35,1259128,"0.0-35.0",NA,"656776a7904ae00d6b91d1dd","6568aa625c255e39d98f4e99",2,NA,NA,NA,NA,NA,NA,NA,NA,NA,NA,NA,"1310","[""SV_PolicingMSA/LA_55/IMG_2_55.jpg"",""SV_PolicingMSA/LA_55/IMG_0_55.jpg"",""SV_PolicingMSA/LA_55/IMG_14_55.jpg"",""SV_PolicingMSA/LA_55/IMG_3_55.jpg"",""SV_PolicingMSA/LA_55/IMG_8_55.jpg"",""SV_PolicingMSA/LA_55/IMG_10_55.jpg"",""SV_PolicingMSA/LA_55/IMG_9_55.jpg"",""SV_PolicingMSA/LA_55/IMG_4_55.jpg""]","4",NA,NA,NA,NA,NA,0,NA,4,"[""./rc_img/cop_condGroup_10_SafeStreets_autoscaled.png"",""./rc_img/cop_condGroup_10_CommunitySafety_autoscaled.png""]",4,NA,NA,"LA_55/I","LA_55I",0,3,3,3,3,3,1,"LA_55I",0,3,3,3,3,3,"LA_55I",0,3,3,3,3,3,3,"56","male","man","","20149",""
"7","sliderTrial","html-slider-response",36,1259900,"0.0-36.0",NA,"656776a7904ae00d6b91d1dd","6568aa625c255e39d98f4e99",2,NA,NA,NA,NA,NA,NA,NA,NA,NA,NA,NA,"770","[""SV_PolicingMSA/LA_55/IMG_2_55.jpg"",""SV_PolicingMSA/LA_55/IMG_0_55.jpg"",""SV_PolicingMSA/LA_55/IMG_14_55.jpg"",""SV_PolicingMSA/LA_55/IMG_3_55.jpg"",""SV_PolicingMSA/LA_55/IMG_8_55.jpg"",""SV_PolicingMSA/LA_55/IMG_10_55.jpg"",""SV_PolicingMSA/LA_55/IMG_9_55.jpg"",""SV_PolicingMSA/LA_55/IMG_4_55.jpg""]","4",NA,NA,NA,NA,NA,0,NA,4,"[""./rc_img/cop_condGroup_13_SafeStreets_autoscaled.png"",""./rc_img/cop_condGroup_13_CommunitySafety_autoscaled.png""]",4,NA,NA,"LA_55/I","LA_55I",0,3,3,3,3,3,1,"LA_55I",0,3,3,3,3,3,"LA_55I",0,3,3,3,3,3,3,"56","male","man","","20149",""
"8","sliderTrial","html-slider-response",37,1260875,"0.0-37.0",NA,"656776a7904ae00d6b91d1dd","6568aa625c255e39d98f4e99",2,NA,NA,NA,NA,NA,NA,NA,NA,NA,NA,NA,"973","[""SV_PolicingMSA/LA_55/IMG_2_55.jpg"",""SV_PolicingMSA/LA_55/IMG_0_55.jpg"",""SV_PolicingMSA/LA_55/IMG_14_55.jpg"",""SV_PolicingMSA/LA_55/IMG_3_55.jpg"",""SV_PolicingMSA/LA_55/IMG_8_55.jpg"",""SV_PolicingMSA/LA_55/IMG_10_55.jpg"",""SV_PolicingMSA/LA_55/IMG_9_55.jpg"",""SV_PolicingMSA/LA_55/IMG_4_55.jpg""]","4",NA,NA,NA,NA,NA,0,NA,4,"[""./rc_img/cop_condGroup_18_CommunitySafety_autoscaled.png"",""./rc_img/cop_condGroup_18_SafeStreets_autoscaled.png""]",4,NA,NA,"LA_55/I","LA_55I",0,3,3,3,3,3,1,"LA_55I",0,3,3,3,3,3,"LA_55I",0,3,3,3,3,3,3,"56","male","man","","20149",""
"9","sliderTrial_attention","html-slider-response",38,1270883,"0.0-38.0",NA,"656776a7904ae00d6b91d1dd","6568aa625c255e39d98f4e99",2,NA,NA,NA,NA,NA,NA,NA,NA,NA,NA,NA,"null","[""SV_PolicingMSA/LA_55/IMG_2_55.jpg"",""SV_PolicingMSA/LA_55/IMG_0_55.jpg"",""SV_PolicingMSA/LA_55/IMG_14_55.jpg"",""SV_PolicingMSA/LA_55/IMG_3_55.jpg"",""SV_PolicingMSA/LA_55/IMG_8_55.jpg"",""SV_PolicingMSA/LA_55/IMG_10_55.jpg"",""SV_PolicingMSA/LA_55/IMG_9_55.jpg"",""SV_PolicingMSA/LA_55/IMG_4_55.jpg""]","null",NA,NA,NA,NA,NA,0,NA,4,"[""./assets/img/attnchk.png"",""./assets/img/attnchk.png""]",NA,TRUE,NA,"LA_55/I","LA_55I",0,3,3,3,3,3,1,"LA_55I",0,3,3,3,3,3,"LA_55I",0,3,3,3,3,3,3,"56","male","man","","20149",""
"10","sliderTrial","html-slider-response",39,1272066,"0.0-39.0",NA,"656776a7904ae00d6b91d1dd","6568aa625c255e39d98f4e99",2,NA,NA,NA,NA,NA,NA,NA,NA,NA,NA,NA,"1177","[""SV_PolicingMSA/LA_55/IMG_2_55.jpg"",""SV_PolicingMSA/LA_55/IMG_0_55.jpg"",""SV_PolicingMSA/LA_55/IMG_14_55.jpg"",""SV_PolicingMSA/LA_55/IMG_3_55.jpg"",""SV_PolicingMSA/LA_55/IMG_8_55.jpg"",""SV_PolicingMSA/LA_55/IMG_10_55.jpg"",""SV_PolicingMSA/LA_55/IMG_9_55.jpg"",""SV_PolicingMSA/LA_55/IMG_4_55.jpg""]","4",NA,NA,NA,NA,NA,0,NA,4,"[""./rc_img/cop_condGroup_7_CommunitySafety_autoscaled.png"",""./rc_img/cop_condGroup_7_SafeStreets_autoscaled.png""]",4,NA,NA,"LA_55/I","LA_55I",0,3,3,3,3,3,1,"LA_55I",0,3,3,3,3,3,"LA_55I",0,3,3,3,3,3,3,"56","male","man","","20149",""
"11","sliderTrial","html-slider-response",40,1273034,"0.0-40.0",NA,"656776a7904ae00d6b91d1dd","6568aa625c255e39d98f4e99",2,NA,NA,NA,NA,NA,NA,NA,NA,NA,NA,NA,"966","[""SV_PolicingMSA/LA_55/IMG_2_55.jpg"",""SV_PolicingMSA/LA_55/IMG_0_55.jpg"",""SV_PolicingMSA/LA_55/IMG_14_55.jpg"",""SV_PolicingMSA/LA_55/IMG_3_55.jpg"",""SV_PolicingMSA/LA_55/IMG_8_55.jpg"",""SV_PolicingMSA/LA_55/IMG_10_55.jpg"",""SV_PolicingMSA/LA_55/IMG_9_55.jpg"",""SV_PolicingMSA/LA_55/IMG_4_55.jpg""]","4",NA,NA,NA,NA,NA,0,NA,4,"[""./rc_img/cop_condGroup_12_SafeStreets_autoscaled.png"",""./rc_img/cop_condGroup_12_CommunitySafety_autoscaled.png""]",4,NA,NA,"LA_55/I","LA_55I",0,3,3,3,3,3,1,"LA_55I",0,3,3,3,3,3,"LA_55I",0,3,3,3,3,3,3,"56","male","man","","20149",""
"12","sliderTrial","html-slider-response",53,1301385,"0.0-53.0",NA,"656776a7904ae00d6b91d1dd","6568aa625c255e39d98f4e99",2,NA,NA,NA,NA,NA,NA,NA,NA,NA,NA,NA,"1454","[""SV_PolicingMSA/LA_546/IMG_11_546.jpg"",""SV_PolicingMSA/LA_546/IMG_9_546.jpg"",""SV_PolicingMSA/LA_546/IMG_2_546.jpg"",""SV_PolicingMSA/LA_546/IMG_3_546.jpg"",""SV_PolicingMSA/LA_546/IMG_6_546.jpg"",""SV_PolicingMSA/LA_546/IMG_13_546.jpg"",""SV_PolicingMSA/LA_546/IMG_1_546.jpg"",""SV_PolicingMSA/LA_546/IMG_14_546.jpg""]","4",NA,NA,NA,NA,NA,1,NA,4,"[""./rc_img/cop_condGroup_20_CommunitySafety_autoscaled.png"",""./rc_img/cop_condGroup_20_SafeStreets_autoscaled.png""]",4,NA,NA,"LA_546/","LA_546",1,3,3,3,3,3,2,"LA_546",1,3,3,3,3,3,"LA_546",1,3,3,3,3,3,3,"56","male","man","","20149",""
"13","sliderTrial","html-slider-response",54,1301926,"0.0-54.0",NA,"656776a7904ae00d6b91d1dd","6568aa625c255e39d98f4e99",2,NA,NA,NA,NA,NA,NA,NA,NA,NA,NA,NA,"539","[""SV_PolicingMSA/LA_546/IMG_11_546.jpg"",""SV_PolicingMSA/LA_546/IMG_9_546.jpg"",""SV_PolicingMSA/LA_546/IMG_2_546.jpg"",""SV_PolicingMSA/LA_546/IMG_3_546.jpg"",""SV_PolicingMSA/LA_546/IMG_6_546.jpg"",""SV_PolicingMSA/LA_546/IMG_13_546.jpg"",""SV_PolicingMSA/LA_546/IMG_1_546.jpg"",""SV_PolicingMSA/LA_546/IMG_14_546.jpg""]","4",NA,NA,NA,NA,NA,1,NA,4,"[""./rc_img/cop_condGroup_19_SafeStreets_autoscaled.png"",""./rc_img/cop_condGroup_19_CommunitySafety_autoscaled.png""]",4,NA,NA,"LA_546/","LA_546",1,3,3,3,3,3,2,"LA_546",1,3,3,3,3,3,"LA_546",1,3,3,3,3,3,3,"56","male","man","","20149",""
"14","sliderTrial","html-slider-response",55,1302465,"0.0-55.0",NA,"656776a7904ae00d6b91d1dd","6568aa625c255e39d98f4e99",2,NA,NA,NA,NA,NA,NA,NA,NA,NA,NA,NA,"537","[""SV_PolicingMSA/LA_546/IMG_11_546.jpg"",""SV_PolicingMSA/LA_546/IMG_9_546.jpg"",""SV_PolicingMSA/LA_546/IMG_2_546.jpg"",""SV_PolicingMSA/LA_546/IMG_3_546.jpg"",""SV_PolicingMSA/LA_546/IMG_6_546.jpg"",""SV_PolicingMSA/LA_546/IMG_13_546.jpg"",""SV_PolicingMSA/LA_546/IMG_1_546.jpg"",""SV_PolicingMSA/LA_546/IMG_14_546.jpg""]","4",NA,NA,NA,NA,NA,1,NA,4,"[""./rc_img/cop_condGroup_14_CommunitySafety_autoscaled.png"",""./rc_img/cop_condGroup_14_SafeStreets_autoscaled.png""]",4,NA,NA,"LA_546/","LA_546",1,3,3,3,3,3,2,"LA_546",1,3,3,3,3,3,"LA_546",1,3,3,3,3,3,3,"56","male","man","","20149",""
"15","sliderTrial_attention","html-slider-response",56,1312494,"0.0-56.0",NA,"656776a7904ae00d6b91d1dd","6568aa625c255e39d98f4e99",2,NA,NA,NA,NA,NA,NA,NA,NA,NA,NA,NA,"null","[""SV_PolicingMSA/LA_546/IMG_11_546.jpg"",""SV_PolicingMSA/LA_546/IMG_9_546.jpg"",""SV_PolicingMSA/LA_546/IMG_2_546.jpg"",""SV_PolicingMSA/LA_546/IMG_3_546.jpg"",""SV_PolicingMSA/LA_546/IMG_6_546.jpg"",""SV_PolicingMSA/LA_546/IMG_13_546.jpg"",""SV_PolicingMSA/LA_546/IMG_1_546.jpg"",""SV_PolicingMSA/LA_546/IMG_14_546.jpg""]","null",NA,NA,NA,NA,NA,1,NA,4,"[""./assets/img/attnchk.png"",""./assets/img/attnchk.png""]",NA,TRUE,NA,"LA_546/","LA_546",1,3,3,3,3,3,2,"LA_546",1,3,3,3,3,3,"LA_546",1,3,3,3,3,3,3,"56","male","man","","20149",""
"16","sliderTrial","html-slider-response",57,1314015,"0.0-57.0",NA,"656776a7904ae00d6b91d1dd","6568aa625c255e39d98f4e99",2,NA,NA,NA,NA,NA,NA,NA,NA,NA,NA,NA,"1516","[""SV_PolicingMSA/LA_546/IMG_11_546.jpg"",""SV_PolicingMSA/LA_546/IMG_9_546.jpg"",""SV_PolicingMSA/LA_546/IMG_2_546.jpg"",""SV_PolicingMSA/LA_546/IMG_3_546.jpg"",""SV_PolicingMSA/LA_546/IMG_6_546.jpg"",""SV_PolicingMSA/LA_546/IMG_13_546.jpg"",""SV_PolicingMSA/LA_546/IMG_1_546.jpg"",""SV_PolicingMSA/LA_546/IMG_14_546.jpg""]","4",NA,NA,NA,NA,NA,1,NA,4,"[""./rc_img/cop_condGroup_1_SafeStreets_autoscaled.png"",""./rc_img/cop_condGroup_1_CommunitySafety_autoscaled.png""]",4,NA,NA,"LA_546/","LA_546",1,3,3,3,3,3,2,"LA_546",1,3,3,3,3,3,"LA_546",1,3,3,3,3,3,3,"56","male","man","","20149",""
"17","sliderTrial","html-slider-response",58,1314727,"0.0-58.0",NA,"656776a7904ae00d6b91d1dd","6568aa625c255e39d98f4e99",2,NA,NA,NA,NA,NA,NA,NA,NA,NA,NA,NA,"711","[""SV_PolicingMSA/LA_546/IMG_11_546.jpg"",""SV_PolicingMSA/LA_546/IMG_9_546.jpg"",""SV_PolicingMSA/LA_546/IMG_2_546.jpg"",""SV_PolicingMSA/LA_546/IMG_3_546.jpg"",""SV_PolicingMSA/LA_546/IMG_6_546.jpg"",""SV_PolicingMSA/LA_546/IMG_13_546.jpg"",""SV_PolicingMSA/LA_546/IMG_1_546.jpg"",""SV_PolicingMSA/LA_546/IMG_14_546.jpg""]","4",NA,NA,NA,NA,NA,1,NA,4,"[""./rc_img/cop_condGroup_3_SafeStreets_autoscaled.png"",""./rc_img/cop_condGroup_3_CommunitySafety_autoscaled.png""]",4,NA,NA,"LA_546/","LA_546",1,3,3,3,3,3,2,"LA_546",1,3,3,3,3,3,"LA_546",1,3,3,3,3,3,3,"56","male","man","","20149",""
"18","sliderTrial","html-slider-response",71,1345104,"0.0-71.0",NA,"656776a7904ae00d6b91d1dd","6568aa625c255e39d98f4e99",2,NA,NA,NA,NA,NA,NA,NA,NA,NA,NA,NA,"1993","[""SV_PolicingMSA/LA_447/IMG_2_447.jpg"",""SV_PolicingMSA/LA_447/IMG_7_447.jpg"",""SV_PolicingMSA/LA_447/IMG_3_447.jpg"",""SV_PolicingMSA/LA_447/IMG_10_447.jpg"",""SV_PolicingMSA/LA_447/IMG_0_447.jpg"",""SV_PolicingMSA/LA_447/IMG_14_447.jpg"",""SV_PolicingMSA/LA_447/IMG_5_447.jpg"",""SV_PolicingMSA/LA_447/IMG_9_447.jpg""]","4",NA,NA,NA,NA,NA,3,NA,4,"[""./rc_img/cop_condGroup_20_CommunitySafety_autoscaled.png"",""./rc_img/cop_condGroup_20_SafeStreets_autoscaled.png""]",4,NA,NA,"LA_447/","LA_447",3,3,3,3,3,3,5,"LA_447",3,3,3,3,3,3,"LA_447",3,3,3,3,3,3,3,"56","male","man","","20149",""
"19","sliderTrial","html-slider-response",72,1345786,"0.0-72.0",NA,"656776a7904ae00d6b91d1dd","6568aa625c255e39d98f4e99",2,NA,NA,NA,NA,NA,NA,NA,NA,NA,NA,NA,"681","[""SV_PolicingMSA/LA_447/IMG_2_447.jpg"",""SV_PolicingMSA/LA_447/IMG_7_447.jpg"",""SV_PolicingMSA/LA_447/IMG_3_447.jpg"",""SV_PolicingMSA/LA_447/IMG_10_447.jpg"",""SV_PolicingMSA/LA_447/IMG_0_447.jpg"",""SV_PolicingMSA/LA_447/IMG_14_447.jpg"",""SV_PolicingMSA/LA_447/IMG_5_447.jpg"",""SV_PolicingMSA/LA_447/IMG_9_447.jpg""]","4",NA,NA,NA,NA,NA,3,NA,4,"[""./rc_img/cop_condGroup_19_SafeStreets_autoscaled.png"",""./rc_img/cop_condGroup_19_CommunitySafety_autoscaled.png""]",4,NA,NA,"LA_447/","LA_447",3,3,3,3,3,3,5,"LA_447",3,3,3,3,3,3,"LA_447",3,3,3,3,3,3,3,"56","male","man","","20149",""
"20","sliderTrial","html-slider-response",73,1346131,"0.0-73.0",NA,"656776a7904ae00d6b91d1dd","6568aa625c255e39d98f4e99",2,NA,NA,NA,NA,NA,NA,NA,NA,NA,NA,NA,"343","[""SV_PolicingMSA/LA_447/IMG_2_447.jpg"",""SV_PolicingMSA/LA_447/IMG_7_447.jpg"",""SV_PolicingMSA/LA_447/IMG_3_447.jpg"",""SV_PolicingMSA/LA_447/IMG_10_447.jpg"",""SV_PolicingMSA/LA_447/IMG_0_447.jpg"",""SV_PolicingMSA/LA_447/IMG_14_447.jpg"",""SV_PolicingMSA/LA_447/IMG_5_447.jpg"",""SV_PolicingMSA/LA_447/IMG_9_447.jpg""]","4",NA,NA,NA,NA,NA,3,NA,4,"[""./rc_img/cop_condGroup_14_CommunitySafety_autoscaled.png"",""./rc_img/cop_condGroup_14_SafeStreets_autoscaled.png""]",4,NA,NA,"LA_447/","LA_447",3,3,3,3,3,3,5,"LA_447",3,3,3,3,3,3,"LA_447",3,3,3,3,3,3,3,"56","male","man","","20149",""
"21","sliderTrial","html-slider-response",74,1346769,"0.0-74.0",NA,"656776a7904ae00d6b91d1dd","6568aa625c255e39d98f4e99",2,NA,NA,NA,NA,NA,NA,NA,NA,NA,NA,NA,"637","[""SV_PolicingMSA/LA_447/IMG_2_447.jpg"",""SV_PolicingMSA/LA_447/IMG_7_447.jpg"",""SV_PolicingMSA/LA_447/IMG_3_447.jpg"",""SV_PolicingMSA/LA_447/IMG_10_447.jpg"",""SV_PolicingMSA/LA_447/IMG_0_447.jpg"",""SV_PolicingMSA/LA_447/IMG_14_447.jpg"",""SV_PolicingMSA/LA_447/IMG_5_447.jpg"",""SV_PolicingMSA/LA_447/IMG_9_447.jpg""]","4",NA,NA,NA,NA,NA,3,NA,4,"[""./rc_img/cop_condGroup_1_SafeStreets_autoscaled.png"",""./rc_img/cop_condGroup_1_CommunitySafety_autoscaled.png""]",4,NA,NA,"LA_447/","LA_447",3,3,3,3,3,3,5,"LA_447",3,3,3,3,3,3,"LA_447",3,3,3,3,3,3,3,"56","male","man","","20149",""
"22","sliderTrial","html-slider-response",75,1347391,"0.0-75.0",NA,"656776a7904ae00d6b91d1dd","6568aa625c255e39d98f4e99",2,NA,NA,NA,NA,NA,NA,NA,NA,NA,NA,NA,"619","[""SV_PolicingMSA/LA_447/IMG_2_447.jpg"",""SV_PolicingMSA/LA_447/IMG_7_447.jpg"",""SV_PolicingMSA/LA_447/IMG_3_447.jpg"",""SV_PolicingMSA/LA_447/IMG_10_447.jpg"",""SV_PolicingMSA/LA_447/IMG_0_447.jpg"",""SV_PolicingMSA/LA_447/IMG_14_447.jpg"",""SV_PolicingMSA/LA_447/IMG_5_447.jpg"",""SV_PolicingMSA/LA_447/IMG_9_447.jpg""]","4",NA,NA,NA,NA,NA,3,NA,4,"[""./rc_img/cop_condGroup_3_SafeStreets_autoscaled.png"",""./rc_img/cop_condGroup_3_CommunitySafety_autoscaled.png""]",4,NA,NA,"LA_447/","LA_447",3,3,3,3,3,3,5,"LA_447",3,3,3,3,3,3,"LA_447",3,3,3,3,3,3,3,"56","male","man","","20149",""
"23","sliderTrial","html-slider-response",89,1372733,"0.0-89.0",NA,"656776a7904ae00d6b91d1dd","6568aa625c255e39d98f4e99",2,NA,NA,NA,NA,NA,NA,NA,NA,NA,NA,NA,"1632","[""SV_PolicingMSA/LA_1076/IMG_5_1076.jpg"",""SV_PolicingMSA/LA_1076/IMG_8_1076.jpg"",""SV_PolicingMSA/LA_1076/IMG_14_1076.jpg"",""SV_PolicingMSA/LA_1076/IMG_12_1076.jpg"",""SV_PolicingMSA/LA_1076/IMG_4_1076.jpg"",""SV_PolicingMSA/LA_1076/IMG_3_1076.jpg"",""SV_PolicingMSA/LA_1076/IMG_6_1076.jpg"",""SV_PolicingMSA/LA_1076/IMG_11_1076.jpg""]","4",NA,NA,NA,NA,NA,5,NA,4,"[""./rc_img/cop_condGroup_6_CommunitySafety_autoscaled.png"",""./rc_img/cop_condGroup_6_SafeStreets_autoscaled.png""]",4,NA,NA,"LA_1076","LA_1076",5,3,3,3,3,3,8,"LA_1076",5,3,3,3,3,3,"LA_1076",5,3,3,3,3,3,3,"56","male","man","","20149",""
"24","sliderTrial","html-slider-response",90,1373581,"0.0-90.0",NA,"656776a7904ae00d6b91d1dd","6568aa625c255e39d98f4e99",2,NA,NA,NA,NA,NA,NA,NA,NA,NA,NA,NA,"846","[""SV_PolicingMSA/LA_1076/IMG_5_1076.jpg"",""SV_PolicingMSA/LA_1076/IMG_8_1076.jpg"",""SV_PolicingMSA/LA_1076/IMG_14_1076.jpg"",""SV_PolicingMSA/LA_1076/IMG_12_1076.jpg"",""SV_PolicingMSA/LA_1076/IMG_4_1076.jpg"",""SV_PolicingMSA/LA_1076/IMG_3_1076.jpg"",""SV_PolicingMSA/LA_1076/IMG_6_1076.jpg"",""SV_PolicingMSA/LA_1076/IMG_11_1076.jpg""]","4",NA,NA,NA,NA,NA,5,NA,4,"[""./rc_img/cop_condGroup_17_CommunitySafety_autoscaled.png"",""./rc_img/cop_condGroup_17_SafeStreets_autoscaled.png""]",4,NA,NA,"LA_1076","LA_1076",5,3,3,3,3,3,8,"LA_1076",5,3,3,3,3,3,"LA_1076",5,3,3,3,3,3,3,"56","male","man","","20149",""
"25","sliderTrial","html-slider-response",91,1374384,"0.0-91.0",NA,"656776a7904ae00d6b91d1dd","6568aa625c255e39d98f4e99",2,NA,NA,NA,NA,NA,NA,NA,NA,NA,NA,NA,"802","[""SV_PolicingMSA/LA_1076/IMG_5_1076.jpg"",""SV_PolicingMSA/LA_1076/IMG_8_1076.jpg"",""SV_PolicingMSA/LA_1076/IMG_14_1076.jpg"",""SV_PolicingMSA/LA_1076/IMG_12_1076.jpg"",""SV_PolicingMSA/LA_1076/IMG_4_1076.jpg"",""SV_PolicingMSA/LA_1076/IMG_3_1076.jpg"",""SV_PolicingMSA/LA_1076/IMG_6_1076.jpg"",""SV_PolicingMSA/LA_1076/IMG_11_1076.jpg""]","4",NA,NA,NA,NA,NA,5,NA,4,"[""./rc_img/cop_condGroup_16_CommunitySafety_autoscaled.png"",""./rc_img/cop_condGroup_16_SafeStreets_autoscaled.png""]",4,NA,NA,"LA_1076","LA_1076",5,3,3,3,3,3,8,"LA_1076",5,3,3,3,3,3,"LA_1076",5,3,3,3,3,3,3,"56","male","man","","20149",""
"26","sliderTrial","html-slider-response",92,1375066,"0.0-92.0",NA,"656776a7904ae00d6b91d1dd","6568aa625c255e39d98f4e99",2,NA,NA,NA,NA,NA,NA,NA,NA,NA,NA,NA,"680","[""SV_PolicingMSA/LA_1076/IMG_5_1076.jpg"",""SV_PolicingMSA/LA_1076/IMG_8_1076.jpg"",""SV_PolicingMSA/LA_1076/IMG_14_1076.jpg"",""SV_PolicingMSA/LA_1076/IMG_12_1076.jpg"",""SV_PolicingMSA/LA_1076/IMG_4_1076.jpg"",""SV_PolicingMSA/LA_1076/IMG_3_1076.jpg"",""SV_PolicingMSA/LA_1076/IMG_6_1076.jpg"",""SV_PolicingMSA/LA_1076/IMG_11_1076.jpg""]","4",NA,NA,NA,NA,NA,5,NA,4,"[""./rc_img/cop_condGroup_11_SafeStreets_autoscaled.png"",""./rc_img/cop_condGroup_11_CommunitySafety_autoscaled.png""]",4,NA,NA,"LA_1076","LA_1076",5,3,3,3,3,3,8,"LA_1076",5,3,3,3,3,3,"LA_1076",5,3,3,3,3,3,3,"56","male","man","","20149",""
"27","sliderTrial","html-slider-response",93,1375795,"0.0-93.0",NA,"656776a7904ae00d6b91d1dd","6568aa625c255e39d98f4e99",2,NA,NA,NA,NA,NA,NA,NA,NA,NA,NA,NA,"726","[""SV_PolicingMSA/LA_1076/IMG_5_1076.jpg"",""SV_PolicingMSA/LA_1076/IMG_8_1076.jpg"",""SV_PolicingMSA/LA_1076/IMG_14_1076.jpg"",""SV_PolicingMSA/LA_1076/IMG_12_1076.jpg"",""SV_PolicingMSA/LA_1076/IMG_4_1076.jpg"",""SV_PolicingMSA/LA_1076/IMG_3_1076.jpg"",""SV_PolicingMSA/LA_1076/IMG_6_1076.jpg"",""SV_PolicingMSA/LA_1076/IMG_11_1076.jpg""]","4",NA,NA,NA,NA,NA,5,NA,4,"[""./rc_img/cop_condGroup_15_CommunitySafety_autoscaled.png"",""./rc_img/cop_condGroup_15_SafeStreets_autoscaled.png""]",4,NA,NA,"LA_1076","LA_1076",5,3,3,3,3,3,8,"LA_1076",5,3,3,3,3,3,"LA_1076",5,3,3,3,3,3,3,"56","male","man","","20149",""
"28","sliderTrial","html-slider-response",106,1399593,"0.0-106.0",NA,"656776a7904ae00d6b91d1dd","6568aa625c255e39d98f4e99",2,NA,NA,NA,NA,NA,NA,NA,NA,NA,NA,NA,"1789","[""SV_PolicingMSA/LA_438/IMG_10_438.jpg"",""SV_PolicingMSA/LA_438/IMG_11_438.jpg"",""SV_PolicingMSA/LA_438/IMG_14_438.jpg"",""SV_PolicingMSA/LA_438/IMG_9_438.jpg"",""SV_PolicingMSA/LA_438/IMG_8_438.jpg"",""SV_PolicingMSA/LA_438/IMG_0_438.jpg"",""SV_PolicingMSA/LA_438/IMG_6_438.jpg"",""SV_PolicingMSA/LA_438/IMG_3_438.jpg""]","4",NA,NA,NA,NA,NA,4,NA,4,"[""./rc_img/cop_condGroup_4_CommunitySafety_autoscaled.png"",""./rc_img/cop_condGroup_4_SafeStreets_autoscaled.png""]",4,NA,NA,"LA_438/","LA_438",4,3,3,3,3,3,7,"LA_438",4,3,3,3,3,3,"LA_438",4,3,3,3,3,3,3,"56","male","man","","20149",""
"29","sliderTrial","html-slider-response",107,1400139,"0.0-107.0",NA,"656776a7904ae00d6b91d1dd","6568aa625c255e39d98f4e99",2,NA,NA,NA,NA,NA,NA,NA,NA,NA,NA,NA,"545","[""SV_PolicingMSA/LA_438/IMG_10_438.jpg"",""SV_PolicingMSA/LA_438/IMG_11_438.jpg"",""SV_PolicingMSA/LA_438/IMG_14_438.jpg"",""SV_PolicingMSA/LA_438/IMG_9_438.jpg"",""SV_PolicingMSA/LA_438/IMG_8_438.jpg"",""SV_PolicingMSA/LA_438/IMG_0_438.jpg"",""SV_PolicingMSA/LA_438/IMG_6_438.jpg"",""SV_PolicingMSA/LA_438/IMG_3_438.jpg""]","4",NA,NA,NA,NA,NA,4,NA,4,"[""./rc_img/cop_condGroup_5_CommunitySafety_autoscaled.png"",""./rc_img/cop_condGroup_5_SafeStreets_autoscaled.png""]",4,NA,NA,"LA_438/","LA_438",4,3,3,3,3,3,7,"LA_438",4,3,3,3,3,3,"LA_438",4,3,3,3,3,3,3,"56","male","man","","20149",""
"30","sliderTrial","html-slider-response",108,1400732,"0.0-108.0",NA,"656776a7904ae00d6b91d1dd","6568aa625c255e39d98f4e99",2,NA,NA,NA,NA,NA,NA,NA,NA,NA,NA,NA,"592","[""SV_PolicingMSA/LA_438/IMG_10_438.jpg"",""SV_PolicingMSA/LA_438/IMG_11_438.jpg"",""SV_PolicingMSA/LA_438/IMG_14_438.jpg"",""SV_PolicingMSA/LA_438/IMG_9_438.jpg"",""SV_PolicingMSA/LA_438/IMG_8_438.jpg"",""SV_PolicingMSA/LA_438/IMG_0_438.jpg"",""SV_PolicingMSA/LA_438/IMG_6_438.jpg"",""SV_PolicingMSA/LA_438/IMG_3_438.jpg""]","4",NA,NA,NA,NA,NA,4,NA,4,"[""./rc_img/cop_condGroup_8_CommunitySafety_autoscaled.png"",""./rc_img/cop_condGroup_8_SafeStreets_autoscaled.png""]",4,NA,NA,"LA_438/","LA_438",4,3,3,3,3,3,7,"LA_438",4,3,3,3,3,3,"LA_438",4,3,3,3,3,3,3,"56","male","man","","20149",""
"31","sliderTrial","html-slider-response",109,1401272,"0.0-109.0",NA,"656776a7904ae00d6b91d1dd","6568aa625c255e39d98f4e99",2,NA,NA,NA,NA,NA,NA,NA,NA,NA,NA,NA,"536","[""SV_PolicingMSA/LA_438/IMG_10_438.jpg"",""SV_PolicingMSA/LA_438/IMG_11_438.jpg"",""SV_PolicingMSA/LA_438/IMG_14_438.jpg"",""SV_PolicingMSA/LA_438/IMG_9_438.jpg"",""SV_PolicingMSA/LA_438/IMG_8_438.jpg"",""SV_PolicingMSA/LA_438/IMG_0_438.jpg"",""SV_PolicingMSA/LA_438/IMG_6_438.jpg"",""SV_PolicingMSA/LA_438/IMG_3_438.jpg""]","4",NA,NA,NA,NA,NA,4,NA,4,"[""./rc_img/cop_condGroup_2_SafeStreets_autoscaled.png"",""./rc_img/cop_condGroup_2_CommunitySafety_autoscaled.png""]",4,NA,NA,"LA_438/","LA_438",4,3,3,3,3,3,7,"LA_438",4,3,3,3,3,3,"LA_438",4,3,3,3,3,3,3,"56","male","man","","20149",""
"32","sliderTrial","html-slider-response",110,1401872,"0.0-110.0",NA,"656776a7904ae00d6b91d1dd","6568aa625c255e39d98f4e99",2,NA,NA,NA,NA,NA,NA,NA,NA,NA,NA,NA,"598","[""SV_PolicingMSA/LA_438/IMG_10_438.jpg"",""SV_PolicingMSA/LA_438/IMG_11_438.jpg"",""SV_PolicingMSA/LA_438/IMG_14_438.jpg"",""SV_PolicingMSA/LA_438/IMG_9_438.jpg"",""SV_PolicingMSA/LA_438/IMG_8_438.jpg"",""SV_PolicingMSA/LA_438/IMG_0_438.jpg"",""SV_PolicingMSA/LA_438/IMG_6_438.jpg"",""SV_PolicingMSA/LA_438/IMG_3_438.jpg""]","4",NA,NA,NA,NA,NA,4,NA,4,"[""./rc_img/cop_condGroup_9_CommunitySafety_autoscaled.png"",""./rc_img/cop_condGroup_9_SafeStreets_autoscaled.png""]",4,NA,NA,"LA_438/","LA_438",4,3,3,3,3,3,7,"LA_438",4,3,3,3,3,3,"LA_438",4,3,3,3,3,3,3,"56","male","man","","20149",""
"33","sliderTrial","html-slider-response",123,1436952,"0.0-123.0",NA,"656776a7904ae00d6b91d1dd","6568aa625c255e39d98f4e99",2,NA,NA,NA,NA,NA,NA,NA,NA,NA,NA,NA,"8037","[""SV_PolicingMSA/LA_42/IMG_0_42.jpg"",""SV_PolicingMSA/LA_42/IMG_5_42.jpg"",""SV_PolicingMSA/LA_42/IMG_2_42.jpg"",""SV_PolicingMSA/LA_42/IMG_1_42.jpg"",""SV_PolicingMSA/LA_42/IMG_10_42.jpg"",""SV_PolicingMSA/LA_42/IMG_7_42.jpg"",""SV_PolicingMSA/LA_42/IMG_13_42.jpg"",""SV_PolicingMSA/LA_42/IMG_14_42.jpg""]","4",NA,NA,NA,NA,NA,2,NA,4,"[""./rc_img/cop_condGroup_10_SafeStreets_autoscaled.png"",""./rc_img/cop_condGroup_10_CommunitySafety_autoscaled.png""]",4,NA,NA,"LA_42/I","LA_42I",2,3,3,3,3,3,4,"LA_42I",2,3,3,3,3,3,"LA_42I",2,3,3,3,3,3,3,"56","male","man","","20149",""
"34","sliderTrial","html-slider-response",124,1437649,"0.0-124.0",NA,"656776a7904ae00d6b91d1dd","6568aa625c255e39d98f4e99",2,NA,NA,NA,NA,NA,NA,NA,NA,NA,NA,NA,"695","[""SV_PolicingMSA/LA_42/IMG_0_42.jpg"",""SV_PolicingMSA/LA_42/IMG_5_42.jpg"",""SV_PolicingMSA/LA_42/IMG_2_42.jpg"",""SV_PolicingMSA/LA_42/IMG_1_42.jpg"",""SV_PolicingMSA/LA_42/IMG_10_42.jpg"",""SV_PolicingMSA/LA_42/IMG_7_42.jpg"",""SV_PolicingMSA/LA_42/IMG_13_42.jpg"",""SV_PolicingMSA/LA_42/IMG_14_42.jpg""]","4",NA,NA,NA,NA,NA,2,NA,4,"[""./rc_img/cop_condGroup_13_SafeStreets_autoscaled.png"",""./rc_img/cop_condGroup_13_CommunitySafety_autoscaled.png""]",4,NA,NA,"LA_42/I","LA_42I",2,3,3,3,3,3,4,"LA_42I",2,3,3,3,3,3,"LA_42I",2,3,3,3,3,3,3,"56","male","man","","20149",""
"35","sliderTrial","html-slider-response",125,1438437,"0.0-125.0",NA,"656776a7904ae00d6b91d1dd","6568aa625c255e39d98f4e99",2,NA,NA,NA,NA,NA,NA,NA,NA,NA,NA,NA,"786","[""SV_PolicingMSA/LA_42/IMG_0_42.jpg"",""SV_PolicingMSA/LA_42/IMG_5_42.jpg"",""SV_PolicingMSA/LA_42/IMG_2_42.jpg"",""SV_PolicingMSA/LA_42/IMG_1_42.jpg"",""SV_PolicingMSA/LA_42/IMG_10_42.jpg"",""SV_PolicingMSA/LA_42/IMG_7_42.jpg"",""SV_PolicingMSA/LA_42/IMG_13_42.jpg"",""SV_PolicingMSA/LA_42/IMG_14_42.jpg""]","4",NA,NA,NA,NA,NA,2,NA,4,"[""./rc_img/cop_condGroup_18_CommunitySafety_autoscaled.png"",""./rc_img/cop_condGroup_18_SafeStreets_autoscaled.png""]",4,NA,NA,"LA_42/I","LA_42I",2,3,3,3,3,3,4,"LA_42I",2,3,3,3,3,3,"LA_42I",2,3,3,3,3,3,3,"56","male","man","","20149",""
"36","sliderTrial","html-slider-response",126,1439119,"0.0-126.0",NA,"656776a7904ae00d6b91d1dd","6568aa625c255e39d98f4e99",2,NA,NA,NA,NA,NA,NA,NA,NA,NA,NA,NA,"680","[""SV_PolicingMSA/LA_42/IMG_0_42.jpg"",""SV_PolicingMSA/LA_42/IMG_5_42.jpg"",""SV_PolicingMSA/LA_42/IMG_2_42.jpg"",""SV_PolicingMSA/LA_42/IMG_1_42.jpg"",""SV_PolicingMSA/LA_42/IMG_10_42.jpg"",""SV_PolicingMSA/LA_42/IMG_7_42.jpg"",""SV_PolicingMSA/LA_42/IMG_13_42.jpg"",""SV_PolicingMSA/LA_42/IMG_14_42.jpg""]","4",NA,NA,NA,NA,NA,2,NA,4,"[""./rc_img/cop_condGroup_7_CommunitySafety_autoscaled.png"",""./rc_img/cop_condGroup_7_SafeStreets_autoscaled.png""]",4,NA,NA,"LA_42/I","LA_42I",2,3,3,3,3,3,4,"LA_42I",2,3,3,3,3,3,"LA_42I",2,3,3,3,3,3,3,"56","male","man","","20149",""
"37","sliderTrial","html-slider-response",127,1439802,"0.0-127.0",NA,"656776a7904ae00d6b91d1dd","6568aa625c255e39d98f4e99",2,NA,NA,NA,NA,NA,NA,NA,NA,NA,NA,NA,"681","[""SV_PolicingMSA/LA_42/IMG_0_42.jpg"",""SV_PolicingMSA/LA_42/IMG_5_42.jpg"",""SV_PolicingMSA/LA_42/IMG_2_42.jpg"",""SV_PolicingMSA/LA_42/IMG_1_42.jpg"",""SV_PolicingMSA/LA_42/IMG_10_42.jpg"",""SV_PolicingMSA/LA_42/IMG_7_42.jpg"",""SV_PolicingMSA/LA_42/IMG_13_42.jpg"",""SV_PolicingMSA/LA_42/IMG_14_42.jpg""]","4",NA,NA,NA,NA,NA,2,NA,4,"[""./rc_img/cop_condGroup_12_SafeStreets_autoscaled.png"",""./rc_img/cop_condGroup_12_CommunitySafety_autoscaled.png""]",4,NA,NA,"LA_42/I","LA_42I",2,3,3,3,3,3,4,"LA_42I",2,3,3,3,3,3,"LA_42I",2,3,3,3,3,3,3,"56","male","man","","20149",""
"38","sliderTrial","html-slider-response",140,1484511,"0.0-140.0",NA,"656776a7904ae00d6b91d1dd","6568aa625c255e39d98f4e99",2,NA,NA,NA,NA,NA,NA,NA,NA,NA,NA,NA,"1798","[""SV_PolicingMSA/LA_599/IMG_2_599.jpg"",""SV_PolicingMSA/LA_599/IMG_4_599.jpg"",""SV_PolicingMSA/LA_599/IMG_1_599.jpg"",""SV_PolicingMSA/LA_599/IMG_9_599.jpg"",""SV_PolicingMSA/LA_599/IMG_11_599.jpg"",""SV_PolicingMSA/LA_599/IMG_3_599.jpg"",""SV_PolicingMSA/LA_599/IMG_5_599.jpg"",""SV_PolicingMSA/LA_599/IMG_8_599.jpg""]","4",NA,NA,NA,NA,NA,3,NA,4,"[""./rc_img/cop_condGroup_6_CommunitySafety_autoscaled.png"",""./rc_img/cop_condGroup_6_SafeStreets_autoscaled.png""]",4,NA,NA,"LA_599/","LA_599",3,3,3,3,3,3,6,"LA_599",3,3,3,3,3,3,"LA_599",3,3,3,3,3,3,3,"56","male","man","","20149",""
"39","sliderTrial","html-slider-response",141,1485320,"0.0-141.0",NA,"656776a7904ae00d6b91d1dd","6568aa625c255e39d98f4e99",2,NA,NA,NA,NA,NA,NA,NA,NA,NA,NA,NA,"806","[""SV_PolicingMSA/LA_599/IMG_2_599.jpg"",""SV_PolicingMSA/LA_599/IMG_4_599.jpg"",""SV_PolicingMSA/LA_599/IMG_1_599.jpg"",""SV_PolicingMSA/LA_599/IMG_9_599.jpg"",""SV_PolicingMSA/LA_599/IMG_11_599.jpg"",""SV_PolicingMSA/LA_599/IMG_3_599.jpg"",""SV_PolicingMSA/LA_599/IMG_5_599.jpg"",""SV_PolicingMSA/LA_599/IMG_8_599.jpg""]","4",NA,NA,NA,NA,NA,3,NA,4,"[""./rc_img/cop_condGroup_17_CommunitySafety_autoscaled.png"",""./rc_img/cop_condGroup_17_SafeStreets_autoscaled.png""]",4,NA,NA,"LA_599/","LA_599",3,3,3,3,3,3,6,"LA_599",3,3,3,3,3,3,"LA_599",3,3,3,3,3,3,3,"56","male","man","","20149",""
"40","sliderTrial","html-slider-response",142,1485973,"0.0-142.0",NA,"656776a7904ae00d6b91d1dd","6568aa625c255e39d98f4e99",2,NA,NA,NA,NA,NA,NA,NA,NA,NA,NA,NA,"651","[""SV_PolicingMSA/LA_599/IMG_2_599.jpg"",""SV_PolicingMSA/LA_599/IMG_4_599.jpg"",""SV_PolicingMSA/LA_599/IMG_1_599.jpg"",""SV_PolicingMSA/LA_599/IMG_9_599.jpg"",""SV_PolicingMSA/LA_599/IMG_11_599.jpg"",""SV_PolicingMSA/LA_599/IMG_3_599.jpg"",""SV_PolicingMSA/LA_599/IMG_5_599.jpg"",""SV_PolicingMSA/LA_599/IMG_8_599.jpg""]","4",NA,NA,NA,NA,NA,3,NA,4,"[""./rc_img/cop_condGroup_16_CommunitySafety_autoscaled.png"",""./rc_img/cop_condGroup_16_SafeStreets_autoscaled.png""]",4,NA,NA,"LA_599/","LA_599",3,3,3,3,3,3,6,"LA_599",3,3,3,3,3,3,"LA_599",3,3,3,3,3,3,3,"56","male","man","","20149",""
"41","sliderTrial","html-slider-response",143,1486618,"0.0-143.0",NA,"656776a7904ae00d6b91d1dd","6568aa625c255e39d98f4e99",2,NA,NA,NA,NA,NA,NA,NA,NA,NA,NA,NA,"644","[""SV_PolicingMSA/LA_599/IMG_2_599.jpg"",""SV_PolicingMSA/LA_599/IMG_4_599.jpg"",""SV_PolicingMSA/LA_599/IMG_1_599.jpg"",""SV_PolicingMSA/LA_599/IMG_9_599.jpg"",""SV_PolicingMSA/LA_599/IMG_11_599.jpg"",""SV_PolicingMSA/LA_599/IMG_3_599.jpg"",""SV_PolicingMSA/LA_599/IMG_5_599.jpg"",""SV_PolicingMSA/LA_599/IMG_8_599.jpg""]","4",NA,NA,NA,NA,NA,3,NA,4,"[""./rc_img/cop_condGroup_11_SafeStreets_autoscaled.png"",""./rc_img/cop_condGroup_11_CommunitySafety_autoscaled.png""]",4,NA,NA,"LA_599/","LA_599",3,3,3,3,3,3,6,"LA_599",3,3,3,3,3,3,"LA_599",3,3,3,3,3,3,3,"56","male","man","","20149",""
"42","sliderTrial","html-slider-response",144,1487263,"0.0-144.0",NA,"656776a7904ae00d6b91d1dd","6568aa625c255e39d98f4e99",2,NA,NA,NA,NA,NA,NA,NA,NA,NA,NA,NA,"644","[""SV_PolicingMSA/LA_599/IMG_2_599.jpg"",""SV_PolicingMSA/LA_599/IMG_4_599.jpg"",""SV_PolicingMSA/LA_599/IMG_1_599.jpg"",""SV_PolicingMSA/LA_599/IMG_9_599.jpg"",""SV_PolicingMSA/LA_599/IMG_11_599.jpg"",""SV_PolicingMSA/LA_599/IMG_3_599.jpg"",""SV_PolicingMSA/LA_599/IMG_5_599.jpg"",""SV_PolicingMSA/LA_599/IMG_8_599.jpg""]","4",NA,NA,NA,NA,NA,3,NA,4,"[""./rc_img/cop_condGroup_15_CommunitySafety_autoscaled.png"",""./rc_img/cop_condGroup_15_SafeStreets_autoscaled.png""]",4,NA,NA,"LA_599/","LA_599",3,3,3,3,3,3,6,"LA_599",3,3,3,3,3,3,"LA_599",3,3,3,3,3,3,3,"56","male","man","","20149",""
