"","task","trial_type","trial_index","time_elapsed","internal_node_id","subject_id","study_id","session_id","section","width","height","webaudio","browser","browser_version","mobile","os","fullscreen","vsync_rate","webcam","microphone","rt","stimulus","response","success","timeout","failed_images","failed_audio","failed_video","block.x.x","accuracy","slider_start","choices","standardized_response","correct","num_attention_checks_correct","stim_tract","stim_tractT","block.x","P0_Q1.wealthy","P0_Q1.safe","P0_Q1.walkable","P0_Q1.traditional","P0_Q1.diverse","block_fixed","stim_tractT.x","block.y","P0_Q1.violence","P0_Q1.crime","P0_Q1.drug","P0_Q1.schools","P0_Q1.opportunities","stim_tractT.y","block.y.y","P0_Q1.movein","P0_Q1.moveout","P0_Q1.shopping","P0_Q1.walk","P0_Q1.park","P0_Q1.school","age","sex","gender","gender-self-describe","zipcode","surveyComments"
"1","sliderTrial","html-slider-response",18,118590,"0.0-18.0",NA,"656776a7904ae00d6b91d1dd","6568af3b6626284e77b502d5",11,NA,NA,NA,NA,NA,NA,NA,NA,NA,NA,NA,"16745","[""SV_PolicingMSA/NJ_979/IMG_2_979.jpg"",""SV_PolicingMSA/NJ_979/IMG_1_979.jpg"",""SV_PolicingMSA/NJ_979/IMG_3_979.jpg"",""SV_PolicingMSA/NJ_979/IMG_10_979.jpg"",""SV_PolicingMSA/NJ_979/IMG_8_979.jpg"",""SV_PolicingMSA/NJ_979/IMG_13_979.jpg"",""SV_PolicingMSA/NJ_979/IMG_7_979.jpg"",""SV_PolicingMSA/NJ_979/IMG_12_979.jpg""]","4",NA,NA,NA,NA,NA,0,NA,4,"[""./rc_img/cop_condGroup_19_CommunitySafety_autoscaled.png"",""./rc_img/cop_condGroup_19_SafeStreets_autoscaled.png""]",4,NA,NA,"NJ_979/","NJ_979",0,1,1,0,2,2,1,"NJ_979",0,2,2,3,1,0,"NJ_979",0,0,4,0,0,0,0,"41","male","man","","49337",""
"2","sliderTrial","html-slider-response",19,124239,"0.0-19.0",NA,"656776a7904ae00d6b91d1dd","6568af3b6626284e77b502d5",11,NA,NA,NA,NA,NA,NA,NA,NA,NA,NA,NA,"5647","[""SV_PolicingMSA/NJ_979/IMG_2_979.jpg"",""SV_PolicingMSA/NJ_979/IMG_1_979.jpg"",""SV_PolicingMSA/NJ_979/IMG_3_979.jpg"",""SV_PolicingMSA/NJ_979/IMG_10_979.jpg"",""SV_PolicingMSA/NJ_979/IMG_8_979.jpg"",""SV_PolicingMSA/NJ_979/IMG_13_979.jpg"",""SV_PolicingMSA/NJ_979/IMG_7_979.jpg"",""SV_PolicingMSA/NJ_979/IMG_12_979.jpg""]","3",NA,NA,NA,NA,NA,0,NA,4,"[""./rc_img/cop_condGroup_20_SafeStreets_autoscaled.png"",""./rc_img/cop_condGroup_20_CommunitySafety_autoscaled.png""]",5,NA,NA,"NJ_979/","NJ_979",0,1,1,0,2,2,1,"NJ_979",0,2,2,3,1,0,"NJ_979",0,0,4,0,0,0,0,"41","male","man","","49337",""
"3","sliderTrial","html-slider-response",20,127255,"0.0-20.0",NA,"656776a7904ae00d6b91d1dd","6568af3b6626284e77b502d5",11,NA,NA,NA,NA,NA,NA,NA,NA,NA,NA,NA,"3015","[""SV_PolicingMSA/NJ_979/IMG_2_979.jpg"",""SV_PolicingMSA/NJ_979/IMG_1_979.jpg"",""SV_PolicingMSA/NJ_979/IMG_3_979.jpg"",""SV_PolicingMSA/NJ_979/IMG_10_979.jpg"",""SV_PolicingMSA/NJ_979/IMG_8_979.jpg"",""SV_PolicingMSA/NJ_979/IMG_13_979.jpg"",""SV_PolicingMSA/NJ_979/IMG_7_979.jpg"",""SV_PolicingMSA/NJ_979/IMG_12_979.jpg""]","5",NA,NA,NA,NA,NA,0,NA,4,"[""./rc_img/cop_condGroup_2_SafeStreets_autoscaled.png"",""./rc_img/cop_condGroup_2_CommunitySafety_autoscaled.png""]",3,NA,NA,"NJ_979/","NJ_979",0,1,1,0,2,2,1,"NJ_979",0,2,2,3,1,0,"NJ_979",0,0,4,0,0,0,0,"41","male","man","","49337",""
"4","sliderTrial_attention","html-slider-response",21,137261,"0.0-21.0",NA,"656776a7904ae00d6b91d1dd","6568af3b6626284e77b502d5",11,NA,NA,NA,NA,NA,NA,NA,NA,NA,NA,NA,"null","[""SV_PolicingMSA/NJ_979/IMG_2_979.jpg"",""SV_PolicingMSA/NJ_979/IMG_1_979.jpg"",""SV_PolicingMSA/NJ_979/IMG_3_979.jpg"",""SV_PolicingMSA/NJ_979/IMG_10_979.jpg"",""SV_PolicingMSA/NJ_979/IMG_8_979.jpg"",""SV_PolicingMSA/NJ_979/IMG_13_979.jpg"",""SV_PolicingMSA/NJ_979/IMG_7_979.jpg"",""SV_PolicingMSA/NJ_979/IMG_12_979.jpg""]","null",NA,NA,NA,NA,NA,0,NA,4,"[""./assets/img/attnchk.png"",""./assets/img/attnchk.png""]",NA,TRUE,NA,"NJ_979/","NJ_979",0,1,1,0,2,2,1,"NJ_979",0,2,2,3,1,0,"NJ_979",0,0,4,0,0,0,0,"41","male","man","","49337",""
"5","sliderTrial","html-slider-response",22,141422,"0.0-22.0",NA,"656776a7904ae00d6b91d1dd","6568af3b6626284e77b502d5",11,NA,NA,NA,NA,NA,NA,NA,NA,NA,NA,NA,"4160","[""SV_PolicingMSA/NJ_979/IMG_2_979.jpg"",""SV_PolicingMSA/NJ_979/IMG_1_979.jpg"",""SV_PolicingMSA/NJ_979/IMG_3_979.jpg"",""SV_PolicingMSA/NJ_979/IMG_10_979.jpg"",""SV_PolicingMSA/NJ_979/IMG_8_979.jpg"",""SV_PolicingMSA/NJ_979/IMG_13_979.jpg"",""SV_PolicingMSA/NJ_979/IMG_7_979.jpg"",""SV_PolicingMSA/NJ_979/IMG_12_979.jpg""]","2",NA,NA,NA,NA,NA,0,NA,4,"[""./rc_img/cop_condGroup_12_CommunitySafety_autoscaled.png"",""./rc_img/cop_condGroup_12_SafeStreets_autoscaled.png""]",2,NA,NA,"NJ_979/","NJ_979",0,1,1,0,2,2,1,"NJ_979",0,2,2,3,1,0,"NJ_979",0,0,4,0,0,0,0,"41","male","man","","49337",""
"6","sliderTrial","html-slider-response",23,145638,"0.0-23.0",NA,"656776a7904ae00d6b91d1dd","6568af3b6626284e77b502d5",11,NA,NA,NA,NA,NA,NA,NA,NA,NA,NA,NA,"4215","[""SV_PolicingMSA/NJ_979/IMG_2_979.jpg"",""SV_PolicingMSA/NJ_979/IMG_1_979.jpg"",""SV_PolicingMSA/NJ_979/IMG_3_979.jpg"",""SV_PolicingMSA/NJ_979/IMG_10_979.jpg"",""SV_PolicingMSA/NJ_979/IMG_8_979.jpg"",""SV_PolicingMSA/NJ_979/IMG_13_979.jpg"",""SV_PolicingMSA/NJ_979/IMG_7_979.jpg"",""SV_PolicingMSA/NJ_979/IMG_12_979.jpg""]","1",NA,NA,NA,NA,NA,0,NA,4,"[""./rc_img/cop_condGroup_15_SafeStreets_autoscaled.png"",""./rc_img/cop_condGroup_15_CommunitySafety_autoscaled.png""]",7,NA,NA,"NJ_979/","NJ_979",0,1,1,0,2,2,1,"NJ_979",0,2,2,3,1,0,"NJ_979",0,0,4,0,0,0,0,"41","male","man","","49337",""
"7","sliderTrial","html-slider-response",36,194702,"0.0-36.0",NA,"656776a7904ae00d6b91d1dd","6568af3b6626284e77b502d5",11,NA,NA,NA,NA,NA,NA,NA,NA,NA,NA,NA,"3122","[""SV_PolicingMSA/NY_5291/IMG_14_5291.jpg"",""SV_PolicingMSA/NY_5291/IMG_6_5291.jpg"",""SV_PolicingMSA/NY_5291/IMG_3_5291.jpg"",""SV_PolicingMSA/NY_5291/IMG_5_5291.jpg"",""SV_PolicingMSA/NY_5291/IMG_8_5291.jpg"",""SV_PolicingMSA/NY_5291/IMG_9_5291.jpg"",""SV_PolicingMSA/NY_5291/IMG_4_5291.jpg"",""SV_PolicingMSA/NY_5291/IMG_2_5291.jpg""]","3",NA,NA,NA,NA,NA,4,NA,4,"[""./rc_img/cop_condGroup_17_CommunitySafety_autoscaled.png"",""./rc_img/cop_condGroup_17_SafeStreets_autoscaled.png""]",3,NA,NA,"NY_5291","NY_5291",4,1,2,2,3,1,7,"NY_5291",4,2,1,2,1,1,"NY_5291",4,0,4,2,0,1,0,"41","male","man","","49337",""
"8","sliderTrial","html-slider-response",37,197038,"0.0-37.0",NA,"656776a7904ae00d6b91d1dd","6568af3b6626284e77b502d5",11,NA,NA,NA,NA,NA,NA,NA,NA,NA,NA,NA,"2335","[""SV_PolicingMSA/NY_5291/IMG_14_5291.jpg"",""SV_PolicingMSA/NY_5291/IMG_6_5291.jpg"",""SV_PolicingMSA/NY_5291/IMG_3_5291.jpg"",""SV_PolicingMSA/NY_5291/IMG_5_5291.jpg"",""SV_PolicingMSA/NY_5291/IMG_8_5291.jpg"",""SV_PolicingMSA/NY_5291/IMG_9_5291.jpg"",""SV_PolicingMSA/NY_5291/IMG_4_5291.jpg"",""SV_PolicingMSA/NY_5291/IMG_2_5291.jpg""]","5",NA,NA,NA,NA,NA,4,NA,4,"[""./rc_img/cop_condGroup_5_SafeStreets_autoscaled.png"",""./rc_img/cop_condGroup_5_CommunitySafety_autoscaled.png""]",3,NA,NA,"NY_5291","NY_5291",4,1,2,2,3,1,7,"NY_5291",4,2,1,2,1,1,"NY_5291",4,0,4,2,0,1,0,"41","male","man","","49337",""
"9","sliderTrial","html-slider-response",38,200238,"0.0-38.0",NA,"656776a7904ae00d6b91d1dd","6568af3b6626284e77b502d5",11,NA,NA,NA,NA,NA,NA,NA,NA,NA,NA,NA,"3199","[""SV_PolicingMSA/NY_5291/IMG_14_5291.jpg"",""SV_PolicingMSA/NY_5291/IMG_6_5291.jpg"",""SV_PolicingMSA/NY_5291/IMG_3_5291.jpg"",""SV_PolicingMSA/NY_5291/IMG_5_5291.jpg"",""SV_PolicingMSA/NY_5291/IMG_8_5291.jpg"",""SV_PolicingMSA/NY_5291/IMG_9_5291.jpg"",""SV_PolicingMSA/NY_5291/IMG_4_5291.jpg"",""SV_PolicingMSA/NY_5291/IMG_2_5291.jpg""]","4",NA,NA,NA,NA,NA,4,NA,4,"[""./rc_img/cop_condGroup_4_CommunitySafety_autoscaled.png"",""./rc_img/cop_condGroup_4_SafeStreets_autoscaled.png""]",4,NA,NA,"NY_5291","NY_5291",4,1,2,2,3,1,7,"NY_5291",4,2,1,2,1,1,"NY_5291",4,0,4,2,0,1,0,"41","male","man","","49337",""
"10","sliderTrial","html-slider-response",39,202500,"0.0-39.0",NA,"656776a7904ae00d6b91d1dd","6568af3b6626284e77b502d5",11,NA,NA,NA,NA,NA,NA,NA,NA,NA,NA,NA,"2262","[""SV_PolicingMSA/NY_5291/IMG_14_5291.jpg"",""SV_PolicingMSA/NY_5291/IMG_6_5291.jpg"",""SV_PolicingMSA/NY_5291/IMG_3_5291.jpg"",""SV_PolicingMSA/NY_5291/IMG_5_5291.jpg"",""SV_PolicingMSA/NY_5291/IMG_8_5291.jpg"",""SV_PolicingMSA/NY_5291/IMG_9_5291.jpg"",""SV_PolicingMSA/NY_5291/IMG_4_5291.jpg"",""SV_PolicingMSA/NY_5291/IMG_2_5291.jpg""]","5",NA,NA,NA,NA,NA,4,NA,4,"[""./rc_img/cop_condGroup_10_SafeStreets_autoscaled.png"",""./rc_img/cop_condGroup_10_CommunitySafety_autoscaled.png""]",3,NA,NA,"NY_5291","NY_5291",4,1,2,2,3,1,7,"NY_5291",4,2,1,2,1,1,"NY_5291",4,0,4,2,0,1,0,"41","male","man","","49337",""
"11","sliderTrial","html-slider-response",40,208157,"0.0-40.0",NA,"656776a7904ae00d6b91d1dd","6568af3b6626284e77b502d5",11,NA,NA,NA,NA,NA,NA,NA,NA,NA,NA,NA,"5655","[""SV_PolicingMSA/NY_5291/IMG_14_5291.jpg"",""SV_PolicingMSA/NY_5291/IMG_6_5291.jpg"",""SV_PolicingMSA/NY_5291/IMG_3_5291.jpg"",""SV_PolicingMSA/NY_5291/IMG_5_5291.jpg"",""SV_PolicingMSA/NY_5291/IMG_8_5291.jpg"",""SV_PolicingMSA/NY_5291/IMG_9_5291.jpg"",""SV_PolicingMSA/NY_5291/IMG_4_5291.jpg"",""SV_PolicingMSA/NY_5291/IMG_2_5291.jpg""]","5",NA,NA,NA,NA,NA,4,NA,4,"[""./rc_img/cop_condGroup_9_SafeStreets_autoscaled.png"",""./rc_img/cop_condGroup_9_CommunitySafety_autoscaled.png""]",3,NA,NA,"NY_5291","NY_5291",4,1,2,2,3,1,7,"NY_5291",4,2,1,2,1,1,"NY_5291",4,0,4,2,0,1,0,"41","male","man","","49337",""
"12","sliderTrial","html-slider-response",53,249941,"0.0-53.0",NA,"656776a7904ae00d6b91d1dd","6568af3b6626284e77b502d5",11,NA,NA,NA,NA,NA,NA,NA,NA,NA,NA,NA,"2338","[""SV_PolicingMSA/NY_4752/IMG_2_4752.jpg"",""SV_PolicingMSA/NY_4752/IMG_7_4752.jpg"",""SV_PolicingMSA/NY_4752/IMG_12_4752.jpg"",""SV_PolicingMSA/NY_4752/IMG_4_4752.jpg"",""SV_PolicingMSA/NY_4752/IMG_9_4752.jpg"",""SV_PolicingMSA/NY_4752/IMG_6_4752.jpg"",""SV_PolicingMSA/NY_4752/IMG_3_4752.jpg"",""SV_PolicingMSA/NY_4752/IMG_0_4752.jpg""]","2",NA,NA,NA,NA,NA,5,NA,4,"[""./rc_img/cop_condGroup_18_SafeStreets_autoscaled.png"",""./rc_img/cop_condGroup_18_CommunitySafety_autoscaled.png""]",6,NA,NA,"NY_4752","NY_4752",5,0,1,1,1,3,8,"NY_4752",5,2,3,3,1,1,"NY_4752",5,0,4,0,0,0,0,"41","male","man","","49337",""
"13","sliderTrial","html-slider-response",54,252293,"0.0-54.0",NA,"656776a7904ae00d6b91d1dd","6568af3b6626284e77b502d5",11,NA,NA,NA,NA,NA,NA,NA,NA,NA,NA,NA,"2351","[""SV_PolicingMSA/NY_4752/IMG_2_4752.jpg"",""SV_PolicingMSA/NY_4752/IMG_7_4752.jpg"",""SV_PolicingMSA/NY_4752/IMG_12_4752.jpg"",""SV_PolicingMSA/NY_4752/IMG_4_4752.jpg"",""SV_PolicingMSA/NY_4752/IMG_9_4752.jpg"",""SV_PolicingMSA/NY_4752/IMG_6_4752.jpg"",""SV_PolicingMSA/NY_4752/IMG_3_4752.jpg"",""SV_PolicingMSA/NY_4752/IMG_0_4752.jpg""]","2",NA,NA,NA,NA,NA,5,NA,4,"[""./rc_img/cop_condGroup_6_SafeStreets_autoscaled.png"",""./rc_img/cop_condGroup_6_CommunitySafety_autoscaled.png""]",6,NA,NA,"NY_4752","NY_4752",5,0,1,1,1,3,8,"NY_4752",5,2,3,3,1,1,"NY_4752",5,0,4,0,0,0,0,"41","male","man","","49337",""
"14","sliderTrial","html-slider-response",55,253925,"0.0-55.0",NA,"656776a7904ae00d6b91d1dd","6568af3b6626284e77b502d5",11,NA,NA,NA,NA,NA,NA,NA,NA,NA,NA,NA,"1631","[""SV_PolicingMSA/NY_4752/IMG_2_4752.jpg"",""SV_PolicingMSA/NY_4752/IMG_7_4752.jpg"",""SV_PolicingMSA/NY_4752/IMG_12_4752.jpg"",""SV_PolicingMSA/NY_4752/IMG_4_4752.jpg"",""SV_PolicingMSA/NY_4752/IMG_9_4752.jpg"",""SV_PolicingMSA/NY_4752/IMG_6_4752.jpg"",""SV_PolicingMSA/NY_4752/IMG_3_4752.jpg"",""SV_PolicingMSA/NY_4752/IMG_0_4752.jpg""]","1",NA,NA,NA,NA,NA,5,NA,4,"[""./rc_img/cop_condGroup_16_SafeStreets_autoscaled.png"",""./rc_img/cop_condGroup_16_CommunitySafety_autoscaled.png""]",7,NA,NA,"NY_4752","NY_4752",5,0,1,1,1,3,8,"NY_4752",5,2,3,3,1,1,"NY_4752",5,0,4,0,0,0,0,"41","male","man","","49337",""
"15","sliderTrial","html-slider-response",56,255749,"0.0-56.0",NA,"656776a7904ae00d6b91d1dd","6568af3b6626284e77b502d5",11,NA,NA,NA,NA,NA,NA,NA,NA,NA,NA,NA,"1823","[""SV_PolicingMSA/NY_4752/IMG_2_4752.jpg"",""SV_PolicingMSA/NY_4752/IMG_7_4752.jpg"",""SV_PolicingMSA/NY_4752/IMG_12_4752.jpg"",""SV_PolicingMSA/NY_4752/IMG_4_4752.jpg"",""SV_PolicingMSA/NY_4752/IMG_9_4752.jpg"",""SV_PolicingMSA/NY_4752/IMG_6_4752.jpg"",""SV_PolicingMSA/NY_4752/IMG_3_4752.jpg"",""SV_PolicingMSA/NY_4752/IMG_0_4752.jpg""]","6",NA,NA,NA,NA,NA,5,NA,4,"[""./rc_img/cop_condGroup_3_CommunitySafety_autoscaled.png"",""./rc_img/cop_condGroup_3_SafeStreets_autoscaled.png""]",6,NA,NA,"NY_4752","NY_4752",5,0,1,1,1,3,8,"NY_4752",5,2,3,3,1,1,"NY_4752",5,0,4,0,0,0,0,"41","male","man","","49337",""
"16","sliderTrial","html-slider-response",57,259028,"0.0-57.0",NA,"656776a7904ae00d6b91d1dd","6568af3b6626284e77b502d5",11,NA,NA,NA,NA,NA,NA,NA,NA,NA,NA,NA,"3278","[""SV_PolicingMSA/NY_4752/IMG_2_4752.jpg"",""SV_PolicingMSA/NY_4752/IMG_7_4752.jpg"",""SV_PolicingMSA/NY_4752/IMG_12_4752.jpg"",""SV_PolicingMSA/NY_4752/IMG_4_4752.jpg"",""SV_PolicingMSA/NY_4752/IMG_9_4752.jpg"",""SV_PolicingMSA/NY_4752/IMG_6_4752.jpg"",""SV_PolicingMSA/NY_4752/IMG_3_4752.jpg"",""SV_PolicingMSA/NY_4752/IMG_0_4752.jpg""]","2",NA,NA,NA,NA,NA,5,NA,4,"[""./rc_img/cop_condGroup_7_SafeStreets_autoscaled.png"",""./rc_img/cop_condGroup_7_CommunitySafety_autoscaled.png""]",6,NA,NA,"NY_4752","NY_4752",5,0,1,1,1,3,8,"NY_4752",5,2,3,3,1,1,"NY_4752",5,0,4,0,0,0,0,"41","male","man","","49337",""
"17","sliderTrial","html-slider-response",70,297836,"0.0-70.0",NA,"656776a7904ae00d6b91d1dd","6568af3b6626284e77b502d5",11,NA,NA,NA,NA,NA,NA,NA,NA,NA,NA,NA,"2683","[""SV_PolicingMSA/NY_2731/IMG_2_2731.jpg"",""SV_PolicingMSA/NY_2731/IMG_9_2731.jpg"",""SV_PolicingMSA/NY_2731/IMG_3_2731.jpg"",""SV_PolicingMSA/NY_2731/IMG_11_2731.jpg"",""SV_PolicingMSA/NY_2731/IMG_5_2731.jpg"",""SV_PolicingMSA/NY_2731/IMG_8_2731.jpg"",""SV_PolicingMSA/NY_2731/IMG_12_2731.jpg"",""SV_PolicingMSA/NY_2731/IMG_10_2731.jpg""]","3",NA,NA,NA,NA,NA,3,NA,4,"[""./rc_img/cop_condGroup_18_SafeStreets_autoscaled.png"",""./rc_img/cop_condGroup_18_CommunitySafety_autoscaled.png""]",5,NA,NA,"NY_2731","NY_2731",3,1,1,1,2,3,5,"NY_2731",3,2,2,2,1,1,"NY_2731",3,0,4,0,0,0,0,"41","male","man","","49337",""
"18","sliderTrial","html-slider-response",71,299204,"0.0-71.0",NA,"656776a7904ae00d6b91d1dd","6568af3b6626284e77b502d5",11,NA,NA,NA,NA,NA,NA,NA,NA,NA,NA,NA,"1367","[""SV_PolicingMSA/NY_2731/IMG_2_2731.jpg"",""SV_PolicingMSA/NY_2731/IMG_9_2731.jpg"",""SV_PolicingMSA/NY_2731/IMG_3_2731.jpg"",""SV_PolicingMSA/NY_2731/IMG_11_2731.jpg"",""SV_PolicingMSA/NY_2731/IMG_5_2731.jpg"",""SV_PolicingMSA/NY_2731/IMG_8_2731.jpg"",""SV_PolicingMSA/NY_2731/IMG_12_2731.jpg"",""SV_PolicingMSA/NY_2731/IMG_10_2731.jpg""]","3",NA,NA,NA,NA,NA,3,NA,4,"[""./rc_img/cop_condGroup_6_SafeStreets_autoscaled.png"",""./rc_img/cop_condGroup_6_CommunitySafety_autoscaled.png""]",5,NA,NA,"NY_2731","NY_2731",3,1,1,1,2,3,5,"NY_2731",3,2,2,2,1,1,"NY_2731",3,0,4,0,0,0,0,"41","male","man","","49337",""
"19","sliderTrial","html-slider-response",72,300908,"0.0-72.0",NA,"656776a7904ae00d6b91d1dd","6568af3b6626284e77b502d5",11,NA,NA,NA,NA,NA,NA,NA,NA,NA,NA,NA,"1703","[""SV_PolicingMSA/NY_2731/IMG_2_2731.jpg"",""SV_PolicingMSA/NY_2731/IMG_9_2731.jpg"",""SV_PolicingMSA/NY_2731/IMG_3_2731.jpg"",""SV_PolicingMSA/NY_2731/IMG_11_2731.jpg"",""SV_PolicingMSA/NY_2731/IMG_5_2731.jpg"",""SV_PolicingMSA/NY_2731/IMG_8_2731.jpg"",""SV_PolicingMSA/NY_2731/IMG_12_2731.jpg"",""SV_PolicingMSA/NY_2731/IMG_10_2731.jpg""]","2",NA,NA,NA,NA,NA,3,NA,4,"[""./rc_img/cop_condGroup_16_SafeStreets_autoscaled.png"",""./rc_img/cop_condGroup_16_CommunitySafety_autoscaled.png""]",6,NA,NA,"NY_2731","NY_2731",3,1,1,1,2,3,5,"NY_2731",3,2,2,2,1,1,"NY_2731",3,0,4,0,0,0,0,"41","male","man","","49337",""
"20","sliderTrial","html-slider-response",73,303340,"0.0-73.0",NA,"656776a7904ae00d6b91d1dd","6568af3b6626284e77b502d5",11,NA,NA,NA,NA,NA,NA,NA,NA,NA,NA,NA,"2431","[""SV_PolicingMSA/NY_2731/IMG_2_2731.jpg"",""SV_PolicingMSA/NY_2731/IMG_9_2731.jpg"",""SV_PolicingMSA/NY_2731/IMG_3_2731.jpg"",""SV_PolicingMSA/NY_2731/IMG_11_2731.jpg"",""SV_PolicingMSA/NY_2731/IMG_5_2731.jpg"",""SV_PolicingMSA/NY_2731/IMG_8_2731.jpg"",""SV_PolicingMSA/NY_2731/IMG_12_2731.jpg"",""SV_PolicingMSA/NY_2731/IMG_10_2731.jpg""]","5",NA,NA,NA,NA,NA,3,NA,4,"[""./rc_img/cop_condGroup_3_CommunitySafety_autoscaled.png"",""./rc_img/cop_condGroup_3_SafeStreets_autoscaled.png""]",5,NA,NA,"NY_2731","NY_2731",3,1,1,1,2,3,5,"NY_2731",3,2,2,2,1,1,"NY_2731",3,0,4,0,0,0,0,"41","male","man","","49337",""
"21","sliderTrial","html-slider-response",74,304692,"0.0-74.0",NA,"656776a7904ae00d6b91d1dd","6568af3b6626284e77b502d5",11,NA,NA,NA,NA,NA,NA,NA,NA,NA,NA,NA,"1351","[""SV_PolicingMSA/NY_2731/IMG_2_2731.jpg"",""SV_PolicingMSA/NY_2731/IMG_9_2731.jpg"",""SV_PolicingMSA/NY_2731/IMG_3_2731.jpg"",""SV_PolicingMSA/NY_2731/IMG_11_2731.jpg"",""SV_PolicingMSA/NY_2731/IMG_5_2731.jpg"",""SV_PolicingMSA/NY_2731/IMG_8_2731.jpg"",""SV_PolicingMSA/NY_2731/IMG_12_2731.jpg"",""SV_PolicingMSA/NY_2731/IMG_10_2731.jpg""]","3",NA,NA,NA,NA,NA,3,NA,4,"[""./rc_img/cop_condGroup_7_SafeStreets_autoscaled.png"",""./rc_img/cop_condGroup_7_CommunitySafety_autoscaled.png""]",5,NA,NA,"NY_2731","NY_2731",3,1,1,1,2,3,5,"NY_2731",3,2,2,2,1,1,"NY_2731",3,0,4,0,0,0,0,"41","male","man","","49337",""
"22","sliderTrial","html-slider-response",88,364595,"0.0-88.0",NA,"656776a7904ae00d6b91d1dd","6568af3b6626284e77b502d5",11,NA,NA,NA,NA,NA,NA,NA,NA,NA,NA,NA,"2810","[""SV_PolicingMSA/NJ_1880/IMG_10_1880.jpg"",""SV_PolicingMSA/NJ_1880/IMG_12_1880.jpg"",""SV_PolicingMSA/NJ_1880/IMG_3_1880.jpg"",""SV_PolicingMSA/NJ_1880/IMG_2_1880.jpg"",""SV_PolicingMSA/NJ_1880/IMG_8_1880.jpg"",""SV_PolicingMSA/NJ_1880/IMG_13_1880.jpg"",""SV_PolicingMSA/NJ_1880/IMG_6_1880.jpg"",""SV_PolicingMSA/NJ_1880/IMG_11_1880.jpg""]","3",NA,NA,NA,NA,NA,2,NA,4,"[""./rc_img/cop_condGroup_19_CommunitySafety_autoscaled.png"",""./rc_img/cop_condGroup_19_SafeStreets_autoscaled.png""]",3,NA,NA,"NJ_1880","NJ_1880",2,1,2,2,2,2,3,"NJ_1880",2,1,1,1,1,1,"NJ_1880",2,0,3,2,0,0,0,"41","male","man","","49337",""
"23","sliderTrial","html-slider-response",89,366483,"0.0-89.0",NA,"656776a7904ae00d6b91d1dd","6568af3b6626284e77b502d5",11,NA,NA,NA,NA,NA,NA,NA,NA,NA,NA,NA,"1887","[""SV_PolicingMSA/NJ_1880/IMG_10_1880.jpg"",""SV_PolicingMSA/NJ_1880/IMG_12_1880.jpg"",""SV_PolicingMSA/NJ_1880/IMG_3_1880.jpg"",""SV_PolicingMSA/NJ_1880/IMG_2_1880.jpg"",""SV_PolicingMSA/NJ_1880/IMG_8_1880.jpg"",""SV_PolicingMSA/NJ_1880/IMG_13_1880.jpg"",""SV_PolicingMSA/NJ_1880/IMG_6_1880.jpg"",""SV_PolicingMSA/NJ_1880/IMG_11_1880.jpg""]","6",NA,NA,NA,NA,NA,2,NA,4,"[""./rc_img/cop_condGroup_20_SafeStreets_autoscaled.png"",""./rc_img/cop_condGroup_20_CommunitySafety_autoscaled.png""]",2,NA,NA,"NJ_1880","NJ_1880",2,1,2,2,2,2,3,"NJ_1880",2,1,1,1,1,1,"NJ_1880",2,0,3,2,0,0,0,"41","male","man","","49337",""
"24","sliderTrial","html-slider-response",90,368019,"0.0-90.0",NA,"656776a7904ae00d6b91d1dd","6568af3b6626284e77b502d5",11,NA,NA,NA,NA,NA,NA,NA,NA,NA,NA,NA,"1535","[""SV_PolicingMSA/NJ_1880/IMG_10_1880.jpg"",""SV_PolicingMSA/NJ_1880/IMG_12_1880.jpg"",""SV_PolicingMSA/NJ_1880/IMG_3_1880.jpg"",""SV_PolicingMSA/NJ_1880/IMG_2_1880.jpg"",""SV_PolicingMSA/NJ_1880/IMG_8_1880.jpg"",""SV_PolicingMSA/NJ_1880/IMG_13_1880.jpg"",""SV_PolicingMSA/NJ_1880/IMG_6_1880.jpg"",""SV_PolicingMSA/NJ_1880/IMG_11_1880.jpg""]","6",NA,NA,NA,NA,NA,2,NA,4,"[""./rc_img/cop_condGroup_2_SafeStreets_autoscaled.png"",""./rc_img/cop_condGroup_2_CommunitySafety_autoscaled.png""]",2,NA,NA,"NJ_1880","NJ_1880",2,1,2,2,2,2,3,"NJ_1880",2,1,1,1,1,1,"NJ_1880",2,0,3,2,0,0,0,"41","male","man","","49337",""
"25","sliderTrial","html-slider-response",91,369779,"0.0-91.0",NA,"656776a7904ae00d6b91d1dd","6568af3b6626284e77b502d5",11,NA,NA,NA,NA,NA,NA,NA,NA,NA,NA,NA,"1759","[""SV_PolicingMSA/NJ_1880/IMG_10_1880.jpg"",""SV_PolicingMSA/NJ_1880/IMG_12_1880.jpg"",""SV_PolicingMSA/NJ_1880/IMG_3_1880.jpg"",""SV_PolicingMSA/NJ_1880/IMG_2_1880.jpg"",""SV_PolicingMSA/NJ_1880/IMG_8_1880.jpg"",""SV_PolicingMSA/NJ_1880/IMG_13_1880.jpg"",""SV_PolicingMSA/NJ_1880/IMG_6_1880.jpg"",""SV_PolicingMSA/NJ_1880/IMG_11_1880.jpg""]","2",NA,NA,NA,NA,NA,2,NA,4,"[""./rc_img/cop_condGroup_12_CommunitySafety_autoscaled.png"",""./rc_img/cop_condGroup_12_SafeStreets_autoscaled.png""]",2,NA,NA,"NJ_1880","NJ_1880",2,1,2,2,2,2,3,"NJ_1880",2,1,1,1,1,1,"NJ_1880",2,0,3,2,0,0,0,"41","male","man","","49337",""
"26","sliderTrial","html-slider-response",92,371371,"0.0-92.0",NA,"656776a7904ae00d6b91d1dd","6568af3b6626284e77b502d5",11,NA,NA,NA,NA,NA,NA,NA,NA,NA,NA,NA,"1591","[""SV_PolicingMSA/NJ_1880/IMG_10_1880.jpg"",""SV_PolicingMSA/NJ_1880/IMG_12_1880.jpg"",""SV_PolicingMSA/NJ_1880/IMG_3_1880.jpg"",""SV_PolicingMSA/NJ_1880/IMG_2_1880.jpg"",""SV_PolicingMSA/NJ_1880/IMG_8_1880.jpg"",""SV_PolicingMSA/NJ_1880/IMG_13_1880.jpg"",""SV_PolicingMSA/NJ_1880/IMG_6_1880.jpg"",""SV_PolicingMSA/NJ_1880/IMG_11_1880.jpg""]","6",NA,NA,NA,NA,NA,2,NA,4,"[""./rc_img/cop_condGroup_15_SafeStreets_autoscaled.png"",""./rc_img/cop_condGroup_15_CommunitySafety_autoscaled.png""]",2,NA,NA,"NJ_1880","NJ_1880",2,1,2,2,2,2,3,"NJ_1880",2,1,1,1,1,1,"NJ_1880",2,0,3,2,0,0,0,"41","male","man","","49337",""
"27","sliderTrial","html-slider-response",105,415538,"0.0-105.0",NA,"656776a7904ae00d6b91d1dd","6568af3b6626284e77b502d5",11,NA,NA,NA,NA,NA,NA,NA,NA,NA,NA,NA,"2786","[""SV_PolicingMSA/NY_5249/IMG_1_5249.jpg"",""SV_PolicingMSA/NY_5249/IMG_7_5249.jpg"",""SV_PolicingMSA/NY_5249/IMG_8_5249.jpg"",""SV_PolicingMSA/NY_5249/IMG_11_5249.jpg"",""SV_PolicingMSA/NY_5249/IMG_10_5249.jpg"",""SV_PolicingMSA/NY_5249/IMG_0_5249.jpg"",""SV_PolicingMSA/NY_5249/IMG_4_5249.jpg"",""SV_PolicingMSA/NY_5249/IMG_9_5249.jpg""]","2",NA,NA,NA,NA,NA,1,NA,4,"[""./rc_img/cop_condGroup_11_CommunitySafety_autoscaled.png"",""./rc_img/cop_condGroup_11_SafeStreets_autoscaled.png""]",2,NA,NA,"NY_5249","NY_5249",1,2,2,2,2,1,2,"NY_5249",1,1,1,2,2,2,"NY_5249",1,0,4,3,0,0,0,"41","male","man","","49337",""
"28","sliderTrial","html-slider-response",106,417202,"0.0-106.0",NA,"656776a7904ae00d6b91d1dd","6568af3b6626284e77b502d5",11,NA,NA,NA,NA,NA,NA,NA,NA,NA,NA,NA,"1663","[""SV_PolicingMSA/NY_5249/IMG_1_5249.jpg"",""SV_PolicingMSA/NY_5249/IMG_7_5249.jpg"",""SV_PolicingMSA/NY_5249/IMG_8_5249.jpg"",""SV_PolicingMSA/NY_5249/IMG_11_5249.jpg"",""SV_PolicingMSA/NY_5249/IMG_10_5249.jpg"",""SV_PolicingMSA/NY_5249/IMG_0_5249.jpg"",""SV_PolicingMSA/NY_5249/IMG_4_5249.jpg"",""SV_PolicingMSA/NY_5249/IMG_9_5249.jpg""]","2",NA,NA,NA,NA,NA,1,NA,4,"[""./rc_img/cop_condGroup_14_CommunitySafety_autoscaled.png"",""./rc_img/cop_condGroup_14_SafeStreets_autoscaled.png""]",2,NA,NA,"NY_5249","NY_5249",1,2,2,2,2,1,2,"NY_5249",1,1,1,2,2,2,"NY_5249",1,0,4,3,0,0,0,"41","male","man","","49337",""
"29","sliderTrial","html-slider-response",107,418882,"0.0-107.0",NA,"656776a7904ae00d6b91d1dd","6568af3b6626284e77b502d5",11,NA,NA,NA,NA,NA,NA,NA,NA,NA,NA,NA,"1679","[""SV_PolicingMSA/NY_5249/IMG_1_5249.jpg"",""SV_PolicingMSA/NY_5249/IMG_7_5249.jpg"",""SV_PolicingMSA/NY_5249/IMG_8_5249.jpg"",""SV_PolicingMSA/NY_5249/IMG_11_5249.jpg"",""SV_PolicingMSA/NY_5249/IMG_10_5249.jpg"",""SV_PolicingMSA/NY_5249/IMG_0_5249.jpg"",""SV_PolicingMSA/NY_5249/IMG_4_5249.jpg"",""SV_PolicingMSA/NY_5249/IMG_9_5249.jpg""]","6",NA,NA,NA,NA,NA,1,NA,4,"[""./rc_img/cop_condGroup_1_SafeStreets_autoscaled.png"",""./rc_img/cop_condGroup_1_CommunitySafety_autoscaled.png""]",2,NA,NA,"NY_5249","NY_5249",1,2,2,2,2,1,2,"NY_5249",1,1,1,2,2,2,"NY_5249",1,0,4,3,0,0,0,"41","male","man","","49337",""
"30","sliderTrial_attention","html-slider-response",108,428893,"0.0-108.0",NA,"656776a7904ae00d6b91d1dd","6568af3b6626284e77b502d5",11,NA,NA,NA,NA,NA,NA,NA,NA,NA,NA,NA,"null","[""SV_PolicingMSA/NY_5249/IMG_1_5249.jpg"",""SV_PolicingMSA/NY_5249/IMG_7_5249.jpg"",""SV_PolicingMSA/NY_5249/IMG_8_5249.jpg"",""SV_PolicingMSA/NY_5249/IMG_11_5249.jpg"",""SV_PolicingMSA/NY_5249/IMG_10_5249.jpg"",""SV_PolicingMSA/NY_5249/IMG_0_5249.jpg"",""SV_PolicingMSA/NY_5249/IMG_4_5249.jpg"",""SV_PolicingMSA/NY_5249/IMG_9_5249.jpg""]","null",NA,NA,NA,NA,NA,1,NA,4,"[""./assets/img/attnchk.png"",""./assets/img/attnchk.png""]",NA,TRUE,NA,"NY_5249","NY_5249",1,2,2,2,2,1,2,"NY_5249",1,1,1,2,2,2,"NY_5249",1,0,4,3,0,0,0,"41","male","man","","49337",""
"31","sliderTrial","html-slider-response",109,431858,"0.0-109.0",NA,"656776a7904ae00d6b91d1dd","6568af3b6626284e77b502d5",11,NA,NA,NA,NA,NA,NA,NA,NA,NA,NA,NA,"2964","[""SV_PolicingMSA/NY_5249/IMG_1_5249.jpg"",""SV_PolicingMSA/NY_5249/IMG_7_5249.jpg"",""SV_PolicingMSA/NY_5249/IMG_8_5249.jpg"",""SV_PolicingMSA/NY_5249/IMG_11_5249.jpg"",""SV_PolicingMSA/NY_5249/IMG_10_5249.jpg"",""SV_PolicingMSA/NY_5249/IMG_0_5249.jpg"",""SV_PolicingMSA/NY_5249/IMG_4_5249.jpg"",""SV_PolicingMSA/NY_5249/IMG_9_5249.jpg""]","5",NA,NA,NA,NA,NA,1,NA,4,"[""./rc_img/cop_condGroup_13_SafeStreets_autoscaled.png"",""./rc_img/cop_condGroup_13_CommunitySafety_autoscaled.png""]",3,NA,NA,"NY_5249","NY_5249",1,2,2,2,2,1,2,"NY_5249",1,1,1,2,2,2,"NY_5249",1,0,4,3,0,0,0,"41","male","man","","49337",""
"32","sliderTrial","html-slider-response",110,433490,"0.0-110.0",NA,"656776a7904ae00d6b91d1dd","6568af3b6626284e77b502d5",11,NA,NA,NA,NA,NA,NA,NA,NA,NA,NA,NA,"1631","[""SV_PolicingMSA/NY_5249/IMG_1_5249.jpg"",""SV_PolicingMSA/NY_5249/IMG_7_5249.jpg"",""SV_PolicingMSA/NY_5249/IMG_8_5249.jpg"",""SV_PolicingMSA/NY_5249/IMG_11_5249.jpg"",""SV_PolicingMSA/NY_5249/IMG_10_5249.jpg"",""SV_PolicingMSA/NY_5249/IMG_0_5249.jpg"",""SV_PolicingMSA/NY_5249/IMG_4_5249.jpg"",""SV_PolicingMSA/NY_5249/IMG_9_5249.jpg""]","5",NA,NA,NA,NA,NA,1,NA,4,"[""./rc_img/cop_condGroup_8_SafeStreets_autoscaled.png"",""./rc_img/cop_condGroup_8_CommunitySafety_autoscaled.png""]",3,NA,NA,"NY_5249","NY_5249",1,2,2,2,2,1,2,"NY_5249",1,1,1,2,2,2,"NY_5249",1,0,4,3,0,0,0,"41","male","man","","49337",""
"33","sliderTrial","html-slider-response",123,468273,"0.0-123.0",NA,"656776a7904ae00d6b91d1dd","6568af3b6626284e77b502d5",11,NA,NA,NA,NA,NA,NA,NA,NA,NA,NA,NA,"2363","[""SV_PolicingMSA/NY_2726/IMG_11_2726.jpg"",""SV_PolicingMSA/NY_2726/IMG_14_2726.jpg"",""SV_PolicingMSA/NY_2726/IMG_3_2726.jpg"",""SV_PolicingMSA/NY_2726/IMG_1_2726.jpg"",""SV_PolicingMSA/NY_2726/IMG_10_2726.jpg"",""SV_PolicingMSA/NY_2726/IMG_12_2726.jpg"",""SV_PolicingMSA/NY_2726/IMG_7_2726.jpg"",""SV_PolicingMSA/NY_2726/IMG_2_2726.jpg""]","5",NA,NA,NA,NA,NA,2,NA,4,"[""./rc_img/cop_condGroup_17_CommunitySafety_autoscaled.png"",""./rc_img/cop_condGroup_17_SafeStreets_autoscaled.png""]",5,NA,NA,"NY_2726","NY_2726",2,1,1,1,2,2,4,"NY_2726",2,2,2,2,1,1,"NY_2726",2,0,4,0,0,0,0,"41","male","man","","49337",""
"34","sliderTrial","html-slider-response",124,472633,"0.0-124.0",NA,"656776a7904ae00d6b91d1dd","6568af3b6626284e77b502d5",11,NA,NA,NA,NA,NA,NA,NA,NA,NA,NA,NA,"4359","[""SV_PolicingMSA/NY_2726/IMG_11_2726.jpg"",""SV_PolicingMSA/NY_2726/IMG_14_2726.jpg"",""SV_PolicingMSA/NY_2726/IMG_3_2726.jpg"",""SV_PolicingMSA/NY_2726/IMG_1_2726.jpg"",""SV_PolicingMSA/NY_2726/IMG_10_2726.jpg"",""SV_PolicingMSA/NY_2726/IMG_12_2726.jpg"",""SV_PolicingMSA/NY_2726/IMG_7_2726.jpg"",""SV_PolicingMSA/NY_2726/IMG_2_2726.jpg""]","6",NA,NA,NA,NA,NA,2,NA,4,"[""./rc_img/cop_condGroup_5_SafeStreets_autoscaled.png"",""./rc_img/cop_condGroup_5_CommunitySafety_autoscaled.png""]",2,NA,NA,"NY_2726","NY_2726",2,1,1,1,2,2,4,"NY_2726",2,2,2,2,1,1,"NY_2726",2,0,4,0,0,0,0,"41","male","man","","49337",""
"35","sliderTrial","html-slider-response",125,474377,"0.0-125.0",NA,"656776a7904ae00d6b91d1dd","6568af3b6626284e77b502d5",11,NA,NA,NA,NA,NA,NA,NA,NA,NA,NA,NA,"1743","[""SV_PolicingMSA/NY_2726/IMG_11_2726.jpg"",""SV_PolicingMSA/NY_2726/IMG_14_2726.jpg"",""SV_PolicingMSA/NY_2726/IMG_3_2726.jpg"",""SV_PolicingMSA/NY_2726/IMG_1_2726.jpg"",""SV_PolicingMSA/NY_2726/IMG_10_2726.jpg"",""SV_PolicingMSA/NY_2726/IMG_12_2726.jpg"",""SV_PolicingMSA/NY_2726/IMG_7_2726.jpg"",""SV_PolicingMSA/NY_2726/IMG_2_2726.jpg""]","2",NA,NA,NA,NA,NA,2,NA,4,"[""./rc_img/cop_condGroup_4_CommunitySafety_autoscaled.png"",""./rc_img/cop_condGroup_4_SafeStreets_autoscaled.png""]",2,NA,NA,"NY_2726","NY_2726",2,1,1,1,2,2,4,"NY_2726",2,2,2,2,1,1,"NY_2726",2,0,4,0,0,0,0,"41","male","man","","49337",""
"36","sliderTrial","html-slider-response",126,476609,"0.0-126.0",NA,"656776a7904ae00d6b91d1dd","6568af3b6626284e77b502d5",11,NA,NA,NA,NA,NA,NA,NA,NA,NA,NA,NA,"2231","[""SV_PolicingMSA/NY_2726/IMG_11_2726.jpg"",""SV_PolicingMSA/NY_2726/IMG_14_2726.jpg"",""SV_PolicingMSA/NY_2726/IMG_3_2726.jpg"",""SV_PolicingMSA/NY_2726/IMG_1_2726.jpg"",""SV_PolicingMSA/NY_2726/IMG_10_2726.jpg"",""SV_PolicingMSA/NY_2726/IMG_12_2726.jpg"",""SV_PolicingMSA/NY_2726/IMG_7_2726.jpg"",""SV_PolicingMSA/NY_2726/IMG_2_2726.jpg""]","2",NA,NA,NA,NA,NA,2,NA,4,"[""./rc_img/cop_condGroup_10_SafeStreets_autoscaled.png"",""./rc_img/cop_condGroup_10_CommunitySafety_autoscaled.png""]",6,NA,NA,"NY_2726","NY_2726",2,1,1,1,2,2,4,"NY_2726",2,2,2,2,1,1,"NY_2726",2,0,4,0,0,0,0,"41","male","man","","49337",""
"37","sliderTrial","html-slider-response",127,478001,"0.0-127.0",NA,"656776a7904ae00d6b91d1dd","6568af3b6626284e77b502d5",11,NA,NA,NA,NA,NA,NA,NA,NA,NA,NA,NA,"1391","[""SV_PolicingMSA/NY_2726/IMG_11_2726.jpg"",""SV_PolicingMSA/NY_2726/IMG_14_2726.jpg"",""SV_PolicingMSA/NY_2726/IMG_3_2726.jpg"",""SV_PolicingMSA/NY_2726/IMG_1_2726.jpg"",""SV_PolicingMSA/NY_2726/IMG_10_2726.jpg"",""SV_PolicingMSA/NY_2726/IMG_12_2726.jpg"",""SV_PolicingMSA/NY_2726/IMG_7_2726.jpg"",""SV_PolicingMSA/NY_2726/IMG_2_2726.jpg""]","2",NA,NA,NA,NA,NA,2,NA,4,"[""./rc_img/cop_condGroup_9_SafeStreets_autoscaled.png"",""./rc_img/cop_condGroup_9_CommunitySafety_autoscaled.png""]",6,NA,NA,"NY_2726","NY_2726",2,1,1,1,2,2,4,"NY_2726",2,2,2,2,1,1,"NY_2726",2,0,4,0,0,0,0,"41","male","man","","49337",""
"38","sliderTrial","html-slider-response",140,528287,"0.0-140.0",NA,"656776a7904ae00d6b91d1dd","6568af3b6626284e77b502d5",11,NA,NA,NA,NA,NA,NA,NA,NA,NA,NA,NA,"2018","[""SV_PolicingMSA/NJ_1052/IMG_10_1052.jpg"",""SV_PolicingMSA/NJ_1052/IMG_13_1052.jpg"",""SV_PolicingMSA/NJ_1052/IMG_5_1052.jpg"",""SV_PolicingMSA/NJ_1052/IMG_11_1052.jpg"",""SV_PolicingMSA/NJ_1052/IMG_12_1052.jpg"",""SV_PolicingMSA/NJ_1052/IMG_4_1052.jpg"",""SV_PolicingMSA/NJ_1052/IMG_3_1052.jpg"",""SV_PolicingMSA/NJ_1052/IMG_0_1052.jpg""]","1",NA,NA,NA,NA,NA,3,NA,4,"[""./rc_img/cop_condGroup_11_CommunitySafety_autoscaled.png"",""./rc_img/cop_condGroup_11_SafeStreets_autoscaled.png""]",1,NA,NA,"NJ_1052","NJ_1052",3,3,2,3,3,1,6,"NJ_1052",3,1,1,1,3,2,"NJ_1052",3,3,1,3,3,4,3,"41","male","man","","49337",""
"39","sliderTrial","html-slider-response",141,530192,"0.0-141.0",NA,"656776a7904ae00d6b91d1dd","6568af3b6626284e77b502d5",11,NA,NA,NA,NA,NA,NA,NA,NA,NA,NA,NA,"1903","[""SV_PolicingMSA/NJ_1052/IMG_10_1052.jpg"",""SV_PolicingMSA/NJ_1052/IMG_13_1052.jpg"",""SV_PolicingMSA/NJ_1052/IMG_5_1052.jpg"",""SV_PolicingMSA/NJ_1052/IMG_11_1052.jpg"",""SV_PolicingMSA/NJ_1052/IMG_12_1052.jpg"",""SV_PolicingMSA/NJ_1052/IMG_4_1052.jpg"",""SV_PolicingMSA/NJ_1052/IMG_3_1052.jpg"",""SV_PolicingMSA/NJ_1052/IMG_0_1052.jpg""]","1",NA,NA,NA,NA,NA,3,NA,4,"[""./rc_img/cop_condGroup_14_CommunitySafety_autoscaled.png"",""./rc_img/cop_condGroup_14_SafeStreets_autoscaled.png""]",1,NA,NA,"NJ_1052","NJ_1052",3,3,2,3,3,1,6,"NJ_1052",3,1,1,1,3,2,"NJ_1052",3,3,1,3,3,4,3,"41","male","man","","49337",""
"40","sliderTrial","html-slider-response",142,531927,"0.0-142.0",NA,"656776a7904ae00d6b91d1dd","6568af3b6626284e77b502d5",11,NA,NA,NA,NA,NA,NA,NA,NA,NA,NA,NA,"1735","[""SV_PolicingMSA/NJ_1052/IMG_10_1052.jpg"",""SV_PolicingMSA/NJ_1052/IMG_13_1052.jpg"",""SV_PolicingMSA/NJ_1052/IMG_5_1052.jpg"",""SV_PolicingMSA/NJ_1052/IMG_11_1052.jpg"",""SV_PolicingMSA/NJ_1052/IMG_12_1052.jpg"",""SV_PolicingMSA/NJ_1052/IMG_4_1052.jpg"",""SV_PolicingMSA/NJ_1052/IMG_3_1052.jpg"",""SV_PolicingMSA/NJ_1052/IMG_0_1052.jpg""]","7",NA,NA,NA,NA,NA,3,NA,4,"[""./rc_img/cop_condGroup_1_SafeStreets_autoscaled.png"",""./rc_img/cop_condGroup_1_CommunitySafety_autoscaled.png""]",1,NA,NA,"NJ_1052","NJ_1052",3,3,2,3,3,1,6,"NJ_1052",3,1,1,1,3,2,"NJ_1052",3,3,1,3,3,4,3,"41","male","man","","49337",""
"41","sliderTrial","html-slider-response",143,534072,"0.0-143.0",NA,"656776a7904ae00d6b91d1dd","6568af3b6626284e77b502d5",11,NA,NA,NA,NA,NA,NA,NA,NA,NA,NA,NA,"2143","[""SV_PolicingMSA/NJ_1052/IMG_10_1052.jpg"",""SV_PolicingMSA/NJ_1052/IMG_13_1052.jpg"",""SV_PolicingMSA/NJ_1052/IMG_5_1052.jpg"",""SV_PolicingMSA/NJ_1052/IMG_11_1052.jpg"",""SV_PolicingMSA/NJ_1052/IMG_12_1052.jpg"",""SV_PolicingMSA/NJ_1052/IMG_4_1052.jpg"",""SV_PolicingMSA/NJ_1052/IMG_3_1052.jpg"",""SV_PolicingMSA/NJ_1052/IMG_0_1052.jpg""]","7",NA,NA,NA,NA,NA,3,NA,4,"[""./rc_img/cop_condGroup_13_SafeStreets_autoscaled.png"",""./rc_img/cop_condGroup_13_CommunitySafety_autoscaled.png""]",1,NA,NA,"NJ_1052","NJ_1052",3,3,2,3,3,1,6,"NJ_1052",3,1,1,1,3,2,"NJ_1052",3,3,1,3,3,4,3,"41","male","man","","49337",""
"42","sliderTrial","html-slider-response",144,535872,"0.0-144.0",NA,"656776a7904ae00d6b91d1dd","6568af3b6626284e77b502d5",11,NA,NA,NA,NA,NA,NA,NA,NA,NA,NA,NA,"1799","[""SV_PolicingMSA/NJ_1052/IMG_10_1052.jpg"",""SV_PolicingMSA/NJ_1052/IMG_13_1052.jpg"",""SV_PolicingMSA/NJ_1052/IMG_5_1052.jpg"",""SV_PolicingMSA/NJ_1052/IMG_11_1052.jpg"",""SV_PolicingMSA/NJ_1052/IMG_12_1052.jpg"",""SV_PolicingMSA/NJ_1052/IMG_4_1052.jpg"",""SV_PolicingMSA/NJ_1052/IMG_3_1052.jpg"",""SV_PolicingMSA/NJ_1052/IMG_0_1052.jpg""]","7",NA,NA,NA,NA,NA,3,NA,4,"[""./rc_img/cop_condGroup_8_SafeStreets_autoscaled.png"",""./rc_img/cop_condGroup_8_CommunitySafety_autoscaled.png""]",1,NA,NA,"NJ_1052","NJ_1052",3,3,2,3,3,1,6,"NJ_1052",3,1,1,1,3,2,"NJ_1052",3,3,1,3,3,4,3,"41","male","man","","49337",""
