"","task","trial_type","trial_index","time_elapsed","internal_node_id","subject_id","study_id","session_id","section","width","height","webaudio","browser","browser_version","mobile","os","fullscreen","vsync_rate","webcam","microphone","rt","stimulus","response","success","timeout","failed_images","failed_audio","failed_video","block.x.x","accuracy","slider_start","choices","standardized_response","correct","num_attention_checks_correct","stim_tract","stim_tractT","block.x","P0_Q1.wealthy","P0_Q1.safe","P0_Q1.walkable","P0_Q1.traditional","P0_Q1.diverse","block_fixed","stim_tractT.x","block.y","P0_Q1.violence","P0_Q1.crime","P0_Q1.drug","P0_Q1.schools","P0_Q1.opportunities","stim_tractT.y","block.y.y","P0_Q1.movein","P0_Q1.moveout","P0_Q1.shopping","P0_Q1.walk","P0_Q1.park","P0_Q1.school","age","sex","gender","gender-self-describe","zipcode","surveyComments"
"1","sliderTrial","html-slider-response",18,87880,"0.0-18.0",NA,"656776a7904ae00d6b91d1dd","6568ad1ef4db36474a5c1bf9",4,NA,NA,NA,NA,NA,NA,NA,NA,NA,NA,NA,"11679","[""SV_PolicingMSA/CO_572/IMG_3_572.jpg"",""SV_PolicingMSA/CO_572/IMG_8_572.jpg"",""SV_PolicingMSA/CO_572/IMG_14_572.jpg"",""SV_PolicingMSA/CO_572/IMG_4_572.jpg"",""SV_PolicingMSA/CO_572/IMG_11_572.jpg"",""SV_PolicingMSA/CO_572/IMG_5_572.jpg"",""SV_PolicingMSA/CO_572/IMG_1_572.jpg"",""SV_PolicingMSA/CO_572/IMG_2_572.jpg""]","4",NA,NA,NA,NA,NA,5,NA,4,"[""./rc_img/cop_condGroup_19_SafeStreets_autoscaled.png"",""./rc_img/cop_condGroup_19_CommunitySafety_autoscaled.png""]",4,NA,NA,"CO_572/","CO_572",5,1,4,4,4,3,8,"CO_572",5,0,0,0,3,3,"CO_572",5,4,0,4,4,4,4,"49","female","woman","","48134",""
"2","sliderTrial","html-slider-response",19,94334,"0.0-19.0",NA,"656776a7904ae00d6b91d1dd","6568ad1ef4db36474a5c1bf9",4,NA,NA,NA,NA,NA,NA,NA,NA,NA,NA,NA,"6452","[""SV_PolicingMSA/CO_572/IMG_3_572.jpg"",""SV_PolicingMSA/CO_572/IMG_8_572.jpg"",""SV_PolicingMSA/CO_572/IMG_14_572.jpg"",""SV_PolicingMSA/CO_572/IMG_4_572.jpg"",""SV_PolicingMSA/CO_572/IMG_11_572.jpg"",""SV_PolicingMSA/CO_572/IMG_5_572.jpg"",""SV_PolicingMSA/CO_572/IMG_1_572.jpg"",""SV_PolicingMSA/CO_572/IMG_2_572.jpg""]","4",NA,NA,NA,NA,NA,5,NA,4,"[""./rc_img/cop_condGroup_9_SafeStreets_autoscaled.png"",""./rc_img/cop_condGroup_9_CommunitySafety_autoscaled.png""]",4,NA,NA,"CO_572/","CO_572",5,1,4,4,4,3,8,"CO_572",5,0,0,0,3,3,"CO_572",5,4,0,4,4,4,4,"49","female","woman","","48134",""
"3","sliderTrial","html-slider-response",20,97630,"0.0-20.0",NA,"656776a7904ae00d6b91d1dd","6568ad1ef4db36474a5c1bf9",4,NA,NA,NA,NA,NA,NA,NA,NA,NA,NA,NA,"3295","[""SV_PolicingMSA/CO_572/IMG_3_572.jpg"",""SV_PolicingMSA/CO_572/IMG_8_572.jpg"",""SV_PolicingMSA/CO_572/IMG_14_572.jpg"",""SV_PolicingMSA/CO_572/IMG_4_572.jpg"",""SV_PolicingMSA/CO_572/IMG_11_572.jpg"",""SV_PolicingMSA/CO_572/IMG_5_572.jpg"",""SV_PolicingMSA/CO_572/IMG_1_572.jpg"",""SV_PolicingMSA/CO_572/IMG_2_572.jpg""]","4",NA,NA,NA,NA,NA,5,NA,4,"[""./rc_img/cop_condGroup_8_SafeStreets_autoscaled.png"",""./rc_img/cop_condGroup_8_CommunitySafety_autoscaled.png""]",4,NA,NA,"CO_572/","CO_572",5,1,4,4,4,3,8,"CO_572",5,0,0,0,3,3,"CO_572",5,4,0,4,4,4,4,"49","female","woman","","48134",""
"4","sliderTrial","html-slider-response",21,100944,"0.0-21.0",NA,"656776a7904ae00d6b91d1dd","6568ad1ef4db36474a5c1bf9",4,NA,NA,NA,NA,NA,NA,NA,NA,NA,NA,NA,"3312","[""SV_PolicingMSA/CO_572/IMG_3_572.jpg"",""SV_PolicingMSA/CO_572/IMG_8_572.jpg"",""SV_PolicingMSA/CO_572/IMG_14_572.jpg"",""SV_PolicingMSA/CO_572/IMG_4_572.jpg"",""SV_PolicingMSA/CO_572/IMG_11_572.jpg"",""SV_PolicingMSA/CO_572/IMG_5_572.jpg"",""SV_PolicingMSA/CO_572/IMG_1_572.jpg"",""SV_PolicingMSA/CO_572/IMG_2_572.jpg""]","4",NA,NA,NA,NA,NA,5,NA,4,"[""./rc_img/cop_condGroup_14_CommunitySafety_autoscaled.png"",""./rc_img/cop_condGroup_14_SafeStreets_autoscaled.png""]",4,NA,NA,"CO_572/","CO_572",5,1,4,4,4,3,8,"CO_572",5,0,0,0,3,3,"CO_572",5,4,0,4,4,4,4,"49","female","woman","","48134",""
"5","sliderTrial","html-slider-response",22,105996,"0.0-22.0",NA,"656776a7904ae00d6b91d1dd","6568ad1ef4db36474a5c1bf9",4,NA,NA,NA,NA,NA,NA,NA,NA,NA,NA,NA,"5050","[""SV_PolicingMSA/CO_572/IMG_3_572.jpg"",""SV_PolicingMSA/CO_572/IMG_8_572.jpg"",""SV_PolicingMSA/CO_572/IMG_14_572.jpg"",""SV_PolicingMSA/CO_572/IMG_4_572.jpg"",""SV_PolicingMSA/CO_572/IMG_11_572.jpg"",""SV_PolicingMSA/CO_572/IMG_5_572.jpg"",""SV_PolicingMSA/CO_572/IMG_1_572.jpg"",""SV_PolicingMSA/CO_572/IMG_2_572.jpg""]","4",NA,NA,NA,NA,NA,5,NA,4,"[""./rc_img/cop_condGroup_7_SafeStreets_autoscaled.png"",""./rc_img/cop_condGroup_7_CommunitySafety_autoscaled.png""]",4,NA,NA,"CO_572/","CO_572",5,1,4,4,4,3,8,"CO_572",5,0,0,0,3,3,"CO_572",5,4,0,4,4,4,4,"49","female","woman","","48134",""
"6","sliderTrial","html-slider-response",35,158074,"0.0-35.0",NA,"656776a7904ae00d6b91d1dd","6568ad1ef4db36474a5c1bf9",4,NA,NA,NA,NA,NA,NA,NA,NA,NA,NA,NA,"3042","[""SV_PolicingMSA/CO_1325/IMG_13_1325.jpg"",""SV_PolicingMSA/CO_1325/IMG_5_1325.jpg"",""SV_PolicingMSA/CO_1325/IMG_3_1325.jpg"",""SV_PolicingMSA/CO_1325/IMG_9_1325.jpg"",""SV_PolicingMSA/CO_1325/IMG_14_1325.jpg"",""SV_PolicingMSA/CO_1325/IMG_11_1325.jpg"",""SV_PolicingMSA/CO_1325/IMG_1_1325.jpg"",""SV_PolicingMSA/CO_1325/IMG_8_1325.jpg""]","4",NA,NA,NA,NA,NA,3,NA,4,"[""./rc_img/cop_condGroup_17_CommunitySafety_autoscaled.png"",""./rc_img/cop_condGroup_17_SafeStreets_autoscaled.png""]",4,NA,NA,"CO_1325","CO_1325",3,2,4,1,4,3,5,"CO_1325",3,0,0,0,4,4,"CO_1325",3,3,0,4,4,4,4,"49","female","woman","","48134",""
"7","sliderTrial","html-slider-response",36,160874,"0.0-36.0",NA,"656776a7904ae00d6b91d1dd","6568ad1ef4db36474a5c1bf9",4,NA,NA,NA,NA,NA,NA,NA,NA,NA,NA,NA,"2798","[""SV_PolicingMSA/CO_1325/IMG_13_1325.jpg"",""SV_PolicingMSA/CO_1325/IMG_5_1325.jpg"",""SV_PolicingMSA/CO_1325/IMG_3_1325.jpg"",""SV_PolicingMSA/CO_1325/IMG_9_1325.jpg"",""SV_PolicingMSA/CO_1325/IMG_14_1325.jpg"",""SV_PolicingMSA/CO_1325/IMG_11_1325.jpg"",""SV_PolicingMSA/CO_1325/IMG_1_1325.jpg"",""SV_PolicingMSA/CO_1325/IMG_8_1325.jpg""]","4",NA,NA,NA,NA,NA,3,NA,4,"[""./rc_img/cop_condGroup_18_CommunitySafety_autoscaled.png"",""./rc_img/cop_condGroup_18_SafeStreets_autoscaled.png""]",4,NA,NA,"CO_1325","CO_1325",3,2,4,1,4,3,5,"CO_1325",3,0,0,0,4,4,"CO_1325",3,3,0,4,4,4,4,"49","female","woman","","48134",""
"8","sliderTrial","html-slider-response",37,163821,"0.0-37.0",NA,"656776a7904ae00d6b91d1dd","6568ad1ef4db36474a5c1bf9",4,NA,NA,NA,NA,NA,NA,NA,NA,NA,NA,NA,"2944","[""SV_PolicingMSA/CO_1325/IMG_13_1325.jpg"",""SV_PolicingMSA/CO_1325/IMG_5_1325.jpg"",""SV_PolicingMSA/CO_1325/IMG_3_1325.jpg"",""SV_PolicingMSA/CO_1325/IMG_9_1325.jpg"",""SV_PolicingMSA/CO_1325/IMG_14_1325.jpg"",""SV_PolicingMSA/CO_1325/IMG_11_1325.jpg"",""SV_PolicingMSA/CO_1325/IMG_1_1325.jpg"",""SV_PolicingMSA/CO_1325/IMG_8_1325.jpg""]","4",NA,NA,NA,NA,NA,3,NA,4,"[""./rc_img/cop_condGroup_10_CommunitySafety_autoscaled.png"",""./rc_img/cop_condGroup_10_SafeStreets_autoscaled.png""]",4,NA,NA,"CO_1325","CO_1325",3,2,4,1,4,3,5,"CO_1325",3,0,0,0,4,4,"CO_1325",3,3,0,4,4,4,4,"49","female","woman","","48134",""
"9","sliderTrial","html-slider-response",38,167025,"0.0-38.0",NA,"656776a7904ae00d6b91d1dd","6568ad1ef4db36474a5c1bf9",4,NA,NA,NA,NA,NA,NA,NA,NA,NA,NA,NA,"3203","[""SV_PolicingMSA/CO_1325/IMG_13_1325.jpg"",""SV_PolicingMSA/CO_1325/IMG_5_1325.jpg"",""SV_PolicingMSA/CO_1325/IMG_3_1325.jpg"",""SV_PolicingMSA/CO_1325/IMG_9_1325.jpg"",""SV_PolicingMSA/CO_1325/IMG_14_1325.jpg"",""SV_PolicingMSA/CO_1325/IMG_11_1325.jpg"",""SV_PolicingMSA/CO_1325/IMG_1_1325.jpg"",""SV_PolicingMSA/CO_1325/IMG_8_1325.jpg""]","4",NA,NA,NA,NA,NA,3,NA,4,"[""./rc_img/cop_condGroup_2_CommunitySafety_autoscaled.png"",""./rc_img/cop_condGroup_2_SafeStreets_autoscaled.png""]",4,NA,NA,"CO_1325","CO_1325",3,2,4,1,4,3,5,"CO_1325",3,0,0,0,4,4,"CO_1325",3,3,0,4,4,4,4,"49","female","woman","","48134",""
"10","sliderTrial","html-slider-response",39,171455,"0.0-39.0",NA,"656776a7904ae00d6b91d1dd","6568ad1ef4db36474a5c1bf9",4,NA,NA,NA,NA,NA,NA,NA,NA,NA,NA,NA,"4426","[""SV_PolicingMSA/CO_1325/IMG_13_1325.jpg"",""SV_PolicingMSA/CO_1325/IMG_5_1325.jpg"",""SV_PolicingMSA/CO_1325/IMG_3_1325.jpg"",""SV_PolicingMSA/CO_1325/IMG_9_1325.jpg"",""SV_PolicingMSA/CO_1325/IMG_14_1325.jpg"",""SV_PolicingMSA/CO_1325/IMG_11_1325.jpg"",""SV_PolicingMSA/CO_1325/IMG_1_1325.jpg"",""SV_PolicingMSA/CO_1325/IMG_8_1325.jpg""]","4",NA,NA,NA,NA,NA,3,NA,4,"[""./rc_img/cop_condGroup_1_SafeStreets_autoscaled.png"",""./rc_img/cop_condGroup_1_CommunitySafety_autoscaled.png""]",4,NA,NA,"CO_1325","CO_1325",3,2,4,1,4,3,5,"CO_1325",3,0,0,0,4,4,"CO_1325",3,3,0,4,4,4,4,"49","female","woman","","48134",""
"11","sliderTrial","html-slider-response",52,229151,"0.0-52.0",NA,"656776a7904ae00d6b91d1dd","6568ad1ef4db36474a5c1bf9",4,NA,NA,NA,NA,NA,NA,NA,NA,NA,NA,NA,"2588","[""SV_PolicingMSA/CO_252/IMG_14_252.jpg"",""SV_PolicingMSA/CO_252/IMG_3_252.jpg"",""SV_PolicingMSA/CO_252/IMG_11_252.jpg"",""SV_PolicingMSA/CO_252/IMG_6_252.jpg"",""SV_PolicingMSA/CO_252/IMG_0_252.jpg"",""SV_PolicingMSA/CO_252/IMG_8_252.jpg"",""SV_PolicingMSA/CO_252/IMG_7_252.jpg"",""SV_PolicingMSA/CO_252/IMG_12_252.jpg""]","4",NA,NA,NA,NA,NA,0,NA,4,"[""./rc_img/cop_condGroup_6_SafeStreets_autoscaled.png"",""./rc_img/cop_condGroup_6_CommunitySafety_autoscaled.png""]",4,NA,NA,"CO_252/","CO_252",0,0,2,3,4,4,1,"CO_252",0,2,2,2,1,1,"CO_252",0,1,4,1,0,2,1,"49","female","woman","","48134",""
"12","sliderTrial","html-slider-response",53,231603,"0.0-53.0",NA,"656776a7904ae00d6b91d1dd","6568ad1ef4db36474a5c1bf9",4,NA,NA,NA,NA,NA,NA,NA,NA,NA,NA,NA,"2451","[""SV_PolicingMSA/CO_252/IMG_14_252.jpg"",""SV_PolicingMSA/CO_252/IMG_3_252.jpg"",""SV_PolicingMSA/CO_252/IMG_11_252.jpg"",""SV_PolicingMSA/CO_252/IMG_6_252.jpg"",""SV_PolicingMSA/CO_252/IMG_0_252.jpg"",""SV_PolicingMSA/CO_252/IMG_8_252.jpg"",""SV_PolicingMSA/CO_252/IMG_7_252.jpg"",""SV_PolicingMSA/CO_252/IMG_12_252.jpg""]","4",NA,NA,NA,NA,NA,0,NA,4,"[""./rc_img/cop_condGroup_20_CommunitySafety_autoscaled.png"",""./rc_img/cop_condGroup_20_SafeStreets_autoscaled.png""]",4,NA,NA,"CO_252/","CO_252",0,0,2,3,4,4,1,"CO_252",0,2,2,2,1,1,"CO_252",0,1,4,1,0,2,1,"49","female","woman","","48134",""
"13","sliderTrial_attention","html-slider-response",54,241616,"0.0-54.0",NA,"656776a7904ae00d6b91d1dd","6568ad1ef4db36474a5c1bf9",4,NA,NA,NA,NA,NA,NA,NA,NA,NA,NA,NA,"null","[""SV_PolicingMSA/CO_252/IMG_14_252.jpg"",""SV_PolicingMSA/CO_252/IMG_3_252.jpg"",""SV_PolicingMSA/CO_252/IMG_11_252.jpg"",""SV_PolicingMSA/CO_252/IMG_6_252.jpg"",""SV_PolicingMSA/CO_252/IMG_0_252.jpg"",""SV_PolicingMSA/CO_252/IMG_8_252.jpg"",""SV_PolicingMSA/CO_252/IMG_7_252.jpg"",""SV_PolicingMSA/CO_252/IMG_12_252.jpg""]","null",NA,NA,NA,NA,NA,0,NA,4,"[""./assets/img/attnchk.png"",""./assets/img/attnchk.png""]",NA,TRUE,NA,"CO_252/","CO_252",0,0,2,3,4,4,1,"CO_252",0,2,2,2,1,1,"CO_252",0,1,4,1,0,2,1,"49","female","woman","","48134",""
"14","sliderTrial","html-slider-response",55,246145,"0.0-55.0",NA,"656776a7904ae00d6b91d1dd","6568ad1ef4db36474a5c1bf9",4,NA,NA,NA,NA,NA,NA,NA,NA,NA,NA,NA,"4525","[""SV_PolicingMSA/CO_252/IMG_14_252.jpg"",""SV_PolicingMSA/CO_252/IMG_3_252.jpg"",""SV_PolicingMSA/CO_252/IMG_11_252.jpg"",""SV_PolicingMSA/CO_252/IMG_6_252.jpg"",""SV_PolicingMSA/CO_252/IMG_0_252.jpg"",""SV_PolicingMSA/CO_252/IMG_8_252.jpg"",""SV_PolicingMSA/CO_252/IMG_7_252.jpg"",""SV_PolicingMSA/CO_252/IMG_12_252.jpg""]","4",NA,NA,NA,NA,NA,0,NA,4,"[""./rc_img/cop_condGroup_4_CommunitySafety_autoscaled.png"",""./rc_img/cop_condGroup_4_SafeStreets_autoscaled.png""]",4,NA,NA,"CO_252/","CO_252",0,0,2,3,4,4,1,"CO_252",0,2,2,2,1,1,"CO_252",0,1,4,1,0,2,1,"49","female","woman","","48134",""
"15","sliderTrial","html-slider-response",56,249394,"0.0-56.0",NA,"656776a7904ae00d6b91d1dd","6568ad1ef4db36474a5c1bf9",4,NA,NA,NA,NA,NA,NA,NA,NA,NA,NA,NA,"3246","[""SV_PolicingMSA/CO_252/IMG_14_252.jpg"",""SV_PolicingMSA/CO_252/IMG_3_252.jpg"",""SV_PolicingMSA/CO_252/IMG_11_252.jpg"",""SV_PolicingMSA/CO_252/IMG_6_252.jpg"",""SV_PolicingMSA/CO_252/IMG_0_252.jpg"",""SV_PolicingMSA/CO_252/IMG_8_252.jpg"",""SV_PolicingMSA/CO_252/IMG_7_252.jpg"",""SV_PolicingMSA/CO_252/IMG_12_252.jpg""]","4",NA,NA,NA,NA,NA,0,NA,4,"[""./rc_img/cop_condGroup_15_SafeStreets_autoscaled.png"",""./rc_img/cop_condGroup_15_CommunitySafety_autoscaled.png""]",4,NA,NA,"CO_252/","CO_252",0,0,2,3,4,4,1,"CO_252",0,2,2,2,1,1,"CO_252",0,1,4,1,0,2,1,"49","female","woman","","48134",""
"16","sliderTrial","html-slider-response",57,252381,"0.0-57.0",NA,"656776a7904ae00d6b91d1dd","6568ad1ef4db36474a5c1bf9",4,NA,NA,NA,NA,NA,NA,NA,NA,NA,NA,NA,"2986","[""SV_PolicingMSA/CO_252/IMG_14_252.jpg"",""SV_PolicingMSA/CO_252/IMG_3_252.jpg"",""SV_PolicingMSA/CO_252/IMG_11_252.jpg"",""SV_PolicingMSA/CO_252/IMG_6_252.jpg"",""SV_PolicingMSA/CO_252/IMG_0_252.jpg"",""SV_PolicingMSA/CO_252/IMG_8_252.jpg"",""SV_PolicingMSA/CO_252/IMG_7_252.jpg"",""SV_PolicingMSA/CO_252/IMG_12_252.jpg""]","4",NA,NA,NA,NA,NA,0,NA,4,"[""./rc_img/cop_condGroup_16_CommunitySafety_autoscaled.png"",""./rc_img/cop_condGroup_16_SafeStreets_autoscaled.png""]",4,NA,NA,"CO_252/","CO_252",0,0,2,3,4,4,1,"CO_252",0,2,2,2,1,1,"CO_252",0,1,4,1,0,2,1,"49","female","woman","","48134",""
"17","sliderTrial","html-slider-response",70,294679,"0.0-70.0",NA,"656776a7904ae00d6b91d1dd","6568ad1ef4db36474a5c1bf9",4,NA,NA,NA,NA,NA,NA,NA,NA,NA,NA,NA,"3508","[""SV_PolicingMSA/CO_368/IMG_4_368.jpg"",""SV_PolicingMSA/CO_368/IMG_7_368.jpg"",""SV_PolicingMSA/CO_368/IMG_6_368.jpg"",""SV_PolicingMSA/CO_368/IMG_1_368.jpg"",""SV_PolicingMSA/CO_368/IMG_10_368.jpg"",""SV_PolicingMSA/CO_368/IMG_9_368.jpg"",""SV_PolicingMSA/CO_368/IMG_2_368.jpg"",""SV_PolicingMSA/CO_368/IMG_11_368.jpg""]","4",NA,NA,NA,NA,NA,1,NA,4,"[""./rc_img/cop_condGroup_17_CommunitySafety_autoscaled.png"",""./rc_img/cop_condGroup_17_SafeStreets_autoscaled.png""]",4,NA,NA,"CO_368/","CO_368",1,0,1,2,3,4,2,"CO_368",1,3,3,3,0,0,"CO_368",1,0,4,1,1,1,0,"49","female","woman","","48134",""
"18","sliderTrial","html-slider-response",71,297240,"0.0-71.0",NA,"656776a7904ae00d6b91d1dd","6568ad1ef4db36474a5c1bf9",4,NA,NA,NA,NA,NA,NA,NA,NA,NA,NA,NA,"2558","[""SV_PolicingMSA/CO_368/IMG_4_368.jpg"",""SV_PolicingMSA/CO_368/IMG_7_368.jpg"",""SV_PolicingMSA/CO_368/IMG_6_368.jpg"",""SV_PolicingMSA/CO_368/IMG_1_368.jpg"",""SV_PolicingMSA/CO_368/IMG_10_368.jpg"",""SV_PolicingMSA/CO_368/IMG_9_368.jpg"",""SV_PolicingMSA/CO_368/IMG_2_368.jpg"",""SV_PolicingMSA/CO_368/IMG_11_368.jpg""]","4",NA,NA,NA,NA,NA,1,NA,4,"[""./rc_img/cop_condGroup_18_CommunitySafety_autoscaled.png"",""./rc_img/cop_condGroup_18_SafeStreets_autoscaled.png""]",4,NA,NA,"CO_368/","CO_368",1,0,1,2,3,4,2,"CO_368",1,3,3,3,0,0,"CO_368",1,0,4,1,1,1,0,"49","female","woman","","48134",""
"19","sliderTrial","html-slider-response",72,299958,"0.0-72.0",NA,"656776a7904ae00d6b91d1dd","6568ad1ef4db36474a5c1bf9",4,NA,NA,NA,NA,NA,NA,NA,NA,NA,NA,NA,"2717","[""SV_PolicingMSA/CO_368/IMG_4_368.jpg"",""SV_PolicingMSA/CO_368/IMG_7_368.jpg"",""SV_PolicingMSA/CO_368/IMG_6_368.jpg"",""SV_PolicingMSA/CO_368/IMG_1_368.jpg"",""SV_PolicingMSA/CO_368/IMG_10_368.jpg"",""SV_PolicingMSA/CO_368/IMG_9_368.jpg"",""SV_PolicingMSA/CO_368/IMG_2_368.jpg"",""SV_PolicingMSA/CO_368/IMG_11_368.jpg""]","4",NA,NA,NA,NA,NA,1,NA,4,"[""./rc_img/cop_condGroup_10_CommunitySafety_autoscaled.png"",""./rc_img/cop_condGroup_10_SafeStreets_autoscaled.png""]",4,NA,NA,"CO_368/","CO_368",1,0,1,2,3,4,2,"CO_368",1,3,3,3,0,0,"CO_368",1,0,4,1,1,1,0,"49","female","woman","","48134",""
"20","sliderTrial_attention","html-slider-response",73,309961,"0.0-73.0",NA,"656776a7904ae00d6b91d1dd","6568ad1ef4db36474a5c1bf9",4,NA,NA,NA,NA,NA,NA,NA,NA,NA,NA,NA,"null","[""SV_PolicingMSA/CO_368/IMG_4_368.jpg"",""SV_PolicingMSA/CO_368/IMG_7_368.jpg"",""SV_PolicingMSA/CO_368/IMG_6_368.jpg"",""SV_PolicingMSA/CO_368/IMG_1_368.jpg"",""SV_PolicingMSA/CO_368/IMG_10_368.jpg"",""SV_PolicingMSA/CO_368/IMG_9_368.jpg"",""SV_PolicingMSA/CO_368/IMG_2_368.jpg"",""SV_PolicingMSA/CO_368/IMG_11_368.jpg""]","null",NA,NA,NA,NA,NA,1,NA,4,"[""./assets/img/attnchk.png"",""./assets/img/attnchk.png""]",NA,TRUE,NA,"CO_368/","CO_368",1,0,1,2,3,4,2,"CO_368",1,3,3,3,0,0,"CO_368",1,0,4,1,1,1,0,"49","female","woman","","48134",""
"21","sliderTrial","html-slider-response",74,313376,"0.0-74.0",NA,"656776a7904ae00d6b91d1dd","6568ad1ef4db36474a5c1bf9",4,NA,NA,NA,NA,NA,NA,NA,NA,NA,NA,NA,"3411","[""SV_PolicingMSA/CO_368/IMG_4_368.jpg"",""SV_PolicingMSA/CO_368/IMG_7_368.jpg"",""SV_PolicingMSA/CO_368/IMG_6_368.jpg"",""SV_PolicingMSA/CO_368/IMG_1_368.jpg"",""SV_PolicingMSA/CO_368/IMG_10_368.jpg"",""SV_PolicingMSA/CO_368/IMG_9_368.jpg"",""SV_PolicingMSA/CO_368/IMG_2_368.jpg"",""SV_PolicingMSA/CO_368/IMG_11_368.jpg""]","4",NA,NA,NA,NA,NA,1,NA,4,"[""./rc_img/cop_condGroup_2_CommunitySafety_autoscaled.png"",""./rc_img/cop_condGroup_2_SafeStreets_autoscaled.png""]",4,NA,NA,"CO_368/","CO_368",1,0,1,2,3,4,2,"CO_368",1,3,3,3,0,0,"CO_368",1,0,4,1,1,1,0,"49","female","woman","","48134",""
"22","sliderTrial","html-slider-response",75,316426,"0.0-75.0",NA,"656776a7904ae00d6b91d1dd","6568ad1ef4db36474a5c1bf9",4,NA,NA,NA,NA,NA,NA,NA,NA,NA,NA,NA,"3048","[""SV_PolicingMSA/CO_368/IMG_4_368.jpg"",""SV_PolicingMSA/CO_368/IMG_7_368.jpg"",""SV_PolicingMSA/CO_368/IMG_6_368.jpg"",""SV_PolicingMSA/CO_368/IMG_1_368.jpg"",""SV_PolicingMSA/CO_368/IMG_10_368.jpg"",""SV_PolicingMSA/CO_368/IMG_9_368.jpg"",""SV_PolicingMSA/CO_368/IMG_2_368.jpg"",""SV_PolicingMSA/CO_368/IMG_11_368.jpg""]","4",NA,NA,NA,NA,NA,1,NA,4,"[""./rc_img/cop_condGroup_1_SafeStreets_autoscaled.png"",""./rc_img/cop_condGroup_1_CommunitySafety_autoscaled.png""]",4,NA,NA,"CO_368/","CO_368",1,0,1,2,3,4,2,"CO_368",1,3,3,3,0,0,"CO_368",1,0,4,1,1,1,0,"49","female","woman","","48134",""
"23","sliderTrial","html-slider-response",89,383385,"0.0-89.0",NA,"656776a7904ae00d6b91d1dd","6568ad1ef4db36474a5c1bf9",4,NA,NA,NA,NA,NA,NA,NA,NA,NA,NA,NA,"3360","[""SV_PolicingMSA/CO_674/IMG_8_674.jpg"",""SV_PolicingMSA/CO_674/IMG_4_674.jpg"",""SV_PolicingMSA/CO_674/IMG_13_674.jpg"",""SV_PolicingMSA/CO_674/IMG_7_674.jpg"",""SV_PolicingMSA/CO_674/IMG_0_674.jpg"",""SV_PolicingMSA/CO_674/IMG_2_674.jpg"",""SV_PolicingMSA/CO_674/IMG_10_674.jpg"",""SV_PolicingMSA/CO_674/IMG_14_674.jpg""]","4",NA,NA,NA,NA,NA,4,NA,4,"[""./rc_img/cop_condGroup_11_SafeStreets_autoscaled.png"",""./rc_img/cop_condGroup_11_CommunitySafety_autoscaled.png""]",4,NA,NA,"CO_674/","CO_674",4,1,2,4,3,4,7,"CO_674",4,3,3,3,1,1,"CO_674",4,1,4,2,1,1,0,"49","female","woman","","48134",""
"24","sliderTrial","html-slider-response",90,386617,"0.0-90.0",NA,"656776a7904ae00d6b91d1dd","6568ad1ef4db36474a5c1bf9",4,NA,NA,NA,NA,NA,NA,NA,NA,NA,NA,NA,"3231","[""SV_PolicingMSA/CO_674/IMG_8_674.jpg"",""SV_PolicingMSA/CO_674/IMG_4_674.jpg"",""SV_PolicingMSA/CO_674/IMG_13_674.jpg"",""SV_PolicingMSA/CO_674/IMG_7_674.jpg"",""SV_PolicingMSA/CO_674/IMG_0_674.jpg"",""SV_PolicingMSA/CO_674/IMG_2_674.jpg"",""SV_PolicingMSA/CO_674/IMG_10_674.jpg"",""SV_PolicingMSA/CO_674/IMG_14_674.jpg""]","4",NA,NA,NA,NA,NA,4,NA,4,"[""./rc_img/cop_condGroup_12_SafeStreets_autoscaled.png"",""./rc_img/cop_condGroup_12_CommunitySafety_autoscaled.png""]",4,NA,NA,"CO_674/","CO_674",4,1,2,4,3,4,7,"CO_674",4,3,3,3,1,1,"CO_674",4,1,4,2,1,1,0,"49","female","woman","","48134",""
"25","sliderTrial","html-slider-response",91,389990,"0.0-91.0",NA,"656776a7904ae00d6b91d1dd","6568ad1ef4db36474a5c1bf9",4,NA,NA,NA,NA,NA,NA,NA,NA,NA,NA,NA,"3370","[""SV_PolicingMSA/CO_674/IMG_8_674.jpg"",""SV_PolicingMSA/CO_674/IMG_4_674.jpg"",""SV_PolicingMSA/CO_674/IMG_13_674.jpg"",""SV_PolicingMSA/CO_674/IMG_7_674.jpg"",""SV_PolicingMSA/CO_674/IMG_0_674.jpg"",""SV_PolicingMSA/CO_674/IMG_2_674.jpg"",""SV_PolicingMSA/CO_674/IMG_10_674.jpg"",""SV_PolicingMSA/CO_674/IMG_14_674.jpg""]","4",NA,NA,NA,NA,NA,4,NA,4,"[""./rc_img/cop_condGroup_13_CommunitySafety_autoscaled.png"",""./rc_img/cop_condGroup_13_SafeStreets_autoscaled.png""]",4,NA,NA,"CO_674/","CO_674",4,1,2,4,3,4,7,"CO_674",4,3,3,3,1,1,"CO_674",4,1,4,2,1,1,0,"49","female","woman","","48134",""
"26","sliderTrial","html-slider-response",92,393248,"0.0-92.0",NA,"656776a7904ae00d6b91d1dd","6568ad1ef4db36474a5c1bf9",4,NA,NA,NA,NA,NA,NA,NA,NA,NA,NA,NA,"3256","[""SV_PolicingMSA/CO_674/IMG_8_674.jpg"",""SV_PolicingMSA/CO_674/IMG_4_674.jpg"",""SV_PolicingMSA/CO_674/IMG_13_674.jpg"",""SV_PolicingMSA/CO_674/IMG_7_674.jpg"",""SV_PolicingMSA/CO_674/IMG_0_674.jpg"",""SV_PolicingMSA/CO_674/IMG_2_674.jpg"",""SV_PolicingMSA/CO_674/IMG_10_674.jpg"",""SV_PolicingMSA/CO_674/IMG_14_674.jpg""]","4",NA,NA,NA,NA,NA,4,NA,4,"[""./rc_img/cop_condGroup_5_SafeStreets_autoscaled.png"",""./rc_img/cop_condGroup_5_CommunitySafety_autoscaled.png""]",4,NA,NA,"CO_674/","CO_674",4,1,2,4,3,4,7,"CO_674",4,3,3,3,1,1,"CO_674",4,1,4,2,1,1,0,"49","female","woman","","48134",""
"27","sliderTrial","html-slider-response",93,397168,"0.0-93.0",NA,"656776a7904ae00d6b91d1dd","6568ad1ef4db36474a5c1bf9",4,NA,NA,NA,NA,NA,NA,NA,NA,NA,NA,NA,"3918","[""SV_PolicingMSA/CO_674/IMG_8_674.jpg"",""SV_PolicingMSA/CO_674/IMG_4_674.jpg"",""SV_PolicingMSA/CO_674/IMG_13_674.jpg"",""SV_PolicingMSA/CO_674/IMG_7_674.jpg"",""SV_PolicingMSA/CO_674/IMG_0_674.jpg"",""SV_PolicingMSA/CO_674/IMG_2_674.jpg"",""SV_PolicingMSA/CO_674/IMG_10_674.jpg"",""SV_PolicingMSA/CO_674/IMG_14_674.jpg""]","4",NA,NA,NA,NA,NA,4,NA,4,"[""./rc_img/cop_condGroup_3_CommunitySafety_autoscaled.png"",""./rc_img/cop_condGroup_3_SafeStreets_autoscaled.png""]",4,NA,NA,"CO_674/","CO_674",4,1,2,4,3,4,7,"CO_674",4,3,3,3,1,1,"CO_674",4,1,4,2,1,1,0,"49","female","woman","","48134",""
"28","sliderTrial","html-slider-response",106,449816,"0.0-106.0",NA,"656776a7904ae00d6b91d1dd","6568ad1ef4db36474a5c1bf9",4,NA,NA,NA,NA,NA,NA,NA,NA,NA,NA,NA,"2712","[""SV_PolicingMSA/CO_543/IMG_10_543.jpg"",""SV_PolicingMSA/CO_543/IMG_6_543.jpg"",""SV_PolicingMSA/CO_543/IMG_14_543.jpg"",""SV_PolicingMSA/CO_543/IMG_0_543.jpg"",""SV_PolicingMSA/CO_543/IMG_5_543.jpg"",""SV_PolicingMSA/CO_543/IMG_9_543.jpg"",""SV_PolicingMSA/CO_543/IMG_1_543.jpg"",""SV_PolicingMSA/CO_543/IMG_13_543.jpg""]","4",NA,NA,NA,NA,NA,2,NA,4,"[""./rc_img/cop_condGroup_6_SafeStreets_autoscaled.png"",""./rc_img/cop_condGroup_6_CommunitySafety_autoscaled.png""]",4,NA,NA,"CO_543/","CO_543",2,1,2,3,3,4,3,"CO_543",2,2,2,2,0,0,"CO_543",2,0,4,1,0,1,0,"49","female","woman","","48134",""
"29","sliderTrial","html-slider-response",107,453110,"0.0-107.0",NA,"656776a7904ae00d6b91d1dd","6568ad1ef4db36474a5c1bf9",4,NA,NA,NA,NA,NA,NA,NA,NA,NA,NA,NA,"3293","[""SV_PolicingMSA/CO_543/IMG_10_543.jpg"",""SV_PolicingMSA/CO_543/IMG_6_543.jpg"",""SV_PolicingMSA/CO_543/IMG_14_543.jpg"",""SV_PolicingMSA/CO_543/IMG_0_543.jpg"",""SV_PolicingMSA/CO_543/IMG_5_543.jpg"",""SV_PolicingMSA/CO_543/IMG_9_543.jpg"",""SV_PolicingMSA/CO_543/IMG_1_543.jpg"",""SV_PolicingMSA/CO_543/IMG_13_543.jpg""]","4",NA,NA,NA,NA,NA,2,NA,4,"[""./rc_img/cop_condGroup_20_CommunitySafety_autoscaled.png"",""./rc_img/cop_condGroup_20_SafeStreets_autoscaled.png""]",4,NA,NA,"CO_543/","CO_543",2,1,2,3,3,4,3,"CO_543",2,2,2,2,0,0,"CO_543",2,0,4,1,0,1,0,"49","female","woman","","48134",""
"30","sliderTrial","html-slider-response",108,455901,"0.0-108.0",NA,"656776a7904ae00d6b91d1dd","6568ad1ef4db36474a5c1bf9",4,NA,NA,NA,NA,NA,NA,NA,NA,NA,NA,NA,"2789","[""SV_PolicingMSA/CO_543/IMG_10_543.jpg"",""SV_PolicingMSA/CO_543/IMG_6_543.jpg"",""SV_PolicingMSA/CO_543/IMG_14_543.jpg"",""SV_PolicingMSA/CO_543/IMG_0_543.jpg"",""SV_PolicingMSA/CO_543/IMG_5_543.jpg"",""SV_PolicingMSA/CO_543/IMG_9_543.jpg"",""SV_PolicingMSA/CO_543/IMG_1_543.jpg"",""SV_PolicingMSA/CO_543/IMG_13_543.jpg""]","5",NA,NA,NA,NA,NA,2,NA,4,"[""./rc_img/cop_condGroup_4_CommunitySafety_autoscaled.png"",""./rc_img/cop_condGroup_4_SafeStreets_autoscaled.png""]",5,NA,NA,"CO_543/","CO_543",2,1,2,3,3,4,3,"CO_543",2,2,2,2,0,0,"CO_543",2,0,4,1,0,1,0,"49","female","woman","","48134",""
"31","sliderTrial","html-slider-response",109,459133,"0.0-109.0",NA,"656776a7904ae00d6b91d1dd","6568ad1ef4db36474a5c1bf9",4,NA,NA,NA,NA,NA,NA,NA,NA,NA,NA,NA,"3230","[""SV_PolicingMSA/CO_543/IMG_10_543.jpg"",""SV_PolicingMSA/CO_543/IMG_6_543.jpg"",""SV_PolicingMSA/CO_543/IMG_14_543.jpg"",""SV_PolicingMSA/CO_543/IMG_0_543.jpg"",""SV_PolicingMSA/CO_543/IMG_5_543.jpg"",""SV_PolicingMSA/CO_543/IMG_9_543.jpg"",""SV_PolicingMSA/CO_543/IMG_1_543.jpg"",""SV_PolicingMSA/CO_543/IMG_13_543.jpg""]","5",NA,NA,NA,NA,NA,2,NA,4,"[""./rc_img/cop_condGroup_15_SafeStreets_autoscaled.png"",""./rc_img/cop_condGroup_15_CommunitySafety_autoscaled.png""]",3,NA,NA,"CO_543/","CO_543",2,1,2,3,3,4,3,"CO_543",2,2,2,2,0,0,"CO_543",2,0,4,1,0,1,0,"49","female","woman","","48134",""
"32","sliderTrial","html-slider-response",110,462289,"0.0-110.0",NA,"656776a7904ae00d6b91d1dd","6568ad1ef4db36474a5c1bf9",4,NA,NA,NA,NA,NA,NA,NA,NA,NA,NA,NA,"3153","[""SV_PolicingMSA/CO_543/IMG_10_543.jpg"",""SV_PolicingMSA/CO_543/IMG_6_543.jpg"",""SV_PolicingMSA/CO_543/IMG_14_543.jpg"",""SV_PolicingMSA/CO_543/IMG_0_543.jpg"",""SV_PolicingMSA/CO_543/IMG_5_543.jpg"",""SV_PolicingMSA/CO_543/IMG_9_543.jpg"",""SV_PolicingMSA/CO_543/IMG_1_543.jpg"",""SV_PolicingMSA/CO_543/IMG_13_543.jpg""]","5",NA,NA,NA,NA,NA,2,NA,4,"[""./rc_img/cop_condGroup_16_CommunitySafety_autoscaled.png"",""./rc_img/cop_condGroup_16_SafeStreets_autoscaled.png""]",5,NA,NA,"CO_543/","CO_543",2,1,2,3,3,4,3,"CO_543",2,2,2,2,0,0,"CO_543",2,0,4,1,0,1,0,"49","female","woman","","48134",""
"33","sliderTrial","html-slider-response",123,509622,"0.0-123.0",NA,"656776a7904ae00d6b91d1dd","6568ad1ef4db36474a5c1bf9",4,NA,NA,NA,NA,NA,NA,NA,NA,NA,NA,NA,"2864","[""SV_PolicingMSA/CO_1308/IMG_4_1308.jpg"",""SV_PolicingMSA/CO_1308/IMG_3_1308.jpg"",""SV_PolicingMSA/CO_1308/IMG_8_1308.jpg"",""SV_PolicingMSA/CO_1308/IMG_14_1308.jpg"",""SV_PolicingMSA/CO_1308/IMG_0_1308.jpg"",""SV_PolicingMSA/CO_1308/IMG_2_1308.jpg"",""SV_PolicingMSA/CO_1308/IMG_13_1308.jpg"",""SV_PolicingMSA/CO_1308/IMG_11_1308.jpg""]","4",NA,NA,NA,NA,NA,3,NA,4,"[""./rc_img/cop_condGroup_19_SafeStreets_autoscaled.png"",""./rc_img/cop_condGroup_19_CommunitySafety_autoscaled.png""]",4,NA,NA,"CO_1308","CO_1308",3,3,2,4,2,4,6,"CO_1308",3,3,3,3,4,4,"CO_1308",3,0,4,4,3,3,3,"49","female","woman","","48134",""
"34","sliderTrial","html-slider-response",124,514140,"0.0-124.0",NA,"656776a7904ae00d6b91d1dd","6568ad1ef4db36474a5c1bf9",4,NA,NA,NA,NA,NA,NA,NA,NA,NA,NA,NA,"4516","[""SV_PolicingMSA/CO_1308/IMG_4_1308.jpg"",""SV_PolicingMSA/CO_1308/IMG_3_1308.jpg"",""SV_PolicingMSA/CO_1308/IMG_8_1308.jpg"",""SV_PolicingMSA/CO_1308/IMG_14_1308.jpg"",""SV_PolicingMSA/CO_1308/IMG_0_1308.jpg"",""SV_PolicingMSA/CO_1308/IMG_2_1308.jpg"",""SV_PolicingMSA/CO_1308/IMG_13_1308.jpg"",""SV_PolicingMSA/CO_1308/IMG_11_1308.jpg""]","5",NA,NA,NA,NA,NA,3,NA,4,"[""./rc_img/cop_condGroup_9_SafeStreets_autoscaled.png"",""./rc_img/cop_condGroup_9_CommunitySafety_autoscaled.png""]",3,NA,NA,"CO_1308","CO_1308",3,3,2,4,2,4,6,"CO_1308",3,3,3,3,4,4,"CO_1308",3,0,4,4,3,3,3,"49","female","woman","","48134",""
"35","sliderTrial","html-slider-response",125,516663,"0.0-125.0",NA,"656776a7904ae00d6b91d1dd","6568ad1ef4db36474a5c1bf9",4,NA,NA,NA,NA,NA,NA,NA,NA,NA,NA,NA,"2521","[""SV_PolicingMSA/CO_1308/IMG_4_1308.jpg"",""SV_PolicingMSA/CO_1308/IMG_3_1308.jpg"",""SV_PolicingMSA/CO_1308/IMG_8_1308.jpg"",""SV_PolicingMSA/CO_1308/IMG_14_1308.jpg"",""SV_PolicingMSA/CO_1308/IMG_0_1308.jpg"",""SV_PolicingMSA/CO_1308/IMG_2_1308.jpg"",""SV_PolicingMSA/CO_1308/IMG_13_1308.jpg"",""SV_PolicingMSA/CO_1308/IMG_11_1308.jpg""]","5",NA,NA,NA,NA,NA,3,NA,4,"[""./rc_img/cop_condGroup_8_SafeStreets_autoscaled.png"",""./rc_img/cop_condGroup_8_CommunitySafety_autoscaled.png""]",3,NA,NA,"CO_1308","CO_1308",3,3,2,4,2,4,6,"CO_1308",3,3,3,3,4,4,"CO_1308",3,0,4,4,3,3,3,"49","female","woman","","48134",""
"36","sliderTrial","html-slider-response",126,519186,"0.0-126.0",NA,"656776a7904ae00d6b91d1dd","6568ad1ef4db36474a5c1bf9",4,NA,NA,NA,NA,NA,NA,NA,NA,NA,NA,NA,"2521","[""SV_PolicingMSA/CO_1308/IMG_4_1308.jpg"",""SV_PolicingMSA/CO_1308/IMG_3_1308.jpg"",""SV_PolicingMSA/CO_1308/IMG_8_1308.jpg"",""SV_PolicingMSA/CO_1308/IMG_14_1308.jpg"",""SV_PolicingMSA/CO_1308/IMG_0_1308.jpg"",""SV_PolicingMSA/CO_1308/IMG_2_1308.jpg"",""SV_PolicingMSA/CO_1308/IMG_13_1308.jpg"",""SV_PolicingMSA/CO_1308/IMG_11_1308.jpg""]","3",NA,NA,NA,NA,NA,3,NA,4,"[""./rc_img/cop_condGroup_14_CommunitySafety_autoscaled.png"",""./rc_img/cop_condGroup_14_SafeStreets_autoscaled.png""]",3,NA,NA,"CO_1308","CO_1308",3,3,2,4,2,4,6,"CO_1308",3,3,3,3,4,4,"CO_1308",3,0,4,4,3,3,3,"49","female","woman","","48134",""
"37","sliderTrial","html-slider-response",127,521443,"0.0-127.0",NA,"656776a7904ae00d6b91d1dd","6568ad1ef4db36474a5c1bf9",4,NA,NA,NA,NA,NA,NA,NA,NA,NA,NA,NA,"2256","[""SV_PolicingMSA/CO_1308/IMG_4_1308.jpg"",""SV_PolicingMSA/CO_1308/IMG_3_1308.jpg"",""SV_PolicingMSA/CO_1308/IMG_8_1308.jpg"",""SV_PolicingMSA/CO_1308/IMG_14_1308.jpg"",""SV_PolicingMSA/CO_1308/IMG_0_1308.jpg"",""SV_PolicingMSA/CO_1308/IMG_2_1308.jpg"",""SV_PolicingMSA/CO_1308/IMG_13_1308.jpg"",""SV_PolicingMSA/CO_1308/IMG_11_1308.jpg""]","4",NA,NA,NA,NA,NA,3,NA,4,"[""./rc_img/cop_condGroup_7_SafeStreets_autoscaled.png"",""./rc_img/cop_condGroup_7_CommunitySafety_autoscaled.png""]",4,NA,NA,"CO_1308","CO_1308",3,3,2,4,2,4,6,"CO_1308",3,3,3,3,4,4,"CO_1308",3,0,4,4,3,3,3,"49","female","woman","","48134",""
"38","sliderTrial","html-slider-response",140,577955,"0.0-140.0",NA,"656776a7904ae00d6b91d1dd","6568ad1ef4db36474a5c1bf9",4,NA,NA,NA,NA,NA,NA,NA,NA,NA,NA,NA,"3950","[""SV_PolicingMSA/CO_649/IMG_11_649.jpg"",""SV_PolicingMSA/CO_649/IMG_6_649.jpg"",""SV_PolicingMSA/CO_649/IMG_14_649.jpg"",""SV_PolicingMSA/CO_649/IMG_9_649.jpg"",""SV_PolicingMSA/CO_649/IMG_12_649.jpg"",""SV_PolicingMSA/CO_649/IMG_3_649.jpg"",""SV_PolicingMSA/CO_649/IMG_4_649.jpg"",""SV_PolicingMSA/CO_649/IMG_8_649.jpg""]","5",NA,NA,NA,NA,NA,2,NA,4,"[""./rc_img/cop_condGroup_11_SafeStreets_autoscaled.png"",""./rc_img/cop_condGroup_11_CommunitySafety_autoscaled.png""]",3,NA,NA,"CO_649/","CO_649",2,2,3,3,4,4,4,"CO_649",2,2,2,2,2,2,"CO_649",2,1,3,3,2,3,2,"49","female","woman","","48134",""
"39","sliderTrial","html-slider-response",141,580404,"0.0-141.0",NA,"656776a7904ae00d6b91d1dd","6568ad1ef4db36474a5c1bf9",4,NA,NA,NA,NA,NA,NA,NA,NA,NA,NA,NA,"2446","[""SV_PolicingMSA/CO_649/IMG_11_649.jpg"",""SV_PolicingMSA/CO_649/IMG_6_649.jpg"",""SV_PolicingMSA/CO_649/IMG_14_649.jpg"",""SV_PolicingMSA/CO_649/IMG_9_649.jpg"",""SV_PolicingMSA/CO_649/IMG_12_649.jpg"",""SV_PolicingMSA/CO_649/IMG_3_649.jpg"",""SV_PolicingMSA/CO_649/IMG_4_649.jpg"",""SV_PolicingMSA/CO_649/IMG_8_649.jpg""]","5",NA,NA,NA,NA,NA,2,NA,4,"[""./rc_img/cop_condGroup_12_SafeStreets_autoscaled.png"",""./rc_img/cop_condGroup_12_CommunitySafety_autoscaled.png""]",3,NA,NA,"CO_649/","CO_649",2,2,3,3,4,4,4,"CO_649",2,2,2,2,2,2,"CO_649",2,1,3,3,2,3,2,"49","female","woman","","48134",""
"40","sliderTrial","html-slider-response",142,582599,"0.0-142.0",NA,"656776a7904ae00d6b91d1dd","6568ad1ef4db36474a5c1bf9",4,NA,NA,NA,NA,NA,NA,NA,NA,NA,NA,NA,"2193","[""SV_PolicingMSA/CO_649/IMG_11_649.jpg"",""SV_PolicingMSA/CO_649/IMG_6_649.jpg"",""SV_PolicingMSA/CO_649/IMG_14_649.jpg"",""SV_PolicingMSA/CO_649/IMG_9_649.jpg"",""SV_PolicingMSA/CO_649/IMG_12_649.jpg"",""SV_PolicingMSA/CO_649/IMG_3_649.jpg"",""SV_PolicingMSA/CO_649/IMG_4_649.jpg"",""SV_PolicingMSA/CO_649/IMG_8_649.jpg""]","3",NA,NA,NA,NA,NA,2,NA,4,"[""./rc_img/cop_condGroup_13_CommunitySafety_autoscaled.png"",""./rc_img/cop_condGroup_13_SafeStreets_autoscaled.png""]",3,NA,NA,"CO_649/","CO_649",2,2,3,3,4,4,4,"CO_649",2,2,2,2,2,2,"CO_649",2,1,3,3,2,3,2,"49","female","woman","","48134",""
"41","sliderTrial","html-slider-response",143,584640,"0.0-143.0",NA,"656776a7904ae00d6b91d1dd","6568ad1ef4db36474a5c1bf9",4,NA,NA,NA,NA,NA,NA,NA,NA,NA,NA,NA,"2039","[""SV_PolicingMSA/CO_649/IMG_11_649.jpg"",""SV_PolicingMSA/CO_649/IMG_6_649.jpg"",""SV_PolicingMSA/CO_649/IMG_14_649.jpg"",""SV_PolicingMSA/CO_649/IMG_9_649.jpg"",""SV_PolicingMSA/CO_649/IMG_12_649.jpg"",""SV_PolicingMSA/CO_649/IMG_3_649.jpg"",""SV_PolicingMSA/CO_649/IMG_4_649.jpg"",""SV_PolicingMSA/CO_649/IMG_8_649.jpg""]","5",NA,NA,NA,NA,NA,2,NA,4,"[""./rc_img/cop_condGroup_5_SafeStreets_autoscaled.png"",""./rc_img/cop_condGroup_5_CommunitySafety_autoscaled.png""]",3,NA,NA,"CO_649/","CO_649",2,2,3,3,4,4,4,"CO_649",2,2,2,2,2,2,"CO_649",2,1,3,3,2,3,2,"49","female","woman","","48134",""
"42","sliderTrial","html-slider-response",144,587902,"0.0-144.0",NA,"656776a7904ae00d6b91d1dd","6568ad1ef4db36474a5c1bf9",4,NA,NA,NA,NA,NA,NA,NA,NA,NA,NA,NA,"3259","[""SV_PolicingMSA/CO_649/IMG_11_649.jpg"",""SV_PolicingMSA/CO_649/IMG_6_649.jpg"",""SV_PolicingMSA/CO_649/IMG_14_649.jpg"",""SV_PolicingMSA/CO_649/IMG_9_649.jpg"",""SV_PolicingMSA/CO_649/IMG_12_649.jpg"",""SV_PolicingMSA/CO_649/IMG_3_649.jpg"",""SV_PolicingMSA/CO_649/IMG_4_649.jpg"",""SV_PolicingMSA/CO_649/IMG_8_649.jpg""]","3",NA,NA,NA,NA,NA,2,NA,4,"[""./rc_img/cop_condGroup_3_CommunitySafety_autoscaled.png"",""./rc_img/cop_condGroup_3_SafeStreets_autoscaled.png""]",3,NA,NA,"CO_649/","CO_649",2,2,3,3,4,4,4,"CO_649",2,2,2,2,2,2,"CO_649",2,1,3,3,2,3,2,"49","female","woman","","48134",""
