"","task","trial_type","trial_index","time_elapsed","internal_node_id","subject_id","study_id","session_id","section","width","height","webaudio","browser","browser_version","mobile","os","fullscreen","vsync_rate","webcam","microphone","rt","stimulus","response","success","timeout","failed_images","failed_audio","failed_video","block.x.x","accuracy","slider_start","choices","standardized_response","correct","num_attention_checks_correct","stim_tract","stim_tractT","block.x","P0_Q1.wealthy","P0_Q1.safe","P0_Q1.walkable","P0_Q1.traditional","P0_Q1.diverse","block_fixed","stim_tractT.x","block.y","P0_Q1.violence","P0_Q1.crime","P0_Q1.drug","P0_Q1.schools","P0_Q1.opportunities","stim_tractT.y","block.y.y","P0_Q1.movein","P0_Q1.moveout","P0_Q1.shopping","P0_Q1.walk","P0_Q1.park","P0_Q1.school","age","sex","gender","gender-self-describe","zipcode","surveyComments"
"1","sliderTrial","html-slider-response",18,173056,"0.0-18.0",NA,"656776a7904ae00d6b91d1dd","6568a9f37ea0b5e4d8b4ca44",7,NA,NA,NA,NA,NA,NA,NA,NA,NA,NA,NA,"15179","[""SV_PolicingMSA/MO_628/IMG_14_628.jpg"",""SV_PolicingMSA/MO_628/IMG_10_628.jpg"",""SV_PolicingMSA/MO_628/IMG_6_628.jpg"",""SV_PolicingMSA/MO_628/IMG_9_628.jpg"",""SV_PolicingMSA/MO_628/IMG_4_628.jpg"",""SV_PolicingMSA/MO_628/IMG_1_628.jpg"",""SV_PolicingMSA/MO_628/IMG_5_628.jpg"",""SV_PolicingMSA/MO_628/IMG_0_628.jpg""]","7",NA,NA,NA,NA,NA,3,NA,4,"[""./rc_img/cop_condGroup_15_CommunitySafety_autoscaled.png"",""./rc_img/cop_condGroup_15_SafeStreets_autoscaled.png""]",7,NA,NA,"MO_628/","MO_628",3,1,2,4,4,2,5,"MO_628",3,3,3,3,2,1,"MO_628",3,1,4,3,2,2,1,"65","female","woman","","78244",""
"2","sliderTrial","html-slider-response",19,182035,"0.0-19.0",NA,"656776a7904ae00d6b91d1dd","6568a9f37ea0b5e4d8b4ca44",7,NA,NA,NA,NA,NA,NA,NA,NA,NA,NA,NA,"8978","[""SV_PolicingMSA/MO_628/IMG_14_628.jpg"",""SV_PolicingMSA/MO_628/IMG_10_628.jpg"",""SV_PolicingMSA/MO_628/IMG_6_628.jpg"",""SV_PolicingMSA/MO_628/IMG_9_628.jpg"",""SV_PolicingMSA/MO_628/IMG_4_628.jpg"",""SV_PolicingMSA/MO_628/IMG_1_628.jpg"",""SV_PolicingMSA/MO_628/IMG_5_628.jpg"",""SV_PolicingMSA/MO_628/IMG_0_628.jpg""]","7",NA,NA,NA,NA,NA,3,NA,4,"[""./rc_img/cop_condGroup_16_SafeStreets_autoscaled.png"",""./rc_img/cop_condGroup_16_CommunitySafety_autoscaled.png""]",1,NA,NA,"MO_628/","MO_628",3,1,2,4,4,2,5,"MO_628",3,3,3,3,2,1,"MO_628",3,1,4,3,2,2,1,"65","female","woman","","78244",""
"3","sliderTrial","html-slider-response",20,188818,"0.0-20.0",NA,"656776a7904ae00d6b91d1dd","6568a9f37ea0b5e4d8b4ca44",7,NA,NA,NA,NA,NA,NA,NA,NA,NA,NA,NA,"6781","[""SV_PolicingMSA/MO_628/IMG_14_628.jpg"",""SV_PolicingMSA/MO_628/IMG_10_628.jpg"",""SV_PolicingMSA/MO_628/IMG_6_628.jpg"",""SV_PolicingMSA/MO_628/IMG_9_628.jpg"",""SV_PolicingMSA/MO_628/IMG_4_628.jpg"",""SV_PolicingMSA/MO_628/IMG_1_628.jpg"",""SV_PolicingMSA/MO_628/IMG_5_628.jpg"",""SV_PolicingMSA/MO_628/IMG_0_628.jpg""]","1",NA,NA,NA,NA,NA,3,NA,4,"[""./rc_img/cop_condGroup_2_SafeStreets_autoscaled.png"",""./rc_img/cop_condGroup_2_CommunitySafety_autoscaled.png""]",7,NA,NA,"MO_628/","MO_628",3,1,2,4,4,2,5,"MO_628",3,3,3,3,2,1,"MO_628",3,1,4,3,2,2,1,"65","female","woman","","78244",""
"4","sliderTrial","html-slider-response",21,196152,"0.0-21.0",NA,"656776a7904ae00d6b91d1dd","6568a9f37ea0b5e4d8b4ca44",7,NA,NA,NA,NA,NA,NA,NA,NA,NA,NA,NA,"7333","[""SV_PolicingMSA/MO_628/IMG_14_628.jpg"",""SV_PolicingMSA/MO_628/IMG_10_628.jpg"",""SV_PolicingMSA/MO_628/IMG_6_628.jpg"",""SV_PolicingMSA/MO_628/IMG_9_628.jpg"",""SV_PolicingMSA/MO_628/IMG_4_628.jpg"",""SV_PolicingMSA/MO_628/IMG_1_628.jpg"",""SV_PolicingMSA/MO_628/IMG_5_628.jpg"",""SV_PolicingMSA/MO_628/IMG_0_628.jpg""]","1",NA,NA,NA,NA,NA,3,NA,4,"[""./rc_img/cop_condGroup_14_SafeStreets_autoscaled.png"",""./rc_img/cop_condGroup_14_CommunitySafety_autoscaled.png""]",7,NA,NA,"MO_628/","MO_628",3,1,2,4,4,2,5,"MO_628",3,3,3,3,2,1,"MO_628",3,1,4,3,2,2,1,"65","female","woman","","78244",""
"5","sliderTrial","html-slider-response",22,199372,"0.0-22.0",NA,"656776a7904ae00d6b91d1dd","6568a9f37ea0b5e4d8b4ca44",7,NA,NA,NA,NA,NA,NA,NA,NA,NA,NA,NA,"3219","[""SV_PolicingMSA/MO_628/IMG_14_628.jpg"",""SV_PolicingMSA/MO_628/IMG_10_628.jpg"",""SV_PolicingMSA/MO_628/IMG_6_628.jpg"",""SV_PolicingMSA/MO_628/IMG_9_628.jpg"",""SV_PolicingMSA/MO_628/IMG_4_628.jpg"",""SV_PolicingMSA/MO_628/IMG_1_628.jpg"",""SV_PolicingMSA/MO_628/IMG_5_628.jpg"",""SV_PolicingMSA/MO_628/IMG_0_628.jpg""]","1",NA,NA,NA,NA,NA,3,NA,4,"[""./rc_img/cop_condGroup_1_SafeStreets_autoscaled.png"",""./rc_img/cop_condGroup_1_CommunitySafety_autoscaled.png""]",7,NA,NA,"MO_628/","MO_628",3,1,2,4,4,2,5,"MO_628",3,3,3,3,2,1,"MO_628",3,1,4,3,2,2,1,"65","female","woman","","78244",""
"6","sliderTrial","html-slider-response",35,275004,"0.0-35.0",NA,"656776a7904ae00d6b91d1dd","6568a9f37ea0b5e4d8b4ca44",7,NA,NA,NA,NA,NA,NA,NA,NA,NA,NA,NA,"6394","[""SV_PolicingMSA/MO_982/IMG_0_982.jpg"",""SV_PolicingMSA/MO_982/IMG_12_982.jpg"",""SV_PolicingMSA/MO_982/IMG_10_982.jpg"",""SV_PolicingMSA/MO_982/IMG_7_982.jpg"",""SV_PolicingMSA/MO_982/IMG_14_982.jpg"",""SV_PolicingMSA/MO_982/IMG_13_982.jpg"",""SV_PolicingMSA/MO_982/IMG_8_982.jpg"",""SV_PolicingMSA/MO_982/IMG_2_982.jpg""]","1",NA,NA,NA,NA,NA,2,NA,4,"[""./rc_img/cop_condGroup_19_SafeStreets_autoscaled.png"",""./rc_img/cop_condGroup_19_CommunitySafety_autoscaled.png""]",7,NA,NA,"MO_982/","MO_982",2,1,2,3,4,2,3,"MO_982",2,2,1,2,2,2,"MO_982",2,2,3,4,2,3,3,"65","female","woman","","78244",""
"7","sliderTrial","html-slider-response",36,279788,"0.0-36.0",NA,"656776a7904ae00d6b91d1dd","6568a9f37ea0b5e4d8b4ca44",7,NA,NA,NA,NA,NA,NA,NA,NA,NA,NA,NA,"4783","[""SV_PolicingMSA/MO_982/IMG_0_982.jpg"",""SV_PolicingMSA/MO_982/IMG_12_982.jpg"",""SV_PolicingMSA/MO_982/IMG_10_982.jpg"",""SV_PolicingMSA/MO_982/IMG_7_982.jpg"",""SV_PolicingMSA/MO_982/IMG_14_982.jpg"",""SV_PolicingMSA/MO_982/IMG_13_982.jpg"",""SV_PolicingMSA/MO_982/IMG_8_982.jpg"",""SV_PolicingMSA/MO_982/IMG_2_982.jpg""]","5",NA,NA,NA,NA,NA,2,NA,4,"[""./rc_img/cop_condGroup_17_SafeStreets_autoscaled.png"",""./rc_img/cop_condGroup_17_CommunitySafety_autoscaled.png""]",3,NA,NA,"MO_982/","MO_982",2,1,2,3,4,2,3,"MO_982",2,2,1,2,2,2,"MO_982",2,2,3,4,2,3,3,"65","female","woman","","78244",""
"8","sliderTrial","html-slider-response",37,282626,"0.0-37.0",NA,"656776a7904ae00d6b91d1dd","6568a9f37ea0b5e4d8b4ca44",7,NA,NA,NA,NA,NA,NA,NA,NA,NA,NA,NA,"2837","[""SV_PolicingMSA/MO_982/IMG_0_982.jpg"",""SV_PolicingMSA/MO_982/IMG_12_982.jpg"",""SV_PolicingMSA/MO_982/IMG_10_982.jpg"",""SV_PolicingMSA/MO_982/IMG_7_982.jpg"",""SV_PolicingMSA/MO_982/IMG_14_982.jpg"",""SV_PolicingMSA/MO_982/IMG_13_982.jpg"",""SV_PolicingMSA/MO_982/IMG_8_982.jpg"",""SV_PolicingMSA/MO_982/IMG_2_982.jpg""]","3",NA,NA,NA,NA,NA,2,NA,4,"[""./rc_img/cop_condGroup_9_CommunitySafety_autoscaled.png"",""./rc_img/cop_condGroup_9_SafeStreets_autoscaled.png""]",3,NA,NA,"MO_982/","MO_982",2,1,2,3,4,2,3,"MO_982",2,2,1,2,2,2,"MO_982",2,2,3,4,2,3,3,"65","female","woman","","78244",""
"9","sliderTrial","html-slider-response",38,286560,"0.0-38.0",NA,"656776a7904ae00d6b91d1dd","6568a9f37ea0b5e4d8b4ca44",7,NA,NA,NA,NA,NA,NA,NA,NA,NA,NA,NA,"3933","[""SV_PolicingMSA/MO_982/IMG_0_982.jpg"",""SV_PolicingMSA/MO_982/IMG_12_982.jpg"",""SV_PolicingMSA/MO_982/IMG_10_982.jpg"",""SV_PolicingMSA/MO_982/IMG_7_982.jpg"",""SV_PolicingMSA/MO_982/IMG_14_982.jpg"",""SV_PolicingMSA/MO_982/IMG_13_982.jpg"",""SV_PolicingMSA/MO_982/IMG_8_982.jpg"",""SV_PolicingMSA/MO_982/IMG_2_982.jpg""]","3",NA,NA,NA,NA,NA,2,NA,4,"[""./rc_img/cop_condGroup_3_CommunitySafety_autoscaled.png"",""./rc_img/cop_condGroup_3_SafeStreets_autoscaled.png""]",3,NA,NA,"MO_982/","MO_982",2,1,2,3,4,2,3,"MO_982",2,2,1,2,2,2,"MO_982",2,2,3,4,2,3,3,"65","female","woman","","78244",""
"10","sliderTrial","html-slider-response",39,289578,"0.0-39.0",NA,"656776a7904ae00d6b91d1dd","6568a9f37ea0b5e4d8b4ca44",7,NA,NA,NA,NA,NA,NA,NA,NA,NA,NA,NA,"3017","[""SV_PolicingMSA/MO_982/IMG_0_982.jpg"",""SV_PolicingMSA/MO_982/IMG_12_982.jpg"",""SV_PolicingMSA/MO_982/IMG_10_982.jpg"",""SV_PolicingMSA/MO_982/IMG_7_982.jpg"",""SV_PolicingMSA/MO_982/IMG_14_982.jpg"",""SV_PolicingMSA/MO_982/IMG_13_982.jpg"",""SV_PolicingMSA/MO_982/IMG_8_982.jpg"",""SV_PolicingMSA/MO_982/IMG_2_982.jpg""]","3",NA,NA,NA,NA,NA,2,NA,4,"[""./rc_img/cop_condGroup_11_CommunitySafety_autoscaled.png"",""./rc_img/cop_condGroup_11_SafeStreets_autoscaled.png""]",3,NA,NA,"MO_982/","MO_982",2,1,2,3,4,2,3,"MO_982",2,2,1,2,2,2,"MO_982",2,2,3,4,2,3,3,"65","female","woman","","78244",""
"11","sliderTrial","html-slider-response",52,345842,"0.0-52.0",NA,"656776a7904ae00d6b91d1dd","6568a9f37ea0b5e4d8b4ca44",7,NA,NA,NA,NA,NA,NA,NA,NA,NA,NA,NA,"3471","[""SV_PolicingMSA/MO_1278/IMG_6_1278.jpg"",""SV_PolicingMSA/MO_1278/IMG_0_1278.jpg"",""SV_PolicingMSA/MO_1278/IMG_14_1278.jpg"",""SV_PolicingMSA/MO_1278/IMG_4_1278.jpg"",""SV_PolicingMSA/MO_1278/IMG_9_1278.jpg"",""SV_PolicingMSA/MO_1278/IMG_1_1278.jpg"",""SV_PolicingMSA/MO_1278/IMG_2_1278.jpg"",""SV_PolicingMSA/MO_1278/IMG_12_1278.jpg""]","1",NA,NA,NA,NA,NA,5,NA,4,"[""./rc_img/cop_condGroup_15_CommunitySafety_autoscaled.png"",""./rc_img/cop_condGroup_15_SafeStreets_autoscaled.png""]",1,NA,NA,"MO_1278","MO_1278",5,2,3,4,3,2,8,"MO_1278",5,1,1,2,2,3,"MO_1278",5,4,1,4,3,4,4,"65","female","woman","","78244",""
"12","sliderTrial","html-slider-response",53,348850,"0.0-53.0",NA,"656776a7904ae00d6b91d1dd","6568a9f37ea0b5e4d8b4ca44",7,NA,NA,NA,NA,NA,NA,NA,NA,NA,NA,NA,"3007","[""SV_PolicingMSA/MO_1278/IMG_6_1278.jpg"",""SV_PolicingMSA/MO_1278/IMG_0_1278.jpg"",""SV_PolicingMSA/MO_1278/IMG_14_1278.jpg"",""SV_PolicingMSA/MO_1278/IMG_4_1278.jpg"",""SV_PolicingMSA/MO_1278/IMG_9_1278.jpg"",""SV_PolicingMSA/MO_1278/IMG_1_1278.jpg"",""SV_PolicingMSA/MO_1278/IMG_2_1278.jpg"",""SV_PolicingMSA/MO_1278/IMG_12_1278.jpg""]","7",NA,NA,NA,NA,NA,5,NA,4,"[""./rc_img/cop_condGroup_16_SafeStreets_autoscaled.png"",""./rc_img/cop_condGroup_16_CommunitySafety_autoscaled.png""]",1,NA,NA,"MO_1278","MO_1278",5,2,3,4,3,2,8,"MO_1278",5,1,1,2,2,3,"MO_1278",5,4,1,4,3,4,4,"65","female","woman","","78244",""
"13","sliderTrial","html-slider-response",54,352350,"0.0-54.0",NA,"656776a7904ae00d6b91d1dd","6568a9f37ea0b5e4d8b4ca44",7,NA,NA,NA,NA,NA,NA,NA,NA,NA,NA,NA,"3499","[""SV_PolicingMSA/MO_1278/IMG_6_1278.jpg"",""SV_PolicingMSA/MO_1278/IMG_0_1278.jpg"",""SV_PolicingMSA/MO_1278/IMG_14_1278.jpg"",""SV_PolicingMSA/MO_1278/IMG_4_1278.jpg"",""SV_PolicingMSA/MO_1278/IMG_9_1278.jpg"",""SV_PolicingMSA/MO_1278/IMG_1_1278.jpg"",""SV_PolicingMSA/MO_1278/IMG_2_1278.jpg"",""SV_PolicingMSA/MO_1278/IMG_12_1278.jpg""]","7",NA,NA,NA,NA,NA,5,NA,4,"[""./rc_img/cop_condGroup_2_SafeStreets_autoscaled.png"",""./rc_img/cop_condGroup_2_CommunitySafety_autoscaled.png""]",1,NA,NA,"MO_1278","MO_1278",5,2,3,4,3,2,8,"MO_1278",5,1,1,2,2,3,"MO_1278",5,4,1,4,3,4,4,"65","female","woman","","78244",""
"14","sliderTrial","html-slider-response",55,355002,"0.0-55.0",NA,"656776a7904ae00d6b91d1dd","6568a9f37ea0b5e4d8b4ca44",7,NA,NA,NA,NA,NA,NA,NA,NA,NA,NA,NA,"2651","[""SV_PolicingMSA/MO_1278/IMG_6_1278.jpg"",""SV_PolicingMSA/MO_1278/IMG_0_1278.jpg"",""SV_PolicingMSA/MO_1278/IMG_14_1278.jpg"",""SV_PolicingMSA/MO_1278/IMG_4_1278.jpg"",""SV_PolicingMSA/MO_1278/IMG_9_1278.jpg"",""SV_PolicingMSA/MO_1278/IMG_1_1278.jpg"",""SV_PolicingMSA/MO_1278/IMG_2_1278.jpg"",""SV_PolicingMSA/MO_1278/IMG_12_1278.jpg""]","7",NA,NA,NA,NA,NA,5,NA,4,"[""./rc_img/cop_condGroup_14_SafeStreets_autoscaled.png"",""./rc_img/cop_condGroup_14_CommunitySafety_autoscaled.png""]",1,NA,NA,"MO_1278","MO_1278",5,2,3,4,3,2,8,"MO_1278",5,1,1,2,2,3,"MO_1278",5,4,1,4,3,4,4,"65","female","woman","","78244",""
"15","sliderTrial","html-slider-response",56,357880,"0.0-56.0",NA,"656776a7904ae00d6b91d1dd","6568a9f37ea0b5e4d8b4ca44",7,NA,NA,NA,NA,NA,NA,NA,NA,NA,NA,NA,"2877","[""SV_PolicingMSA/MO_1278/IMG_6_1278.jpg"",""SV_PolicingMSA/MO_1278/IMG_0_1278.jpg"",""SV_PolicingMSA/MO_1278/IMG_14_1278.jpg"",""SV_PolicingMSA/MO_1278/IMG_4_1278.jpg"",""SV_PolicingMSA/MO_1278/IMG_9_1278.jpg"",""SV_PolicingMSA/MO_1278/IMG_1_1278.jpg"",""SV_PolicingMSA/MO_1278/IMG_2_1278.jpg"",""SV_PolicingMSA/MO_1278/IMG_12_1278.jpg""]","7",NA,NA,NA,NA,NA,5,NA,4,"[""./rc_img/cop_condGroup_1_SafeStreets_autoscaled.png"",""./rc_img/cop_condGroup_1_CommunitySafety_autoscaled.png""]",1,NA,NA,"MO_1278","MO_1278",5,2,3,4,3,2,8,"MO_1278",5,1,1,2,2,3,"MO_1278",5,4,1,4,3,4,4,"65","female","woman","","78244",""
"16","sliderTrial_attention","html-slider-response",69,418020,"0.0-69.0",NA,"656776a7904ae00d6b91d1dd","6568a9f37ea0b5e4d8b4ca44",7,NA,NA,NA,NA,NA,NA,NA,NA,NA,NA,NA,"null","[""SV_PolicingMSA/MO_1004/IMG_5_1004.jpg"",""SV_PolicingMSA/MO_1004/IMG_3_1004.jpg"",""SV_PolicingMSA/MO_1004/IMG_0_1004.jpg"",""SV_PolicingMSA/MO_1004/IMG_14_1004.jpg"",""SV_PolicingMSA/MO_1004/IMG_6_1004.jpg"",""SV_PolicingMSA/MO_1004/IMG_9_1004.jpg"",""SV_PolicingMSA/MO_1004/IMG_12_1004.jpg"",""SV_PolicingMSA/MO_1004/IMG_1_1004.jpg""]","null",NA,NA,NA,NA,NA,1,NA,4,"[""./assets/img/attnchk.png"",""./assets/img/attnchk.png""]",NA,TRUE,NA,"MO_1004","MO_1004",1,1,3,4,4,3,2,"MO_1004",1,1,1,2,2,2,"MO_1004",1,2,1,4,2,3,3,"65","female","woman","","78244",""
"17","sliderTrial","html-slider-response",70,423530,"0.0-70.0",NA,"656776a7904ae00d6b91d1dd","6568a9f37ea0b5e4d8b4ca44",7,NA,NA,NA,NA,NA,NA,NA,NA,NA,NA,NA,"5509","[""SV_PolicingMSA/MO_1004/IMG_5_1004.jpg"",""SV_PolicingMSA/MO_1004/IMG_3_1004.jpg"",""SV_PolicingMSA/MO_1004/IMG_0_1004.jpg"",""SV_PolicingMSA/MO_1004/IMG_14_1004.jpg"",""SV_PolicingMSA/MO_1004/IMG_6_1004.jpg"",""SV_PolicingMSA/MO_1004/IMG_9_1004.jpg"",""SV_PolicingMSA/MO_1004/IMG_12_1004.jpg"",""SV_PolicingMSA/MO_1004/IMG_1_1004.jpg""]","2",NA,NA,NA,NA,NA,1,NA,4,"[""./rc_img/cop_condGroup_5_CommunitySafety_autoscaled.png"",""./rc_img/cop_condGroup_5_SafeStreets_autoscaled.png""]",2,NA,NA,"MO_1004","MO_1004",1,1,3,4,4,3,2,"MO_1004",1,1,1,2,2,2,"MO_1004",1,2,1,4,2,3,3,"65","female","woman","","78244",""
"18","sliderTrial","html-slider-response",71,427542,"0.0-71.0",NA,"656776a7904ae00d6b91d1dd","6568a9f37ea0b5e4d8b4ca44",7,NA,NA,NA,NA,NA,NA,NA,NA,NA,NA,NA,"4011","[""SV_PolicingMSA/MO_1004/IMG_5_1004.jpg"",""SV_PolicingMSA/MO_1004/IMG_3_1004.jpg"",""SV_PolicingMSA/MO_1004/IMG_0_1004.jpg"",""SV_PolicingMSA/MO_1004/IMG_14_1004.jpg"",""SV_PolicingMSA/MO_1004/IMG_6_1004.jpg"",""SV_PolicingMSA/MO_1004/IMG_9_1004.jpg"",""SV_PolicingMSA/MO_1004/IMG_12_1004.jpg"",""SV_PolicingMSA/MO_1004/IMG_1_1004.jpg""]","2",NA,NA,NA,NA,NA,1,NA,4,"[""./rc_img/cop_condGroup_18_CommunitySafety_autoscaled.png"",""./rc_img/cop_condGroup_18_SafeStreets_autoscaled.png""]",2,NA,NA,"MO_1004","MO_1004",1,1,3,4,4,3,2,"MO_1004",1,1,1,2,2,2,"MO_1004",1,2,1,4,2,3,3,"65","female","woman","","78244",""
"19","sliderTrial","html-slider-response",72,430452,"0.0-72.0",NA,"656776a7904ae00d6b91d1dd","6568a9f37ea0b5e4d8b4ca44",7,NA,NA,NA,NA,NA,NA,NA,NA,NA,NA,NA,"2909","[""SV_PolicingMSA/MO_1004/IMG_5_1004.jpg"",""SV_PolicingMSA/MO_1004/IMG_3_1004.jpg"",""SV_PolicingMSA/MO_1004/IMG_0_1004.jpg"",""SV_PolicingMSA/MO_1004/IMG_14_1004.jpg"",""SV_PolicingMSA/MO_1004/IMG_6_1004.jpg"",""SV_PolicingMSA/MO_1004/IMG_9_1004.jpg"",""SV_PolicingMSA/MO_1004/IMG_12_1004.jpg"",""SV_PolicingMSA/MO_1004/IMG_1_1004.jpg""]","3",NA,NA,NA,NA,NA,1,NA,4,"[""./rc_img/cop_condGroup_8_CommunitySafety_autoscaled.png"",""./rc_img/cop_condGroup_8_SafeStreets_autoscaled.png""]",3,NA,NA,"MO_1004","MO_1004",1,1,3,4,4,3,2,"MO_1004",1,1,1,2,2,2,"MO_1004",1,2,1,4,2,3,3,"65","female","woman","","78244",""
"20","sliderTrial","html-slider-response",73,433282,"0.0-73.0",NA,"656776a7904ae00d6b91d1dd","6568a9f37ea0b5e4d8b4ca44",7,NA,NA,NA,NA,NA,NA,NA,NA,NA,NA,NA,"2829","[""SV_PolicingMSA/MO_1004/IMG_5_1004.jpg"",""SV_PolicingMSA/MO_1004/IMG_3_1004.jpg"",""SV_PolicingMSA/MO_1004/IMG_0_1004.jpg"",""SV_PolicingMSA/MO_1004/IMG_14_1004.jpg"",""SV_PolicingMSA/MO_1004/IMG_6_1004.jpg"",""SV_PolicingMSA/MO_1004/IMG_9_1004.jpg"",""SV_PolicingMSA/MO_1004/IMG_12_1004.jpg"",""SV_PolicingMSA/MO_1004/IMG_1_1004.jpg""]","5",NA,NA,NA,NA,NA,1,NA,4,"[""./rc_img/cop_condGroup_6_SafeStreets_autoscaled.png"",""./rc_img/cop_condGroup_6_CommunitySafety_autoscaled.png""]",3,NA,NA,"MO_1004","MO_1004",1,1,3,4,4,3,2,"MO_1004",1,1,1,2,2,2,"MO_1004",1,2,1,4,2,3,3,"65","female","woman","","78244",""
"21","sliderTrial","html-slider-response",74,435732,"0.0-74.0",NA,"656776a7904ae00d6b91d1dd","6568a9f37ea0b5e4d8b4ca44",7,NA,NA,NA,NA,NA,NA,NA,NA,NA,NA,NA,"2449","[""SV_PolicingMSA/MO_1004/IMG_5_1004.jpg"",""SV_PolicingMSA/MO_1004/IMG_3_1004.jpg"",""SV_PolicingMSA/MO_1004/IMG_0_1004.jpg"",""SV_PolicingMSA/MO_1004/IMG_14_1004.jpg"",""SV_PolicingMSA/MO_1004/IMG_6_1004.jpg"",""SV_PolicingMSA/MO_1004/IMG_9_1004.jpg"",""SV_PolicingMSA/MO_1004/IMG_12_1004.jpg"",""SV_PolicingMSA/MO_1004/IMG_1_1004.jpg""]","5",NA,NA,NA,NA,NA,1,NA,4,"[""./rc_img/cop_condGroup_4_SafeStreets_autoscaled.png"",""./rc_img/cop_condGroup_4_CommunitySafety_autoscaled.png""]",3,NA,NA,"MO_1004","MO_1004",1,1,3,4,4,3,2,"MO_1004",1,1,1,2,2,2,"MO_1004",1,2,1,4,2,3,3,"65","female","woman","","78244",""
"22","sliderTrial","html-slider-response",88,507032,"0.0-88.0",NA,"656776a7904ae00d6b91d1dd","6568a9f37ea0b5e4d8b4ca44",7,NA,NA,NA,NA,NA,NA,NA,NA,NA,NA,NA,"3850","[""SV_PolicingMSA/MO_60/IMG_7_60.jpg"",""SV_PolicingMSA/MO_60/IMG_10_60.jpg"",""SV_PolicingMSA/MO_60/IMG_14_60.jpg"",""SV_PolicingMSA/MO_60/IMG_3_60.jpg"",""SV_PolicingMSA/MO_60/IMG_0_60.jpg"",""SV_PolicingMSA/MO_60/IMG_12_60.jpg"",""SV_PolicingMSA/MO_60/IMG_5_60.jpg"",""SV_PolicingMSA/MO_60/IMG_13_60.jpg""]","7",NA,NA,NA,NA,NA,4,NA,4,"[""./rc_img/cop_condGroup_19_SafeStreets_autoscaled.png"",""./rc_img/cop_condGroup_19_CommunitySafety_autoscaled.png""]",1,NA,NA,"MO_60/I","MO_60I",4,3,4,4,4,1,7,"MO_60I",4,1,1,2,3,3,"MO_60I",4,4,0,4,3,4,4,"65","female","woman","","78244",""
"23","sliderTrial","html-slider-response",89,511052,"0.0-89.0",NA,"656776a7904ae00d6b91d1dd","6568a9f37ea0b5e4d8b4ca44",7,NA,NA,NA,NA,NA,NA,NA,NA,NA,NA,NA,"4019","[""SV_PolicingMSA/MO_60/IMG_7_60.jpg"",""SV_PolicingMSA/MO_60/IMG_10_60.jpg"",""SV_PolicingMSA/MO_60/IMG_14_60.jpg"",""SV_PolicingMSA/MO_60/IMG_3_60.jpg"",""SV_PolicingMSA/MO_60/IMG_0_60.jpg"",""SV_PolicingMSA/MO_60/IMG_12_60.jpg"",""SV_PolicingMSA/MO_60/IMG_5_60.jpg"",""SV_PolicingMSA/MO_60/IMG_13_60.jpg""]","7",NA,NA,NA,NA,NA,4,NA,4,"[""./rc_img/cop_condGroup_17_SafeStreets_autoscaled.png"",""./rc_img/cop_condGroup_17_CommunitySafety_autoscaled.png""]",1,NA,NA,"MO_60/I","MO_60I",4,3,4,4,4,1,7,"MO_60I",4,1,1,2,3,3,"MO_60I",4,4,0,4,3,4,4,"65","female","woman","","78244",""
"24","sliderTrial","html-slider-response",90,514374,"0.0-90.0",NA,"656776a7904ae00d6b91d1dd","6568a9f37ea0b5e4d8b4ca44",7,NA,NA,NA,NA,NA,NA,NA,NA,NA,NA,NA,"3321","[""SV_PolicingMSA/MO_60/IMG_7_60.jpg"",""SV_PolicingMSA/MO_60/IMG_10_60.jpg"",""SV_PolicingMSA/MO_60/IMG_14_60.jpg"",""SV_PolicingMSA/MO_60/IMG_3_60.jpg"",""SV_PolicingMSA/MO_60/IMG_0_60.jpg"",""SV_PolicingMSA/MO_60/IMG_12_60.jpg"",""SV_PolicingMSA/MO_60/IMG_5_60.jpg"",""SV_PolicingMSA/MO_60/IMG_13_60.jpg""]","1",NA,NA,NA,NA,NA,4,NA,4,"[""./rc_img/cop_condGroup_9_CommunitySafety_autoscaled.png"",""./rc_img/cop_condGroup_9_SafeStreets_autoscaled.png""]",1,NA,NA,"MO_60/I","MO_60I",4,3,4,4,4,1,7,"MO_60I",4,1,1,2,3,3,"MO_60I",4,4,0,4,3,4,4,"65","female","woman","","78244",""
"25","sliderTrial","html-slider-response",91,517498,"0.0-91.0",NA,"656776a7904ae00d6b91d1dd","6568a9f37ea0b5e4d8b4ca44",7,NA,NA,NA,NA,NA,NA,NA,NA,NA,NA,NA,"3123","[""SV_PolicingMSA/MO_60/IMG_7_60.jpg"",""SV_PolicingMSA/MO_60/IMG_10_60.jpg"",""SV_PolicingMSA/MO_60/IMG_14_60.jpg"",""SV_PolicingMSA/MO_60/IMG_3_60.jpg"",""SV_PolicingMSA/MO_60/IMG_0_60.jpg"",""SV_PolicingMSA/MO_60/IMG_12_60.jpg"",""SV_PolicingMSA/MO_60/IMG_5_60.jpg"",""SV_PolicingMSA/MO_60/IMG_13_60.jpg""]","2",NA,NA,NA,NA,NA,4,NA,4,"[""./rc_img/cop_condGroup_3_CommunitySafety_autoscaled.png"",""./rc_img/cop_condGroup_3_SafeStreets_autoscaled.png""]",2,NA,NA,"MO_60/I","MO_60I",4,3,4,4,4,1,7,"MO_60I",4,1,1,2,3,3,"MO_60I",4,4,0,4,3,4,4,"65","female","woman","","78244",""
"26","sliderTrial","html-slider-response",92,521604,"0.0-92.0",NA,"656776a7904ae00d6b91d1dd","6568a9f37ea0b5e4d8b4ca44",7,NA,NA,NA,NA,NA,NA,NA,NA,NA,NA,NA,"4105","[""SV_PolicingMSA/MO_60/IMG_7_60.jpg"",""SV_PolicingMSA/MO_60/IMG_10_60.jpg"",""SV_PolicingMSA/MO_60/IMG_14_60.jpg"",""SV_PolicingMSA/MO_60/IMG_3_60.jpg"",""SV_PolicingMSA/MO_60/IMG_0_60.jpg"",""SV_PolicingMSA/MO_60/IMG_12_60.jpg"",""SV_PolicingMSA/MO_60/IMG_5_60.jpg"",""SV_PolicingMSA/MO_60/IMG_13_60.jpg""]","2",NA,NA,NA,NA,NA,4,NA,4,"[""./rc_img/cop_condGroup_11_CommunitySafety_autoscaled.png"",""./rc_img/cop_condGroup_11_SafeStreets_autoscaled.png""]",2,NA,NA,"MO_60/I","MO_60I",4,3,4,4,4,1,7,"MO_60I",4,1,1,2,3,3,"MO_60I",4,4,0,4,3,4,4,"65","female","woman","","78244",""
"27","sliderTrial","html-slider-response",105,573548,"0.0-105.0",NA,"656776a7904ae00d6b91d1dd","6568a9f37ea0b5e4d8b4ca44",7,NA,NA,NA,NA,NA,NA,NA,NA,NA,NA,NA,"3415","[""SV_PolicingMSA/MO_589/IMG_13_589.jpg"",""SV_PolicingMSA/MO_589/IMG_8_589.jpg"",""SV_PolicingMSA/MO_589/IMG_4_589.jpg"",""SV_PolicingMSA/MO_589/IMG_1_589.jpg"",""SV_PolicingMSA/MO_589/IMG_10_589.jpg"",""SV_PolicingMSA/MO_589/IMG_9_589.jpg"",""SV_PolicingMSA/MO_589/IMG_0_589.jpg"",""SV_PolicingMSA/MO_589/IMG_12_589.jpg""]","1",NA,NA,NA,NA,NA,2,NA,4,"[""./rc_img/cop_condGroup_12_CommunitySafety_autoscaled.png"",""./rc_img/cop_condGroup_12_SafeStreets_autoscaled.png""]",1,NA,NA,"MO_589/","MO_589",2,3,4,4,3,2,4,"MO_589",2,0,0,1,4,3,"MO_589",2,4,0,4,4,4,4,"65","female","woman","","78244",""
"28","sliderTrial","html-slider-response",106,577460,"0.0-106.0",NA,"656776a7904ae00d6b91d1dd","6568a9f37ea0b5e4d8b4ca44",7,NA,NA,NA,NA,NA,NA,NA,NA,NA,NA,NA,"3911","[""SV_PolicingMSA/MO_589/IMG_13_589.jpg"",""SV_PolicingMSA/MO_589/IMG_8_589.jpg"",""SV_PolicingMSA/MO_589/IMG_4_589.jpg"",""SV_PolicingMSA/MO_589/IMG_1_589.jpg"",""SV_PolicingMSA/MO_589/IMG_10_589.jpg"",""SV_PolicingMSA/MO_589/IMG_9_589.jpg"",""SV_PolicingMSA/MO_589/IMG_0_589.jpg"",""SV_PolicingMSA/MO_589/IMG_12_589.jpg""]","7",NA,NA,NA,NA,NA,2,NA,4,"[""./rc_img/cop_condGroup_13_SafeStreets_autoscaled.png"",""./rc_img/cop_condGroup_13_CommunitySafety_autoscaled.png""]",1,NA,NA,"MO_589/","MO_589",2,3,4,4,3,2,4,"MO_589",2,0,0,1,4,3,"MO_589",2,4,0,4,4,4,4,"65","female","woman","","78244",""
"29","sliderTrial","html-slider-response",107,581058,"0.0-107.0",NA,"656776a7904ae00d6b91d1dd","6568a9f37ea0b5e4d8b4ca44",7,NA,NA,NA,NA,NA,NA,NA,NA,NA,NA,NA,"3597","[""SV_PolicingMSA/MO_589/IMG_13_589.jpg"",""SV_PolicingMSA/MO_589/IMG_8_589.jpg"",""SV_PolicingMSA/MO_589/IMG_4_589.jpg"",""SV_PolicingMSA/MO_589/IMG_1_589.jpg"",""SV_PolicingMSA/MO_589/IMG_10_589.jpg"",""SV_PolicingMSA/MO_589/IMG_9_589.jpg"",""SV_PolicingMSA/MO_589/IMG_0_589.jpg"",""SV_PolicingMSA/MO_589/IMG_12_589.jpg""]","7",NA,NA,NA,NA,NA,2,NA,4,"[""./rc_img/cop_condGroup_7_SafeStreets_autoscaled.png"",""./rc_img/cop_condGroup_7_CommunitySafety_autoscaled.png""]",1,NA,NA,"MO_589/","MO_589",2,3,4,4,3,2,4,"MO_589",2,0,0,1,4,3,"MO_589",2,4,0,4,4,4,4,"65","female","woman","","78244",""
"30","sliderTrial","html-slider-response",108,584550,"0.0-108.0",NA,"656776a7904ae00d6b91d1dd","6568a9f37ea0b5e4d8b4ca44",7,NA,NA,NA,NA,NA,NA,NA,NA,NA,NA,NA,"3491","[""SV_PolicingMSA/MO_589/IMG_13_589.jpg"",""SV_PolicingMSA/MO_589/IMG_8_589.jpg"",""SV_PolicingMSA/MO_589/IMG_4_589.jpg"",""SV_PolicingMSA/MO_589/IMG_1_589.jpg"",""SV_PolicingMSA/MO_589/IMG_10_589.jpg"",""SV_PolicingMSA/MO_589/IMG_9_589.jpg"",""SV_PolicingMSA/MO_589/IMG_0_589.jpg"",""SV_PolicingMSA/MO_589/IMG_12_589.jpg""]","7",NA,NA,NA,NA,NA,2,NA,4,"[""./rc_img/cop_condGroup_20_SafeStreets_autoscaled.png"",""./rc_img/cop_condGroup_20_CommunitySafety_autoscaled.png""]",1,NA,NA,"MO_589/","MO_589",2,3,4,4,3,2,4,"MO_589",2,0,0,1,4,3,"MO_589",2,4,0,4,4,4,4,"65","female","woman","","78244",""
"31","sliderTrial","html-slider-response",109,587232,"0.0-109.0",NA,"656776a7904ae00d6b91d1dd","6568a9f37ea0b5e4d8b4ca44",7,NA,NA,NA,NA,NA,NA,NA,NA,NA,NA,NA,"2681","[""SV_PolicingMSA/MO_589/IMG_13_589.jpg"",""SV_PolicingMSA/MO_589/IMG_8_589.jpg"",""SV_PolicingMSA/MO_589/IMG_4_589.jpg"",""SV_PolicingMSA/MO_589/IMG_1_589.jpg"",""SV_PolicingMSA/MO_589/IMG_10_589.jpg"",""SV_PolicingMSA/MO_589/IMG_9_589.jpg"",""SV_PolicingMSA/MO_589/IMG_0_589.jpg"",""SV_PolicingMSA/MO_589/IMG_12_589.jpg""]","7",NA,NA,NA,NA,NA,2,NA,4,"[""./rc_img/cop_condGroup_10_SafeStreets_autoscaled.png"",""./rc_img/cop_condGroup_10_CommunitySafety_autoscaled.png""]",1,NA,NA,"MO_589/","MO_589",2,3,4,4,3,2,4,"MO_589",2,0,0,1,4,3,"MO_589",2,4,0,4,4,4,4,"65","female","woman","","78244",""
"32","sliderTrial_attention","html-slider-response",122,641953,"0.0-122.0",NA,"656776a7904ae00d6b91d1dd","6568a9f37ea0b5e4d8b4ca44",7,NA,NA,NA,NA,NA,NA,NA,NA,NA,NA,NA,"null","[""SV_PolicingMSA/MO_1031/IMG_13_1031.jpg"",""SV_PolicingMSA/MO_1031/IMG_9_1031.jpg"",""SV_PolicingMSA/MO_1031/IMG_12_1031.jpg"",""SV_PolicingMSA/MO_1031/IMG_11_1031.jpg"",""SV_PolicingMSA/MO_1031/IMG_7_1031.jpg"",""SV_PolicingMSA/MO_1031/IMG_0_1031.jpg"",""SV_PolicingMSA/MO_1031/IMG_3_1031.jpg"",""SV_PolicingMSA/MO_1031/IMG_2_1031.jpg""]","null",NA,NA,NA,NA,NA,0,NA,4,"[""./assets/img/attnchk.png"",""./assets/img/attnchk.png""]",NA,TRUE,NA,"MO_1031","MO_1031",0,2,3,3,3,3,1,"MO_1031",0,2,2,2,2,2,"MO_1031",0,3,1,4,2,4,4,"65","female","woman","","78244",""
"33","sliderTrial","html-slider-response",123,646142,"0.0-123.0",NA,"656776a7904ae00d6b91d1dd","6568a9f37ea0b5e4d8b4ca44",7,NA,NA,NA,NA,NA,NA,NA,NA,NA,NA,NA,"4185","[""SV_PolicingMSA/MO_1031/IMG_13_1031.jpg"",""SV_PolicingMSA/MO_1031/IMG_9_1031.jpg"",""SV_PolicingMSA/MO_1031/IMG_12_1031.jpg"",""SV_PolicingMSA/MO_1031/IMG_11_1031.jpg"",""SV_PolicingMSA/MO_1031/IMG_7_1031.jpg"",""SV_PolicingMSA/MO_1031/IMG_0_1031.jpg"",""SV_PolicingMSA/MO_1031/IMG_3_1031.jpg"",""SV_PolicingMSA/MO_1031/IMG_2_1031.jpg""]","1",NA,NA,NA,NA,NA,0,NA,4,"[""./rc_img/cop_condGroup_12_CommunitySafety_autoscaled.png"",""./rc_img/cop_condGroup_12_SafeStreets_autoscaled.png""]",1,NA,NA,"MO_1031","MO_1031",0,2,3,3,3,3,1,"MO_1031",0,2,2,2,2,2,"MO_1031",0,3,1,4,2,4,4,"65","female","woman","","78244",""
"34","sliderTrial","html-slider-response",124,651010,"0.0-124.0",NA,"656776a7904ae00d6b91d1dd","6568a9f37ea0b5e4d8b4ca44",7,NA,NA,NA,NA,NA,NA,NA,NA,NA,NA,NA,"4867","[""SV_PolicingMSA/MO_1031/IMG_13_1031.jpg"",""SV_PolicingMSA/MO_1031/IMG_9_1031.jpg"",""SV_PolicingMSA/MO_1031/IMG_12_1031.jpg"",""SV_PolicingMSA/MO_1031/IMG_11_1031.jpg"",""SV_PolicingMSA/MO_1031/IMG_7_1031.jpg"",""SV_PolicingMSA/MO_1031/IMG_0_1031.jpg"",""SV_PolicingMSA/MO_1031/IMG_3_1031.jpg"",""SV_PolicingMSA/MO_1031/IMG_2_1031.jpg""]","7",NA,NA,NA,NA,NA,0,NA,4,"[""./rc_img/cop_condGroup_13_SafeStreets_autoscaled.png"",""./rc_img/cop_condGroup_13_CommunitySafety_autoscaled.png""]",1,NA,NA,"MO_1031","MO_1031",0,2,3,3,3,3,1,"MO_1031",0,2,2,2,2,2,"MO_1031",0,3,1,4,2,4,4,"65","female","woman","","78244",""
"35","sliderTrial","html-slider-response",125,654136,"0.0-125.0",NA,"656776a7904ae00d6b91d1dd","6568a9f37ea0b5e4d8b4ca44",7,NA,NA,NA,NA,NA,NA,NA,NA,NA,NA,NA,"3125","[""SV_PolicingMSA/MO_1031/IMG_13_1031.jpg"",""SV_PolicingMSA/MO_1031/IMG_9_1031.jpg"",""SV_PolicingMSA/MO_1031/IMG_12_1031.jpg"",""SV_PolicingMSA/MO_1031/IMG_11_1031.jpg"",""SV_PolicingMSA/MO_1031/IMG_7_1031.jpg"",""SV_PolicingMSA/MO_1031/IMG_0_1031.jpg"",""SV_PolicingMSA/MO_1031/IMG_3_1031.jpg"",""SV_PolicingMSA/MO_1031/IMG_2_1031.jpg""]","7",NA,NA,NA,NA,NA,0,NA,4,"[""./rc_img/cop_condGroup_7_SafeStreets_autoscaled.png"",""./rc_img/cop_condGroup_7_CommunitySafety_autoscaled.png""]",1,NA,NA,"MO_1031","MO_1031",0,2,3,3,3,3,1,"MO_1031",0,2,2,2,2,2,"MO_1031",0,3,1,4,2,4,4,"65","female","woman","","78244",""
"36","sliderTrial","html-slider-response",126,656508,"0.0-126.0",NA,"656776a7904ae00d6b91d1dd","6568a9f37ea0b5e4d8b4ca44",7,NA,NA,NA,NA,NA,NA,NA,NA,NA,NA,NA,"2371","[""SV_PolicingMSA/MO_1031/IMG_13_1031.jpg"",""SV_PolicingMSA/MO_1031/IMG_9_1031.jpg"",""SV_PolicingMSA/MO_1031/IMG_12_1031.jpg"",""SV_PolicingMSA/MO_1031/IMG_11_1031.jpg"",""SV_PolicingMSA/MO_1031/IMG_7_1031.jpg"",""SV_PolicingMSA/MO_1031/IMG_0_1031.jpg"",""SV_PolicingMSA/MO_1031/IMG_3_1031.jpg"",""SV_PolicingMSA/MO_1031/IMG_2_1031.jpg""]","7",NA,NA,NA,NA,NA,0,NA,4,"[""./rc_img/cop_condGroup_20_SafeStreets_autoscaled.png"",""./rc_img/cop_condGroup_20_CommunitySafety_autoscaled.png""]",1,NA,NA,"MO_1031","MO_1031",0,2,3,3,3,3,1,"MO_1031",0,2,2,2,2,2,"MO_1031",0,3,1,4,2,4,4,"65","female","woman","","78244",""
"37","sliderTrial","html-slider-response",127,659222,"0.0-127.0",NA,"656776a7904ae00d6b91d1dd","6568a9f37ea0b5e4d8b4ca44",7,NA,NA,NA,NA,NA,NA,NA,NA,NA,NA,NA,"2713","[""SV_PolicingMSA/MO_1031/IMG_13_1031.jpg"",""SV_PolicingMSA/MO_1031/IMG_9_1031.jpg"",""SV_PolicingMSA/MO_1031/IMG_12_1031.jpg"",""SV_PolicingMSA/MO_1031/IMG_11_1031.jpg"",""SV_PolicingMSA/MO_1031/IMG_7_1031.jpg"",""SV_PolicingMSA/MO_1031/IMG_0_1031.jpg"",""SV_PolicingMSA/MO_1031/IMG_3_1031.jpg"",""SV_PolicingMSA/MO_1031/IMG_2_1031.jpg""]","7",NA,NA,NA,NA,NA,0,NA,4,"[""./rc_img/cop_condGroup_10_SafeStreets_autoscaled.png"",""./rc_img/cop_condGroup_10_CommunitySafety_autoscaled.png""]",1,NA,NA,"MO_1031","MO_1031",0,2,3,3,3,3,1,"MO_1031",0,2,2,2,2,2,"MO_1031",0,3,1,4,2,4,4,"65","female","woman","","78244",""
"38","sliderTrial","html-slider-response",140,708282,"0.0-140.0",NA,"656776a7904ae00d6b91d1dd","6568a9f37ea0b5e4d8b4ca44",7,NA,NA,NA,NA,NA,NA,NA,NA,NA,NA,NA,"3947","[""SV_PolicingMSA/MO_1289/IMG_7_1289.jpg"",""SV_PolicingMSA/MO_1289/IMG_11_1289.jpg"",""SV_PolicingMSA/MO_1289/IMG_5_1289.jpg"",""SV_PolicingMSA/MO_1289/IMG_4_1289.jpg"",""SV_PolicingMSA/MO_1289/IMG_6_1289.jpg"",""SV_PolicingMSA/MO_1289/IMG_3_1289.jpg"",""SV_PolicingMSA/MO_1289/IMG_1_1289.jpg"",""SV_PolicingMSA/MO_1289/IMG_8_1289.jpg""]","2",NA,NA,NA,NA,NA,3,NA,4,"[""./rc_img/cop_condGroup_5_CommunitySafety_autoscaled.png"",""./rc_img/cop_condGroup_5_SafeStreets_autoscaled.png""]",2,NA,NA,"MO_1289","MO_1289",3,1,3,4,4,3,6,"MO_1289",3,1,1,2,2,2,"MO_1289",3,4,1,4,2,4,4,"65","female","woman","","78244",""
"39","sliderTrial","html-slider-response",141,711284,"0.0-141.0",NA,"656776a7904ae00d6b91d1dd","6568a9f37ea0b5e4d8b4ca44",7,NA,NA,NA,NA,NA,NA,NA,NA,NA,NA,NA,"3000","[""SV_PolicingMSA/MO_1289/IMG_7_1289.jpg"",""SV_PolicingMSA/MO_1289/IMG_11_1289.jpg"",""SV_PolicingMSA/MO_1289/IMG_5_1289.jpg"",""SV_PolicingMSA/MO_1289/IMG_4_1289.jpg"",""SV_PolicingMSA/MO_1289/IMG_6_1289.jpg"",""SV_PolicingMSA/MO_1289/IMG_3_1289.jpg"",""SV_PolicingMSA/MO_1289/IMG_1_1289.jpg"",""SV_PolicingMSA/MO_1289/IMG_8_1289.jpg""]","2",NA,NA,NA,NA,NA,3,NA,4,"[""./rc_img/cop_condGroup_18_CommunitySafety_autoscaled.png"",""./rc_img/cop_condGroup_18_SafeStreets_autoscaled.png""]",2,NA,NA,"MO_1289","MO_1289",3,1,3,4,4,3,6,"MO_1289",3,1,1,2,2,2,"MO_1289",3,4,1,4,2,4,4,"65","female","woman","","78244",""
"40","sliderTrial","html-slider-response",142,713602,"0.0-142.0",NA,"656776a7904ae00d6b91d1dd","6568a9f37ea0b5e4d8b4ca44",7,NA,NA,NA,NA,NA,NA,NA,NA,NA,NA,NA,"2317","[""SV_PolicingMSA/MO_1289/IMG_7_1289.jpg"",""SV_PolicingMSA/MO_1289/IMG_11_1289.jpg"",""SV_PolicingMSA/MO_1289/IMG_5_1289.jpg"",""SV_PolicingMSA/MO_1289/IMG_4_1289.jpg"",""SV_PolicingMSA/MO_1289/IMG_6_1289.jpg"",""SV_PolicingMSA/MO_1289/IMG_3_1289.jpg"",""SV_PolicingMSA/MO_1289/IMG_1_1289.jpg"",""SV_PolicingMSA/MO_1289/IMG_8_1289.jpg""]","3",NA,NA,NA,NA,NA,3,NA,4,"[""./rc_img/cop_condGroup_8_CommunitySafety_autoscaled.png"",""./rc_img/cop_condGroup_8_SafeStreets_autoscaled.png""]",3,NA,NA,"MO_1289","MO_1289",3,1,3,4,4,3,6,"MO_1289",3,1,1,2,2,2,"MO_1289",3,4,1,4,2,4,4,"65","female","woman","","78244",""
"41","sliderTrial","html-slider-response",143,716164,"0.0-143.0",NA,"656776a7904ae00d6b91d1dd","6568a9f37ea0b5e4d8b4ca44",7,NA,NA,NA,NA,NA,NA,NA,NA,NA,NA,NA,"2561","[""SV_PolicingMSA/MO_1289/IMG_7_1289.jpg"",""SV_PolicingMSA/MO_1289/IMG_11_1289.jpg"",""SV_PolicingMSA/MO_1289/IMG_5_1289.jpg"",""SV_PolicingMSA/MO_1289/IMG_4_1289.jpg"",""SV_PolicingMSA/MO_1289/IMG_6_1289.jpg"",""SV_PolicingMSA/MO_1289/IMG_3_1289.jpg"",""SV_PolicingMSA/MO_1289/IMG_1_1289.jpg"",""SV_PolicingMSA/MO_1289/IMG_8_1289.jpg""]","6",NA,NA,NA,NA,NA,3,NA,4,"[""./rc_img/cop_condGroup_6_SafeStreets_autoscaled.png"",""./rc_img/cop_condGroup_6_CommunitySafety_autoscaled.png""]",2,NA,NA,"MO_1289","MO_1289",3,1,3,4,4,3,6,"MO_1289",3,1,1,2,2,2,"MO_1289",3,4,1,4,2,4,4,"65","female","woman","","78244",""
"42","sliderTrial","html-slider-response",144,718260,"0.0-144.0",NA,"656776a7904ae00d6b91d1dd","6568a9f37ea0b5e4d8b4ca44",7,NA,NA,NA,NA,NA,NA,NA,NA,NA,NA,NA,"2095","[""SV_PolicingMSA/MO_1289/IMG_7_1289.jpg"",""SV_PolicingMSA/MO_1289/IMG_11_1289.jpg"",""SV_PolicingMSA/MO_1289/IMG_5_1289.jpg"",""SV_PolicingMSA/MO_1289/IMG_4_1289.jpg"",""SV_PolicingMSA/MO_1289/IMG_6_1289.jpg"",""SV_PolicingMSA/MO_1289/IMG_3_1289.jpg"",""SV_PolicingMSA/MO_1289/IMG_1_1289.jpg"",""SV_PolicingMSA/MO_1289/IMG_8_1289.jpg""]","6",NA,NA,NA,NA,NA,3,NA,4,"[""./rc_img/cop_condGroup_4_SafeStreets_autoscaled.png"",""./rc_img/cop_condGroup_4_CommunitySafety_autoscaled.png""]",2,NA,NA,"MO_1289","MO_1289",3,1,3,4,4,3,6,"MO_1289",3,1,1,2,2,2,"MO_1289",3,4,1,4,2,4,4,"65","female","woman","","78244",""
