"","task","trial_type","trial_index","time_elapsed","internal_node_id","subject_id","study_id","session_id","section","width","height","webaudio","browser","browser_version","mobile","os","fullscreen","vsync_rate","webcam","microphone","rt","stimulus","response","success","timeout","failed_images","failed_audio","failed_video","block.x.x","accuracy","slider_start","choices","standardized_response","correct","num_attention_checks_correct","stim_tract","stim_tractT","block.x","P0_Q1.wealthy","P0_Q1.safe","P0_Q1.walkable","P0_Q1.traditional","P0_Q1.diverse","block_fixed","stim_tractT.x","block.y","P0_Q1.violence","P0_Q1.crime","P0_Q1.drug","P0_Q1.schools","P0_Q1.opportunities","stim_tractT.y","block.y.y","P0_Q1.movein","P0_Q1.moveout","P0_Q1.shopping","P0_Q1.walk","P0_Q1.park","P0_Q1.school","age","sex","gender","gender-self-describe","zipcode","surveyComments"
"1","sliderTrial","html-slider-response",18,237803,"0.0-18.0",NA,"656776a7904ae00d6b91d1dd","6568ab2eca3c84188715f776",15,NA,NA,NA,NA,NA,NA,NA,NA,NA,NA,NA,"29586","[""SV_PolicingMSA/MA_157/IMG_0_157.jpg"",""SV_PolicingMSA/MA_157/IMG_3_157.jpg"",""SV_PolicingMSA/MA_157/IMG_13_157.jpg"",""SV_PolicingMSA/MA_157/IMG_4_157.jpg"",""SV_PolicingMSA/MA_157/IMG_1_157.jpg"",""SV_PolicingMSA/MA_157/IMG_2_157.jpg"",""SV_PolicingMSA/MA_157/IMG_5_157.jpg"",""SV_PolicingMSA/MA_157/IMG_7_157.jpg""]","4",NA,NA,NA,NA,NA,3,NA,4,"[""./rc_img/cop_condGroup_3_SafeStreets_autoscaled.png"",""./rc_img/cop_condGroup_3_CommunitySafety_autoscaled.png""]",4,NA,NA,"MA_157/","MA_157",3,2,3,4,3,2,5,"MA_157",3,2,2,2,1,1,"MA_157",3,2,1,1,2,3,2,"51","not-to-say","nonbinary","nonbinary or genderqueer","30021",""
"2","sliderTrial","html-slider-response",19,252619,"0.0-19.0",NA,"656776a7904ae00d6b91d1dd","6568ab2eca3c84188715f776",15,NA,NA,NA,NA,NA,NA,NA,NA,NA,NA,NA,"14813","[""SV_PolicingMSA/MA_157/IMG_0_157.jpg"",""SV_PolicingMSA/MA_157/IMG_3_157.jpg"",""SV_PolicingMSA/MA_157/IMG_13_157.jpg"",""SV_PolicingMSA/MA_157/IMG_4_157.jpg"",""SV_PolicingMSA/MA_157/IMG_1_157.jpg"",""SV_PolicingMSA/MA_157/IMG_2_157.jpg"",""SV_PolicingMSA/MA_157/IMG_5_157.jpg"",""SV_PolicingMSA/MA_157/IMG_7_157.jpg""]","3",NA,NA,NA,NA,NA,3,NA,4,"[""./rc_img/cop_condGroup_18_CommunitySafety_autoscaled.png"",""./rc_img/cop_condGroup_18_SafeStreets_autoscaled.png""]",3,NA,NA,"MA_157/","MA_157",3,2,3,4,3,2,5,"MA_157",3,2,2,2,1,1,"MA_157",3,2,1,1,2,3,2,"51","not-to-say","nonbinary","nonbinary or genderqueer","30021",""
"3","sliderTrial","html-slider-response",20,266123,"0.0-20.0",NA,"656776a7904ae00d6b91d1dd","6568ab2eca3c84188715f776",15,NA,NA,NA,NA,NA,NA,NA,NA,NA,NA,NA,"13502","[""SV_PolicingMSA/MA_157/IMG_0_157.jpg"",""SV_PolicingMSA/MA_157/IMG_3_157.jpg"",""SV_PolicingMSA/MA_157/IMG_13_157.jpg"",""SV_PolicingMSA/MA_157/IMG_4_157.jpg"",""SV_PolicingMSA/MA_157/IMG_1_157.jpg"",""SV_PolicingMSA/MA_157/IMG_2_157.jpg"",""SV_PolicingMSA/MA_157/IMG_5_157.jpg"",""SV_PolicingMSA/MA_157/IMG_7_157.jpg""]","3",NA,NA,NA,NA,NA,3,NA,4,"[""./rc_img/cop_condGroup_14_CommunitySafety_autoscaled.png"",""./rc_img/cop_condGroup_14_SafeStreets_autoscaled.png""]",3,NA,NA,"MA_157/","MA_157",3,2,3,4,3,2,5,"MA_157",3,2,2,2,1,1,"MA_157",3,2,1,1,2,3,2,"51","not-to-say","nonbinary","nonbinary or genderqueer","30021",""
"4","sliderTrial","html-slider-response",21,274643,"0.0-21.0",NA,"656776a7904ae00d6b91d1dd","6568ab2eca3c84188715f776",15,NA,NA,NA,NA,NA,NA,NA,NA,NA,NA,NA,"8518","[""SV_PolicingMSA/MA_157/IMG_0_157.jpg"",""SV_PolicingMSA/MA_157/IMG_3_157.jpg"",""SV_PolicingMSA/MA_157/IMG_13_157.jpg"",""SV_PolicingMSA/MA_157/IMG_4_157.jpg"",""SV_PolicingMSA/MA_157/IMG_1_157.jpg"",""SV_PolicingMSA/MA_157/IMG_2_157.jpg"",""SV_PolicingMSA/MA_157/IMG_5_157.jpg"",""SV_PolicingMSA/MA_157/IMG_7_157.jpg""]","3",NA,NA,NA,NA,NA,3,NA,4,"[""./rc_img/cop_condGroup_4_CommunitySafety_autoscaled.png"",""./rc_img/cop_condGroup_4_SafeStreets_autoscaled.png""]",3,NA,NA,"MA_157/","MA_157",3,2,3,4,3,2,5,"MA_157",3,2,2,2,1,1,"MA_157",3,2,1,1,2,3,2,"51","not-to-say","nonbinary","nonbinary or genderqueer","30021",""
"5","sliderTrial","html-slider-response",22,283691,"0.0-22.0",NA,"656776a7904ae00d6b91d1dd","6568ab2eca3c84188715f776",15,NA,NA,NA,NA,NA,NA,NA,NA,NA,NA,NA,"9046","[""SV_PolicingMSA/MA_157/IMG_0_157.jpg"",""SV_PolicingMSA/MA_157/IMG_3_157.jpg"",""SV_PolicingMSA/MA_157/IMG_13_157.jpg"",""SV_PolicingMSA/MA_157/IMG_4_157.jpg"",""SV_PolicingMSA/MA_157/IMG_1_157.jpg"",""SV_PolicingMSA/MA_157/IMG_2_157.jpg"",""SV_PolicingMSA/MA_157/IMG_5_157.jpg"",""SV_PolicingMSA/MA_157/IMG_7_157.jpg""]","4",NA,NA,NA,NA,NA,3,NA,4,"[""./rc_img/cop_condGroup_7_CommunitySafety_autoscaled.png"",""./rc_img/cop_condGroup_7_SafeStreets_autoscaled.png""]",4,NA,NA,"MA_157/","MA_157",3,2,3,4,3,2,5,"MA_157",3,2,2,2,1,1,"MA_157",3,2,1,1,2,3,2,"51","not-to-say","nonbinary","nonbinary or genderqueer","30021",""
"6","sliderTrial","html-slider-response",35,463715,"0.0-35.0",NA,"656776a7904ae00d6b91d1dd","6568ab2eca3c84188715f776",15,NA,NA,NA,NA,NA,NA,NA,NA,NA,NA,NA,"7475","[""SV_PolicingMSA/MA_659/IMG_12_659.jpg"",""SV_PolicingMSA/MA_659/IMG_4_659.jpg"",""SV_PolicingMSA/MA_659/IMG_11_659.jpg"",""SV_PolicingMSA/MA_659/IMG_3_659.jpg"",""SV_PolicingMSA/MA_659/IMG_14_659.jpg"",""SV_PolicingMSA/MA_659/IMG_0_659.jpg"",""SV_PolicingMSA/MA_659/IMG_1_659.jpg"",""SV_PolicingMSA/MA_659/IMG_13_659.jpg""]","4",NA,NA,NA,NA,NA,5,NA,4,"[""./rc_img/cop_condGroup_9_CommunitySafety_autoscaled.png"",""./rc_img/cop_condGroup_9_SafeStreets_autoscaled.png""]",4,NA,NA,"MA_659/","MA_659",5,1,2,1,2,2,8,"MA_659",5,2,2,2,1,1,"MA_659",5,2,2,1,1,1,1,"51","not-to-say","nonbinary","nonbinary or genderqueer","30021",""
"7","sliderTrial","html-slider-response",36,476411,"0.0-36.0",NA,"656776a7904ae00d6b91d1dd","6568ab2eca3c84188715f776",15,NA,NA,NA,NA,NA,NA,NA,NA,NA,NA,NA,"12694","[""SV_PolicingMSA/MA_659/IMG_12_659.jpg"",""SV_PolicingMSA/MA_659/IMG_4_659.jpg"",""SV_PolicingMSA/MA_659/IMG_11_659.jpg"",""SV_PolicingMSA/MA_659/IMG_3_659.jpg"",""SV_PolicingMSA/MA_659/IMG_14_659.jpg"",""SV_PolicingMSA/MA_659/IMG_0_659.jpg"",""SV_PolicingMSA/MA_659/IMG_1_659.jpg"",""SV_PolicingMSA/MA_659/IMG_13_659.jpg""]","4",NA,NA,NA,NA,NA,5,NA,4,"[""./rc_img/cop_condGroup_15_SafeStreets_autoscaled.png"",""./rc_img/cop_condGroup_15_CommunitySafety_autoscaled.png""]",4,NA,NA,"MA_659/","MA_659",5,1,2,1,2,2,8,"MA_659",5,2,2,2,1,1,"MA_659",5,2,2,1,1,1,1,"51","not-to-say","nonbinary","nonbinary or genderqueer","30021",""
"8","sliderTrial","html-slider-response",37,479939,"0.0-37.0",NA,"656776a7904ae00d6b91d1dd","6568ab2eca3c84188715f776",15,NA,NA,NA,NA,NA,NA,NA,NA,NA,NA,NA,"3526","[""SV_PolicingMSA/MA_659/IMG_12_659.jpg"",""SV_PolicingMSA/MA_659/IMG_4_659.jpg"",""SV_PolicingMSA/MA_659/IMG_11_659.jpg"",""SV_PolicingMSA/MA_659/IMG_3_659.jpg"",""SV_PolicingMSA/MA_659/IMG_14_659.jpg"",""SV_PolicingMSA/MA_659/IMG_0_659.jpg"",""SV_PolicingMSA/MA_659/IMG_1_659.jpg"",""SV_PolicingMSA/MA_659/IMG_13_659.jpg""]","4",NA,NA,NA,NA,NA,5,NA,4,"[""./rc_img/cop_condGroup_13_SafeStreets_autoscaled.png"",""./rc_img/cop_condGroup_13_CommunitySafety_autoscaled.png""]",4,NA,NA,"MA_659/","MA_659",5,1,2,1,2,2,8,"MA_659",5,2,2,2,1,1,"MA_659",5,2,2,1,1,1,1,"51","not-to-say","nonbinary","nonbinary or genderqueer","30021",""
"9","sliderTrial","html-slider-response",38,484387,"0.0-38.0",NA,"656776a7904ae00d6b91d1dd","6568ab2eca3c84188715f776",15,NA,NA,NA,NA,NA,NA,NA,NA,NA,NA,NA,"4446","[""SV_PolicingMSA/MA_659/IMG_12_659.jpg"",""SV_PolicingMSA/MA_659/IMG_4_659.jpg"",""SV_PolicingMSA/MA_659/IMG_11_659.jpg"",""SV_PolicingMSA/MA_659/IMG_3_659.jpg"",""SV_PolicingMSA/MA_659/IMG_14_659.jpg"",""SV_PolicingMSA/MA_659/IMG_0_659.jpg"",""SV_PolicingMSA/MA_659/IMG_1_659.jpg"",""SV_PolicingMSA/MA_659/IMG_13_659.jpg""]","4",NA,NA,NA,NA,NA,5,NA,4,"[""./rc_img/cop_condGroup_5_CommunitySafety_autoscaled.png"",""./rc_img/cop_condGroup_5_SafeStreets_autoscaled.png""]",4,NA,NA,"MA_659/","MA_659",5,1,2,1,2,2,8,"MA_659",5,2,2,2,1,1,"MA_659",5,2,2,1,1,1,1,"51","not-to-say","nonbinary","nonbinary or genderqueer","30021",""
"10","sliderTrial","html-slider-response",39,486067,"0.0-39.0",NA,"656776a7904ae00d6b91d1dd","6568ab2eca3c84188715f776",15,NA,NA,NA,NA,NA,NA,NA,NA,NA,NA,NA,"1678","[""SV_PolicingMSA/MA_659/IMG_12_659.jpg"",""SV_PolicingMSA/MA_659/IMG_4_659.jpg"",""SV_PolicingMSA/MA_659/IMG_11_659.jpg"",""SV_PolicingMSA/MA_659/IMG_3_659.jpg"",""SV_PolicingMSA/MA_659/IMG_14_659.jpg"",""SV_PolicingMSA/MA_659/IMG_0_659.jpg"",""SV_PolicingMSA/MA_659/IMG_1_659.jpg"",""SV_PolicingMSA/MA_659/IMG_13_659.jpg""]","4",NA,NA,NA,NA,NA,5,NA,4,"[""./rc_img/cop_condGroup_20_SafeStreets_autoscaled.png"",""./rc_img/cop_condGroup_20_CommunitySafety_autoscaled.png""]",4,NA,NA,"MA_659/","MA_659",5,1,2,1,2,2,8,"MA_659",5,2,2,2,1,1,"MA_659",5,2,2,1,1,1,1,"51","not-to-say","nonbinary","nonbinary or genderqueer","30021",""
"11","sliderTrial","html-slider-response",52,623739,"0.0-52.0",NA,"656776a7904ae00d6b91d1dd","6568ab2eca3c84188715f776",15,NA,NA,NA,NA,NA,NA,NA,NA,NA,NA,NA,"5940","[""SV_PolicingMSA/MA_159/IMG_7_159.jpg"",""SV_PolicingMSA/MA_159/IMG_14_159.jpg"",""SV_PolicingMSA/MA_159/IMG_4_159.jpg"",""SV_PolicingMSA/MA_159/IMG_11_159.jpg"",""SV_PolicingMSA/MA_159/IMG_10_159.jpg"",""SV_PolicingMSA/MA_159/IMG_5_159.jpg"",""SV_PolicingMSA/MA_159/IMG_13_159.jpg"",""SV_PolicingMSA/MA_159/IMG_9_159.jpg""]","4",NA,NA,NA,NA,NA,4,NA,4,"[""./rc_img/cop_condGroup_17_SafeStreets_autoscaled.png"",""./rc_img/cop_condGroup_17_CommunitySafety_autoscaled.png""]",4,NA,NA,"MA_159/","MA_159",4,3,4,4,4,1,7,"MA_159",4,0,1,1,3,3,"MA_159",4,4,2,3,3,4,4,"51","not-to-say","nonbinary","nonbinary or genderqueer","30021",""
"12","sliderTrial","html-slider-response",53,625403,"0.0-53.0",NA,"656776a7904ae00d6b91d1dd","6568ab2eca3c84188715f776",15,NA,NA,NA,NA,NA,NA,NA,NA,NA,NA,NA,"1662","[""SV_PolicingMSA/MA_159/IMG_7_159.jpg"",""SV_PolicingMSA/MA_159/IMG_14_159.jpg"",""SV_PolicingMSA/MA_159/IMG_4_159.jpg"",""SV_PolicingMSA/MA_159/IMG_11_159.jpg"",""SV_PolicingMSA/MA_159/IMG_10_159.jpg"",""SV_PolicingMSA/MA_159/IMG_5_159.jpg"",""SV_PolicingMSA/MA_159/IMG_13_159.jpg"",""SV_PolicingMSA/MA_159/IMG_9_159.jpg""]","4",NA,NA,NA,NA,NA,4,NA,4,"[""./rc_img/cop_condGroup_6_SafeStreets_autoscaled.png"",""./rc_img/cop_condGroup_6_CommunitySafety_autoscaled.png""]",4,NA,NA,"MA_159/","MA_159",4,3,4,4,4,1,7,"MA_159",4,0,1,1,3,3,"MA_159",4,4,2,3,3,4,4,"51","not-to-say","nonbinary","nonbinary or genderqueer","30021",""
"13","sliderTrial","html-slider-response",54,627339,"0.0-54.0",NA,"656776a7904ae00d6b91d1dd","6568ab2eca3c84188715f776",15,NA,NA,NA,NA,NA,NA,NA,NA,NA,NA,NA,"1934","[""SV_PolicingMSA/MA_159/IMG_7_159.jpg"",""SV_PolicingMSA/MA_159/IMG_14_159.jpg"",""SV_PolicingMSA/MA_159/IMG_4_159.jpg"",""SV_PolicingMSA/MA_159/IMG_11_159.jpg"",""SV_PolicingMSA/MA_159/IMG_10_159.jpg"",""SV_PolicingMSA/MA_159/IMG_5_159.jpg"",""SV_PolicingMSA/MA_159/IMG_13_159.jpg"",""SV_PolicingMSA/MA_159/IMG_9_159.jpg""]","4",NA,NA,NA,NA,NA,4,NA,4,"[""./rc_img/cop_condGroup_11_CommunitySafety_autoscaled.png"",""./rc_img/cop_condGroup_11_SafeStreets_autoscaled.png""]",4,NA,NA,"MA_159/","MA_159",4,3,4,4,4,1,7,"MA_159",4,0,1,1,3,3,"MA_159",4,4,2,3,3,4,4,"51","not-to-say","nonbinary","nonbinary or genderqueer","30021",""
"14","sliderTrial","html-slider-response",55,629123,"0.0-55.0",NA,"656776a7904ae00d6b91d1dd","6568ab2eca3c84188715f776",15,NA,NA,NA,NA,NA,NA,NA,NA,NA,NA,NA,"1782","[""SV_PolicingMSA/MA_159/IMG_7_159.jpg"",""SV_PolicingMSA/MA_159/IMG_14_159.jpg"",""SV_PolicingMSA/MA_159/IMG_4_159.jpg"",""SV_PolicingMSA/MA_159/IMG_11_159.jpg"",""SV_PolicingMSA/MA_159/IMG_10_159.jpg"",""SV_PolicingMSA/MA_159/IMG_5_159.jpg"",""SV_PolicingMSA/MA_159/IMG_13_159.jpg"",""SV_PolicingMSA/MA_159/IMG_9_159.jpg""]","4",NA,NA,NA,NA,NA,4,NA,4,"[""./rc_img/cop_condGroup_10_SafeStreets_autoscaled.png"",""./rc_img/cop_condGroup_10_CommunitySafety_autoscaled.png""]",4,NA,NA,"MA_159/","MA_159",4,3,4,4,4,1,7,"MA_159",4,0,1,1,3,3,"MA_159",4,4,2,3,3,4,4,"51","not-to-say","nonbinary","nonbinary or genderqueer","30021",""
"15","sliderTrial","html-slider-response",56,635555,"0.0-56.0",NA,"656776a7904ae00d6b91d1dd","6568ab2eca3c84188715f776",15,NA,NA,NA,NA,NA,NA,NA,NA,NA,NA,NA,"6430","[""SV_PolicingMSA/MA_159/IMG_7_159.jpg"",""SV_PolicingMSA/MA_159/IMG_14_159.jpg"",""SV_PolicingMSA/MA_159/IMG_4_159.jpg"",""SV_PolicingMSA/MA_159/IMG_11_159.jpg"",""SV_PolicingMSA/MA_159/IMG_10_159.jpg"",""SV_PolicingMSA/MA_159/IMG_5_159.jpg"",""SV_PolicingMSA/MA_159/IMG_13_159.jpg"",""SV_PolicingMSA/MA_159/IMG_9_159.jpg""]","3",NA,NA,NA,NA,NA,4,NA,4,"[""./rc_img/cop_condGroup_8_CommunitySafety_autoscaled.png"",""./rc_img/cop_condGroup_8_SafeStreets_autoscaled.png""]",3,NA,NA,"MA_159/","MA_159",4,3,4,4,4,1,7,"MA_159",4,0,1,1,3,3,"MA_159",4,4,2,3,3,4,4,"51","not-to-say","nonbinary","nonbinary or genderqueer","30021",""
"16","sliderTrial","html-slider-response",69,765012,"0.0-69.0",NA,"656776a7904ae00d6b91d1dd","6568ab2eca3c84188715f776",15,NA,NA,NA,NA,NA,NA,NA,NA,NA,NA,NA,"5685","[""SV_PolicingMSA/MA_1486/IMG_8_1486.jpg"",""SV_PolicingMSA/MA_1486/IMG_9_1486.jpg"",""SV_PolicingMSA/MA_1486/IMG_5_1486.jpg"",""SV_PolicingMSA/MA_1486/IMG_4_1486.jpg"",""SV_PolicingMSA/MA_1486/IMG_0_1486.jpg"",""SV_PolicingMSA/MA_1486/IMG_12_1486.jpg"",""SV_PolicingMSA/MA_1486/IMG_11_1486.jpg"",""SV_PolicingMSA/MA_1486/IMG_13_1486.jpg""]","4",NA,NA,NA,NA,NA,2,NA,4,"[""./rc_img/cop_condGroup_16_SafeStreets_autoscaled.png"",""./rc_img/cop_condGroup_16_CommunitySafety_autoscaled.png""]",4,NA,NA,"MA_1486","MA_1486",2,2,2,1,1,2,3,"MA_1486",2,2,2,2,1,1,"MA_1486",2,1,3,1,1,1,1,"51","not-to-say","nonbinary","nonbinary or genderqueer","30021",""
"17","sliderTrial","html-slider-response",70,767780,"0.0-70.0",NA,"656776a7904ae00d6b91d1dd","6568ab2eca3c84188715f776",15,NA,NA,NA,NA,NA,NA,NA,NA,NA,NA,NA,"2766","[""SV_PolicingMSA/MA_1486/IMG_8_1486.jpg"",""SV_PolicingMSA/MA_1486/IMG_9_1486.jpg"",""SV_PolicingMSA/MA_1486/IMG_5_1486.jpg"",""SV_PolicingMSA/MA_1486/IMG_4_1486.jpg"",""SV_PolicingMSA/MA_1486/IMG_0_1486.jpg"",""SV_PolicingMSA/MA_1486/IMG_12_1486.jpg"",""SV_PolicingMSA/MA_1486/IMG_11_1486.jpg"",""SV_PolicingMSA/MA_1486/IMG_13_1486.jpg""]","4",NA,NA,NA,NA,NA,2,NA,4,"[""./rc_img/cop_condGroup_2_CommunitySafety_autoscaled.png"",""./rc_img/cop_condGroup_2_SafeStreets_autoscaled.png""]",4,NA,NA,"MA_1486","MA_1486",2,2,2,1,1,2,3,"MA_1486",2,2,2,2,1,1,"MA_1486",2,1,3,1,1,1,1,"51","not-to-say","nonbinary","nonbinary or genderqueer","30021",""
"18","sliderTrial","html-slider-response",71,769291,"0.0-71.0",NA,"656776a7904ae00d6b91d1dd","6568ab2eca3c84188715f776",15,NA,NA,NA,NA,NA,NA,NA,NA,NA,NA,NA,"1510","[""SV_PolicingMSA/MA_1486/IMG_8_1486.jpg"",""SV_PolicingMSA/MA_1486/IMG_9_1486.jpg"",""SV_PolicingMSA/MA_1486/IMG_5_1486.jpg"",""SV_PolicingMSA/MA_1486/IMG_4_1486.jpg"",""SV_PolicingMSA/MA_1486/IMG_0_1486.jpg"",""SV_PolicingMSA/MA_1486/IMG_12_1486.jpg"",""SV_PolicingMSA/MA_1486/IMG_11_1486.jpg"",""SV_PolicingMSA/MA_1486/IMG_13_1486.jpg""]","4",NA,NA,NA,NA,NA,2,NA,4,"[""./rc_img/cop_condGroup_19_SafeStreets_autoscaled.png"",""./rc_img/cop_condGroup_19_CommunitySafety_autoscaled.png""]",4,NA,NA,"MA_1486","MA_1486",2,2,2,1,1,2,3,"MA_1486",2,2,2,2,1,1,"MA_1486",2,1,3,1,1,1,1,"51","not-to-say","nonbinary","nonbinary or genderqueer","30021",""
"19","sliderTrial","html-slider-response",72,770739,"0.0-72.0",NA,"656776a7904ae00d6b91d1dd","6568ab2eca3c84188715f776",15,NA,NA,NA,NA,NA,NA,NA,NA,NA,NA,NA,"1446","[""SV_PolicingMSA/MA_1486/IMG_8_1486.jpg"",""SV_PolicingMSA/MA_1486/IMG_9_1486.jpg"",""SV_PolicingMSA/MA_1486/IMG_5_1486.jpg"",""SV_PolicingMSA/MA_1486/IMG_4_1486.jpg"",""SV_PolicingMSA/MA_1486/IMG_0_1486.jpg"",""SV_PolicingMSA/MA_1486/IMG_12_1486.jpg"",""SV_PolicingMSA/MA_1486/IMG_11_1486.jpg"",""SV_PolicingMSA/MA_1486/IMG_13_1486.jpg""]","4",NA,NA,NA,NA,NA,2,NA,4,"[""./rc_img/cop_condGroup_1_CommunitySafety_autoscaled.png"",""./rc_img/cop_condGroup_1_SafeStreets_autoscaled.png""]",4,NA,NA,"MA_1486","MA_1486",2,2,2,1,1,2,3,"MA_1486",2,2,2,2,1,1,"MA_1486",2,1,3,1,1,1,1,"51","not-to-say","nonbinary","nonbinary or genderqueer","30021",""
"20","sliderTrial","html-slider-response",73,772123,"0.0-73.0",NA,"656776a7904ae00d6b91d1dd","6568ab2eca3c84188715f776",15,NA,NA,NA,NA,NA,NA,NA,NA,NA,NA,NA,"1382","[""SV_PolicingMSA/MA_1486/IMG_8_1486.jpg"",""SV_PolicingMSA/MA_1486/IMG_9_1486.jpg"",""SV_PolicingMSA/MA_1486/IMG_5_1486.jpg"",""SV_PolicingMSA/MA_1486/IMG_4_1486.jpg"",""SV_PolicingMSA/MA_1486/IMG_0_1486.jpg"",""SV_PolicingMSA/MA_1486/IMG_12_1486.jpg"",""SV_PolicingMSA/MA_1486/IMG_11_1486.jpg"",""SV_PolicingMSA/MA_1486/IMG_13_1486.jpg""]","4",NA,NA,NA,NA,NA,2,NA,4,"[""./rc_img/cop_condGroup_12_SafeStreets_autoscaled.png"",""./rc_img/cop_condGroup_12_CommunitySafety_autoscaled.png""]",4,NA,NA,"MA_1486","MA_1486",2,2,2,1,1,2,3,"MA_1486",2,2,2,2,1,1,"MA_1486",2,1,3,1,1,1,1,"51","not-to-say","nonbinary","nonbinary or genderqueer","30021",""
"21","sliderTrial","html-slider-response",87,881404,"0.0-87.0",NA,"656776a7904ae00d6b91d1dd","6568ab2eca3c84188715f776",15,NA,NA,NA,NA,NA,NA,NA,NA,NA,NA,NA,"7645","[""SV_PolicingMSA/MA_181/IMG_5_181.jpg"",""SV_PolicingMSA/MA_181/IMG_8_181.jpg"",""SV_PolicingMSA/MA_181/IMG_7_181.jpg"",""SV_PolicingMSA/MA_181/IMG_10_181.jpg"",""SV_PolicingMSA/MA_181/IMG_6_181.jpg"",""SV_PolicingMSA/MA_181/IMG_4_181.jpg"",""SV_PolicingMSA/MA_181/IMG_2_181.jpg"",""SV_PolicingMSA/MA_181/IMG_3_181.jpg""]","4",NA,NA,NA,NA,NA,3,NA,4,"[""./rc_img/cop_condGroup_9_CommunitySafety_autoscaled.png"",""./rc_img/cop_condGroup_9_SafeStreets_autoscaled.png""]",4,NA,NA,"MA_181/","MA_181",3,2,2,4,3,2,6,"MA_181",3,2,2,2,1,1,"MA_181",3,2,2,2,2,2,2,"51","not-to-say","nonbinary","nonbinary or genderqueer","30021",""
"22","sliderTrial","html-slider-response",88,882564,"0.0-88.0",NA,"656776a7904ae00d6b91d1dd","6568ab2eca3c84188715f776",15,NA,NA,NA,NA,NA,NA,NA,NA,NA,NA,NA,"1158","[""SV_PolicingMSA/MA_181/IMG_5_181.jpg"",""SV_PolicingMSA/MA_181/IMG_8_181.jpg"",""SV_PolicingMSA/MA_181/IMG_7_181.jpg"",""SV_PolicingMSA/MA_181/IMG_10_181.jpg"",""SV_PolicingMSA/MA_181/IMG_6_181.jpg"",""SV_PolicingMSA/MA_181/IMG_4_181.jpg"",""SV_PolicingMSA/MA_181/IMG_2_181.jpg"",""SV_PolicingMSA/MA_181/IMG_3_181.jpg""]","4",NA,NA,NA,NA,NA,3,NA,4,"[""./rc_img/cop_condGroup_15_SafeStreets_autoscaled.png"",""./rc_img/cop_condGroup_15_CommunitySafety_autoscaled.png""]",4,NA,NA,"MA_181/","MA_181",3,2,2,4,3,2,6,"MA_181",3,2,2,2,1,1,"MA_181",3,2,2,2,2,2,2,"51","not-to-say","nonbinary","nonbinary or genderqueer","30021",""
"23","sliderTrial","html-slider-response",89,884428,"0.0-89.0",NA,"656776a7904ae00d6b91d1dd","6568ab2eca3c84188715f776",15,NA,NA,NA,NA,NA,NA,NA,NA,NA,NA,NA,"1862","[""SV_PolicingMSA/MA_181/IMG_5_181.jpg"",""SV_PolicingMSA/MA_181/IMG_8_181.jpg"",""SV_PolicingMSA/MA_181/IMG_7_181.jpg"",""SV_PolicingMSA/MA_181/IMG_10_181.jpg"",""SV_PolicingMSA/MA_181/IMG_6_181.jpg"",""SV_PolicingMSA/MA_181/IMG_4_181.jpg"",""SV_PolicingMSA/MA_181/IMG_2_181.jpg"",""SV_PolicingMSA/MA_181/IMG_3_181.jpg""]","4",NA,NA,NA,NA,NA,3,NA,4,"[""./rc_img/cop_condGroup_13_SafeStreets_autoscaled.png"",""./rc_img/cop_condGroup_13_CommunitySafety_autoscaled.png""]",4,NA,NA,"MA_181/","MA_181",3,2,2,4,3,2,6,"MA_181",3,2,2,2,1,1,"MA_181",3,2,2,2,2,2,2,"51","not-to-say","nonbinary","nonbinary or genderqueer","30021",""
"24","sliderTrial","html-slider-response",90,885684,"0.0-90.0",NA,"656776a7904ae00d6b91d1dd","6568ab2eca3c84188715f776",15,NA,NA,NA,NA,NA,NA,NA,NA,NA,NA,NA,"1254","[""SV_PolicingMSA/MA_181/IMG_5_181.jpg"",""SV_PolicingMSA/MA_181/IMG_8_181.jpg"",""SV_PolicingMSA/MA_181/IMG_7_181.jpg"",""SV_PolicingMSA/MA_181/IMG_10_181.jpg"",""SV_PolicingMSA/MA_181/IMG_6_181.jpg"",""SV_PolicingMSA/MA_181/IMG_4_181.jpg"",""SV_PolicingMSA/MA_181/IMG_2_181.jpg"",""SV_PolicingMSA/MA_181/IMG_3_181.jpg""]","4",NA,NA,NA,NA,NA,3,NA,4,"[""./rc_img/cop_condGroup_5_CommunitySafety_autoscaled.png"",""./rc_img/cop_condGroup_5_SafeStreets_autoscaled.png""]",4,NA,NA,"MA_181/","MA_181",3,2,2,4,3,2,6,"MA_181",3,2,2,2,1,1,"MA_181",3,2,2,2,2,2,2,"51","not-to-say","nonbinary","nonbinary or genderqueer","30021",""
"25","sliderTrial","html-slider-response",91,886812,"0.0-91.0",NA,"656776a7904ae00d6b91d1dd","6568ab2eca3c84188715f776",15,NA,NA,NA,NA,NA,NA,NA,NA,NA,NA,NA,"1126","[""SV_PolicingMSA/MA_181/IMG_5_181.jpg"",""SV_PolicingMSA/MA_181/IMG_8_181.jpg"",""SV_PolicingMSA/MA_181/IMG_7_181.jpg"",""SV_PolicingMSA/MA_181/IMG_10_181.jpg"",""SV_PolicingMSA/MA_181/IMG_6_181.jpg"",""SV_PolicingMSA/MA_181/IMG_4_181.jpg"",""SV_PolicingMSA/MA_181/IMG_2_181.jpg"",""SV_PolicingMSA/MA_181/IMG_3_181.jpg""]","4",NA,NA,NA,NA,NA,3,NA,4,"[""./rc_img/cop_condGroup_20_SafeStreets_autoscaled.png"",""./rc_img/cop_condGroup_20_CommunitySafety_autoscaled.png""]",4,NA,NA,"MA_181/","MA_181",3,2,2,4,3,2,6,"MA_181",3,2,2,2,1,1,"MA_181",3,2,2,2,2,2,2,"51","not-to-say","nonbinary","nonbinary or genderqueer","30021",""
"26","sliderTrial","html-slider-response",104,1012996,"0.0-104.0",NA,"656776a7904ae00d6b91d1dd","6568ab2eca3c84188715f776",15,NA,NA,NA,NA,NA,NA,NA,NA,NA,NA,NA,"4795","[""SV_PolicingMSA/MA_855/IMG_11_855.jpg"",""SV_PolicingMSA/MA_855/IMG_14_855.jpg"",""SV_PolicingMSA/MA_855/IMG_12_855.jpg"",""SV_PolicingMSA/MA_855/IMG_9_855.jpg"",""SV_PolicingMSA/MA_855/IMG_1_855.jpg"",""SV_PolicingMSA/MA_855/IMG_5_855.jpg"",""SV_PolicingMSA/MA_855/IMG_0_855.jpg"",""SV_PolicingMSA/MA_855/IMG_8_855.jpg""]","4",NA,NA,NA,NA,NA,2,NA,4,"[""./rc_img/cop_condGroup_17_SafeStreets_autoscaled.png"",""./rc_img/cop_condGroup_17_CommunitySafety_autoscaled.png""]",4,NA,NA,"MA_855/","MA_855",2,3,3,4,4,2,4,"MA_855",2,1,1,1,3,2,"MA_855",2,3,1,3,3,3,3,"51","not-to-say","nonbinary","nonbinary or genderqueer","30021",""
"27","sliderTrial","html-slider-response",105,1014044,"0.0-105.0",NA,"656776a7904ae00d6b91d1dd","6568ab2eca3c84188715f776",15,NA,NA,NA,NA,NA,NA,NA,NA,NA,NA,NA,"1046","[""SV_PolicingMSA/MA_855/IMG_11_855.jpg"",""SV_PolicingMSA/MA_855/IMG_14_855.jpg"",""SV_PolicingMSA/MA_855/IMG_12_855.jpg"",""SV_PolicingMSA/MA_855/IMG_9_855.jpg"",""SV_PolicingMSA/MA_855/IMG_1_855.jpg"",""SV_PolicingMSA/MA_855/IMG_5_855.jpg"",""SV_PolicingMSA/MA_855/IMG_0_855.jpg"",""SV_PolicingMSA/MA_855/IMG_8_855.jpg""]","4",NA,NA,NA,NA,NA,2,NA,4,"[""./rc_img/cop_condGroup_6_SafeStreets_autoscaled.png"",""./rc_img/cop_condGroup_6_CommunitySafety_autoscaled.png""]",4,NA,NA,"MA_855/","MA_855",2,3,3,4,4,2,4,"MA_855",2,1,1,1,3,2,"MA_855",2,3,1,3,3,3,3,"51","not-to-say","nonbinary","nonbinary or genderqueer","30021",""
"28","sliderTrial","html-slider-response",106,1015204,"0.0-106.0",NA,"656776a7904ae00d6b91d1dd","6568ab2eca3c84188715f776",15,NA,NA,NA,NA,NA,NA,NA,NA,NA,NA,NA,"1158","[""SV_PolicingMSA/MA_855/IMG_11_855.jpg"",""SV_PolicingMSA/MA_855/IMG_14_855.jpg"",""SV_PolicingMSA/MA_855/IMG_12_855.jpg"",""SV_PolicingMSA/MA_855/IMG_9_855.jpg"",""SV_PolicingMSA/MA_855/IMG_1_855.jpg"",""SV_PolicingMSA/MA_855/IMG_5_855.jpg"",""SV_PolicingMSA/MA_855/IMG_0_855.jpg"",""SV_PolicingMSA/MA_855/IMG_8_855.jpg""]","4",NA,NA,NA,NA,NA,2,NA,4,"[""./rc_img/cop_condGroup_11_CommunitySafety_autoscaled.png"",""./rc_img/cop_condGroup_11_SafeStreets_autoscaled.png""]",4,NA,NA,"MA_855/","MA_855",2,3,3,4,4,2,4,"MA_855",2,1,1,1,3,2,"MA_855",2,3,1,3,3,3,3,"51","not-to-say","nonbinary","nonbinary or genderqueer","30021",""
"29","sliderTrial","html-slider-response",107,1016332,"0.0-107.0",NA,"656776a7904ae00d6b91d1dd","6568ab2eca3c84188715f776",15,NA,NA,NA,NA,NA,NA,NA,NA,NA,NA,NA,"1126","[""SV_PolicingMSA/MA_855/IMG_11_855.jpg"",""SV_PolicingMSA/MA_855/IMG_14_855.jpg"",""SV_PolicingMSA/MA_855/IMG_12_855.jpg"",""SV_PolicingMSA/MA_855/IMG_9_855.jpg"",""SV_PolicingMSA/MA_855/IMG_1_855.jpg"",""SV_PolicingMSA/MA_855/IMG_5_855.jpg"",""SV_PolicingMSA/MA_855/IMG_0_855.jpg"",""SV_PolicingMSA/MA_855/IMG_8_855.jpg""]","4",NA,NA,NA,NA,NA,2,NA,4,"[""./rc_img/cop_condGroup_10_SafeStreets_autoscaled.png"",""./rc_img/cop_condGroup_10_CommunitySafety_autoscaled.png""]",4,NA,NA,"MA_855/","MA_855",2,3,3,4,4,2,4,"MA_855",2,1,1,1,3,2,"MA_855",2,3,1,3,3,3,3,"51","not-to-say","nonbinary","nonbinary or genderqueer","30021",""
"30","sliderTrial","html-slider-response",108,1017372,"0.0-108.0",NA,"656776a7904ae00d6b91d1dd","6568ab2eca3c84188715f776",15,NA,NA,NA,NA,NA,NA,NA,NA,NA,NA,NA,"1038","[""SV_PolicingMSA/MA_855/IMG_11_855.jpg"",""SV_PolicingMSA/MA_855/IMG_14_855.jpg"",""SV_PolicingMSA/MA_855/IMG_12_855.jpg"",""SV_PolicingMSA/MA_855/IMG_9_855.jpg"",""SV_PolicingMSA/MA_855/IMG_1_855.jpg"",""SV_PolicingMSA/MA_855/IMG_5_855.jpg"",""SV_PolicingMSA/MA_855/IMG_0_855.jpg"",""SV_PolicingMSA/MA_855/IMG_8_855.jpg""]","4",NA,NA,NA,NA,NA,2,NA,4,"[""./rc_img/cop_condGroup_8_CommunitySafety_autoscaled.png"",""./rc_img/cop_condGroup_8_SafeStreets_autoscaled.png""]",4,NA,NA,"MA_855/","MA_855",2,3,3,4,4,2,4,"MA_855",2,1,1,1,3,2,"MA_855",2,3,1,3,3,3,3,"51","not-to-say","nonbinary","nonbinary or genderqueer","30021",""
"31","sliderTrial","html-slider-response",121,1458012,"0.0-121.0",NA,"656776a7904ae00d6b91d1dd","6568ab2eca3c84188715f776",15,NA,NA,NA,NA,NA,NA,NA,NA,NA,NA,NA,"3012","[""SV_PolicingMSA/MA_854/IMG_11_854.jpg"",""SV_PolicingMSA/MA_854/IMG_7_854.jpg"",""SV_PolicingMSA/MA_854/IMG_13_854.jpg"",""SV_PolicingMSA/MA_854/IMG_12_854.jpg"",""SV_PolicingMSA/MA_854/IMG_0_854.jpg"",""SV_PolicingMSA/MA_854/IMG_10_854.jpg"",""SV_PolicingMSA/MA_854/IMG_3_854.jpg"",""SV_PolicingMSA/MA_854/IMG_5_854.jpg""]","4",NA,NA,NA,NA,NA,1,NA,4,"[""./rc_img/cop_condGroup_3_SafeStreets_autoscaled.png"",""./rc_img/cop_condGroup_3_CommunitySafety_autoscaled.png""]",4,NA,NA,"MA_854/","MA_854",1,1,2,2,1,1,2,"MA_854",1,2,3,2,2,1,"MA_854",1,1,3,1,1,2,2,"51","not-to-say","nonbinary","nonbinary or genderqueer","30021",""
"32","sliderTrial","html-slider-response",122,1458740,"0.0-122.0",NA,"656776a7904ae00d6b91d1dd","6568ab2eca3c84188715f776",15,NA,NA,NA,NA,NA,NA,NA,NA,NA,NA,NA,"726","[""SV_PolicingMSA/MA_854/IMG_11_854.jpg"",""SV_PolicingMSA/MA_854/IMG_7_854.jpg"",""SV_PolicingMSA/MA_854/IMG_13_854.jpg"",""SV_PolicingMSA/MA_854/IMG_12_854.jpg"",""SV_PolicingMSA/MA_854/IMG_0_854.jpg"",""SV_PolicingMSA/MA_854/IMG_10_854.jpg"",""SV_PolicingMSA/MA_854/IMG_3_854.jpg"",""SV_PolicingMSA/MA_854/IMG_5_854.jpg""]","4",NA,NA,NA,NA,NA,1,NA,4,"[""./rc_img/cop_condGroup_18_CommunitySafety_autoscaled.png"",""./rc_img/cop_condGroup_18_SafeStreets_autoscaled.png""]",4,NA,NA,"MA_854/","MA_854",1,1,2,2,1,1,2,"MA_854",1,2,3,2,2,1,"MA_854",1,1,3,1,1,2,2,"51","not-to-say","nonbinary","nonbinary or genderqueer","30021",""
"33","sliderTrial","html-slider-response",123,1459348,"0.0-123.0",NA,"656776a7904ae00d6b91d1dd","6568ab2eca3c84188715f776",15,NA,NA,NA,NA,NA,NA,NA,NA,NA,NA,NA,"606","[""SV_PolicingMSA/MA_854/IMG_11_854.jpg"",""SV_PolicingMSA/MA_854/IMG_7_854.jpg"",""SV_PolicingMSA/MA_854/IMG_13_854.jpg"",""SV_PolicingMSA/MA_854/IMG_12_854.jpg"",""SV_PolicingMSA/MA_854/IMG_0_854.jpg"",""SV_PolicingMSA/MA_854/IMG_10_854.jpg"",""SV_PolicingMSA/MA_854/IMG_3_854.jpg"",""SV_PolicingMSA/MA_854/IMG_5_854.jpg""]","4",NA,NA,NA,NA,NA,1,NA,4,"[""./rc_img/cop_condGroup_14_CommunitySafety_autoscaled.png"",""./rc_img/cop_condGroup_14_SafeStreets_autoscaled.png""]",4,NA,NA,"MA_854/","MA_854",1,1,2,2,1,1,2,"MA_854",1,2,3,2,2,1,"MA_854",1,1,3,1,1,2,2,"51","not-to-say","nonbinary","nonbinary or genderqueer","30021",""
"34","sliderTrial_attention","html-slider-response",124,1469362,"0.0-124.0",NA,"656776a7904ae00d6b91d1dd","6568ab2eca3c84188715f776",15,NA,NA,NA,NA,NA,NA,NA,NA,NA,NA,NA,"null","[""SV_PolicingMSA/MA_854/IMG_11_854.jpg"",""SV_PolicingMSA/MA_854/IMG_7_854.jpg"",""SV_PolicingMSA/MA_854/IMG_13_854.jpg"",""SV_PolicingMSA/MA_854/IMG_12_854.jpg"",""SV_PolicingMSA/MA_854/IMG_0_854.jpg"",""SV_PolicingMSA/MA_854/IMG_10_854.jpg"",""SV_PolicingMSA/MA_854/IMG_3_854.jpg"",""SV_PolicingMSA/MA_854/IMG_5_854.jpg""]","null",NA,NA,NA,NA,NA,1,NA,4,"[""./assets/img/attnchk.png"",""./assets/img/attnchk.png""]",NA,TRUE,NA,"MA_854/","MA_854",1,1,2,2,1,1,2,"MA_854",1,2,3,2,2,1,"MA_854",1,1,3,1,1,2,2,"51","not-to-say","nonbinary","nonbinary or genderqueer","30021",""
"35","sliderTrial","html-slider-response",125,1471452,"0.0-125.0",NA,"656776a7904ae00d6b91d1dd","6568ab2eca3c84188715f776",15,NA,NA,NA,NA,NA,NA,NA,NA,NA,NA,NA,"2086","[""SV_PolicingMSA/MA_854/IMG_11_854.jpg"",""SV_PolicingMSA/MA_854/IMG_7_854.jpg"",""SV_PolicingMSA/MA_854/IMG_13_854.jpg"",""SV_PolicingMSA/MA_854/IMG_12_854.jpg"",""SV_PolicingMSA/MA_854/IMG_0_854.jpg"",""SV_PolicingMSA/MA_854/IMG_10_854.jpg"",""SV_PolicingMSA/MA_854/IMG_3_854.jpg"",""SV_PolicingMSA/MA_854/IMG_5_854.jpg""]","4",NA,NA,NA,NA,NA,1,NA,4,"[""./rc_img/cop_condGroup_4_CommunitySafety_autoscaled.png"",""./rc_img/cop_condGroup_4_SafeStreets_autoscaled.png""]",4,NA,NA,"MA_854/","MA_854",1,1,2,2,1,1,2,"MA_854",1,2,3,2,2,1,"MA_854",1,1,3,1,1,2,2,"51","not-to-say","nonbinary","nonbinary or genderqueer","30021",""
"36","sliderTrial","html-slider-response",126,1472820,"0.0-126.0",NA,"656776a7904ae00d6b91d1dd","6568ab2eca3c84188715f776",15,NA,NA,NA,NA,NA,NA,NA,NA,NA,NA,NA,"1366","[""SV_PolicingMSA/MA_854/IMG_11_854.jpg"",""SV_PolicingMSA/MA_854/IMG_7_854.jpg"",""SV_PolicingMSA/MA_854/IMG_13_854.jpg"",""SV_PolicingMSA/MA_854/IMG_12_854.jpg"",""SV_PolicingMSA/MA_854/IMG_0_854.jpg"",""SV_PolicingMSA/MA_854/IMG_10_854.jpg"",""SV_PolicingMSA/MA_854/IMG_3_854.jpg"",""SV_PolicingMSA/MA_854/IMG_5_854.jpg""]","4",NA,NA,NA,NA,NA,1,NA,4,"[""./rc_img/cop_condGroup_7_CommunitySafety_autoscaled.png"",""./rc_img/cop_condGroup_7_SafeStreets_autoscaled.png""]",4,NA,NA,"MA_854/","MA_854",1,1,2,2,1,1,2,"MA_854",1,2,3,2,2,1,"MA_854",1,1,3,1,1,2,2,"51","not-to-say","nonbinary","nonbinary or genderqueer","30021",""
"37","sliderTrial","html-slider-response",139,1572676,"0.0-139.0",NA,"656776a7904ae00d6b91d1dd","6568ab2eca3c84188715f776",15,NA,NA,NA,NA,NA,NA,NA,NA,NA,NA,NA,"5572","[""SV_PolicingMSA/MA_185/IMG_13_185.jpg"",""SV_PolicingMSA/MA_185/IMG_1_185.jpg"",""SV_PolicingMSA/MA_185/IMG_8_185.jpg"",""SV_PolicingMSA/MA_185/IMG_5_185.jpg"",""SV_PolicingMSA/MA_185/IMG_6_185.jpg"",""SV_PolicingMSA/MA_185/IMG_11_185.jpg"",""SV_PolicingMSA/MA_185/IMG_2_185.jpg"",""SV_PolicingMSA/MA_185/IMG_3_185.jpg""]","4",NA,NA,NA,NA,NA,0,NA,4,"[""./rc_img/cop_condGroup_16_SafeStreets_autoscaled.png"",""./rc_img/cop_condGroup_16_CommunitySafety_autoscaled.png""]",4,NA,NA,"MA_185/","MA_185",0,1,2,4,4,2,1,"MA_185",0,2,3,3,1,1,"MA_185",0,2,3,1,1,2,1,"51","not-to-say","nonbinary","nonbinary or genderqueer","30021",""
"38","sliderTrial","html-slider-response",140,1574572,"0.0-140.0",NA,"656776a7904ae00d6b91d1dd","6568ab2eca3c84188715f776",15,NA,NA,NA,NA,NA,NA,NA,NA,NA,NA,NA,"1894","[""SV_PolicingMSA/MA_185/IMG_13_185.jpg"",""SV_PolicingMSA/MA_185/IMG_1_185.jpg"",""SV_PolicingMSA/MA_185/IMG_8_185.jpg"",""SV_PolicingMSA/MA_185/IMG_5_185.jpg"",""SV_PolicingMSA/MA_185/IMG_6_185.jpg"",""SV_PolicingMSA/MA_185/IMG_11_185.jpg"",""SV_PolicingMSA/MA_185/IMG_2_185.jpg"",""SV_PolicingMSA/MA_185/IMG_3_185.jpg""]","4",NA,NA,NA,NA,NA,0,NA,4,"[""./rc_img/cop_condGroup_2_CommunitySafety_autoscaled.png"",""./rc_img/cop_condGroup_2_SafeStreets_autoscaled.png""]",4,NA,NA,"MA_185/","MA_185",0,1,2,4,4,2,1,"MA_185",0,2,3,3,1,1,"MA_185",0,2,3,1,1,2,1,"51","not-to-say","nonbinary","nonbinary or genderqueer","30021",""
"39","sliderTrial_attention","html-slider-response",141,1584588,"0.0-141.0",NA,"656776a7904ae00d6b91d1dd","6568ab2eca3c84188715f776",15,NA,NA,NA,NA,NA,NA,NA,NA,NA,NA,NA,"null","[""SV_PolicingMSA/MA_185/IMG_13_185.jpg"",""SV_PolicingMSA/MA_185/IMG_1_185.jpg"",""SV_PolicingMSA/MA_185/IMG_8_185.jpg"",""SV_PolicingMSA/MA_185/IMG_5_185.jpg"",""SV_PolicingMSA/MA_185/IMG_6_185.jpg"",""SV_PolicingMSA/MA_185/IMG_11_185.jpg"",""SV_PolicingMSA/MA_185/IMG_2_185.jpg"",""SV_PolicingMSA/MA_185/IMG_3_185.jpg""]","null",NA,NA,NA,NA,NA,0,NA,4,"[""./assets/img/attnchk.png"",""./assets/img/attnchk.png""]",NA,TRUE,NA,"MA_185/","MA_185",0,1,2,4,4,2,1,"MA_185",0,2,3,3,1,1,"MA_185",0,2,3,1,1,2,1,"51","not-to-say","nonbinary","nonbinary or genderqueer","30021",""
"40","sliderTrial","html-slider-response",142,1588092,"0.0-142.0",NA,"656776a7904ae00d6b91d1dd","6568ab2eca3c84188715f776",15,NA,NA,NA,NA,NA,NA,NA,NA,NA,NA,NA,"3500","[""SV_PolicingMSA/MA_185/IMG_13_185.jpg"",""SV_PolicingMSA/MA_185/IMG_1_185.jpg"",""SV_PolicingMSA/MA_185/IMG_8_185.jpg"",""SV_PolicingMSA/MA_185/IMG_5_185.jpg"",""SV_PolicingMSA/MA_185/IMG_6_185.jpg"",""SV_PolicingMSA/MA_185/IMG_11_185.jpg"",""SV_PolicingMSA/MA_185/IMG_2_185.jpg"",""SV_PolicingMSA/MA_185/IMG_3_185.jpg""]","4",NA,NA,NA,NA,NA,0,NA,4,"[""./rc_img/cop_condGroup_19_SafeStreets_autoscaled.png"",""./rc_img/cop_condGroup_19_CommunitySafety_autoscaled.png""]",4,NA,NA,"MA_185/","MA_185",0,1,2,4,4,2,1,"MA_185",0,2,3,3,1,1,"MA_185",0,2,3,1,1,2,1,"51","not-to-say","nonbinary","nonbinary or genderqueer","30021",""
"41","sliderTrial","html-slider-response",143,1590452,"0.0-143.0",NA,"656776a7904ae00d6b91d1dd","6568ab2eca3c84188715f776",15,NA,NA,NA,NA,NA,NA,NA,NA,NA,NA,NA,"2358","[""SV_PolicingMSA/MA_185/IMG_13_185.jpg"",""SV_PolicingMSA/MA_185/IMG_1_185.jpg"",""SV_PolicingMSA/MA_185/IMG_8_185.jpg"",""SV_PolicingMSA/MA_185/IMG_5_185.jpg"",""SV_PolicingMSA/MA_185/IMG_6_185.jpg"",""SV_PolicingMSA/MA_185/IMG_11_185.jpg"",""SV_PolicingMSA/MA_185/IMG_2_185.jpg"",""SV_PolicingMSA/MA_185/IMG_3_185.jpg""]","4",NA,NA,NA,NA,NA,0,NA,4,"[""./rc_img/cop_condGroup_1_CommunitySafety_autoscaled.png"",""./rc_img/cop_condGroup_1_SafeStreets_autoscaled.png""]",4,NA,NA,"MA_185/","MA_185",0,1,2,4,4,2,1,"MA_185",0,2,3,3,1,1,"MA_185",0,2,3,1,1,2,1,"51","not-to-say","nonbinary","nonbinary or genderqueer","30021",""
"42","sliderTrial","html-slider-response",144,1592148,"0.0-144.0",NA,"656776a7904ae00d6b91d1dd","6568ab2eca3c84188715f776",15,NA,NA,NA,NA,NA,NA,NA,NA,NA,NA,NA,"1694","[""SV_PolicingMSA/MA_185/IMG_13_185.jpg"",""SV_PolicingMSA/MA_185/IMG_1_185.jpg"",""SV_PolicingMSA/MA_185/IMG_8_185.jpg"",""SV_PolicingMSA/MA_185/IMG_5_185.jpg"",""SV_PolicingMSA/MA_185/IMG_6_185.jpg"",""SV_PolicingMSA/MA_185/IMG_11_185.jpg"",""SV_PolicingMSA/MA_185/IMG_2_185.jpg"",""SV_PolicingMSA/MA_185/IMG_3_185.jpg""]","4",NA,NA,NA,NA,NA,0,NA,4,"[""./rc_img/cop_condGroup_12_SafeStreets_autoscaled.png"",""./rc_img/cop_condGroup_12_CommunitySafety_autoscaled.png""]",4,NA,NA,"MA_185/","MA_185",0,1,2,4,4,2,1,"MA_185",0,2,3,3,1,1,"MA_185",0,2,3,1,1,2,1,"51","not-to-say","nonbinary","nonbinary or genderqueer","30021",""
