"","task","trial_type","trial_index","time_elapsed","internal_node_id","subject_id","study_id","session_id","section","width","height","webaudio","browser","browser_version","mobile","os","fullscreen","vsync_rate","webcam","microphone","rt","stimulus","response","success","timeout","failed_images","failed_audio","failed_video","block.x.x","accuracy","slider_start","choices","standardized_response","correct","num_attention_checks_correct","stim_tract","stim_tractT","block.x","P0_Q1.wealthy","P0_Q1.safe","P0_Q1.walkable","P0_Q1.traditional","P0_Q1.diverse","block_fixed","stim_tractT.x","block.y","P0_Q1.violence","P0_Q1.crime","P0_Q1.drug","P0_Q1.schools","P0_Q1.opportunities","stim_tractT.y","block.y.y","P0_Q1.movein","P0_Q1.moveout","P0_Q1.shopping","P0_Q1.walk","P0_Q1.park","P0_Q1.school","age","sex","gender","gender-self-describe","zipcode","surveyComments"
"1","sliderTrial","html-slider-response",18,298663,"0.0-18.0",NA,"656776a7904ae00d6b91d1dd","6568a8644aa3a143f28354e1",8,NA,NA,NA,NA,NA,NA,NA,NA,NA,NA,NA,"16329","[""SV_PolicingMSA/TX_4061/IMG_5_4061.jpg"",""SV_PolicingMSA/TX_4061/IMG_12_4061.jpg"",""SV_PolicingMSA/TX_4061/IMG_1_4061.jpg"",""SV_PolicingMSA/TX_4061/IMG_3_4061.jpg"",""SV_PolicingMSA/TX_4061/IMG_14_4061.jpg"",""SV_PolicingMSA/TX_4061/IMG_8_4061.jpg"",""SV_PolicingMSA/TX_4061/IMG_4_4061.jpg"",""SV_PolicingMSA/TX_4061/IMG_13_4061.jpg""]","6",NA,NA,NA,NA,NA,5,NA,4,"[""./rc_img/cop_condGroup_12_SafeStreets_autoscaled.png"",""./rc_img/cop_condGroup_12_CommunitySafety_autoscaled.png""]",2,NA,NA,"TX_4061","TX_4061",5,2,4,4,4,1,8,"TX_4061",5,0,0,1,2,2,"TX_4061",5,2,1,3,2,3,3,"24","female","woman","","84043",""
"2","sliderTrial","html-slider-response",19,305538,"0.0-19.0",NA,"656776a7904ae00d6b91d1dd","6568a8644aa3a143f28354e1",8,NA,NA,NA,NA,NA,NA,NA,NA,NA,NA,NA,"6874","[""SV_PolicingMSA/TX_4061/IMG_5_4061.jpg"",""SV_PolicingMSA/TX_4061/IMG_12_4061.jpg"",""SV_PolicingMSA/TX_4061/IMG_1_4061.jpg"",""SV_PolicingMSA/TX_4061/IMG_3_4061.jpg"",""SV_PolicingMSA/TX_4061/IMG_14_4061.jpg"",""SV_PolicingMSA/TX_4061/IMG_8_4061.jpg"",""SV_PolicingMSA/TX_4061/IMG_4_4061.jpg"",""SV_PolicingMSA/TX_4061/IMG_13_4061.jpg""]","2",NA,NA,NA,NA,NA,5,NA,4,"[""./rc_img/cop_condGroup_17_CommunitySafety_autoscaled.png"",""./rc_img/cop_condGroup_17_SafeStreets_autoscaled.png""]",2,NA,NA,"TX_4061","TX_4061",5,2,4,4,4,1,8,"TX_4061",5,0,0,1,2,2,"TX_4061",5,2,1,3,2,3,3,"24","female","woman","","84043",""
"3","sliderTrial","html-slider-response",20,309599,"0.0-20.0",NA,"656776a7904ae00d6b91d1dd","6568a8644aa3a143f28354e1",8,NA,NA,NA,NA,NA,NA,NA,NA,NA,NA,NA,"4060","[""SV_PolicingMSA/TX_4061/IMG_5_4061.jpg"",""SV_PolicingMSA/TX_4061/IMG_12_4061.jpg"",""SV_PolicingMSA/TX_4061/IMG_1_4061.jpg"",""SV_PolicingMSA/TX_4061/IMG_3_4061.jpg"",""SV_PolicingMSA/TX_4061/IMG_14_4061.jpg"",""SV_PolicingMSA/TX_4061/IMG_8_4061.jpg"",""SV_PolicingMSA/TX_4061/IMG_4_4061.jpg"",""SV_PolicingMSA/TX_4061/IMG_13_4061.jpg""]","6",NA,NA,NA,NA,NA,5,NA,4,"[""./rc_img/cop_condGroup_5_SafeStreets_autoscaled.png"",""./rc_img/cop_condGroup_5_CommunitySafety_autoscaled.png""]",2,NA,NA,"TX_4061","TX_4061",5,2,4,4,4,1,8,"TX_4061",5,0,0,1,2,2,"TX_4061",5,2,1,3,2,3,3,"24","female","woman","","84043",""
"4","sliderTrial","html-slider-response",21,314446,"0.0-21.0",NA,"656776a7904ae00d6b91d1dd","6568a8644aa3a143f28354e1",8,NA,NA,NA,NA,NA,NA,NA,NA,NA,NA,NA,"4846","[""SV_PolicingMSA/TX_4061/IMG_5_4061.jpg"",""SV_PolicingMSA/TX_4061/IMG_12_4061.jpg"",""SV_PolicingMSA/TX_4061/IMG_1_4061.jpg"",""SV_PolicingMSA/TX_4061/IMG_3_4061.jpg"",""SV_PolicingMSA/TX_4061/IMG_14_4061.jpg"",""SV_PolicingMSA/TX_4061/IMG_8_4061.jpg"",""SV_PolicingMSA/TX_4061/IMG_4_4061.jpg"",""SV_PolicingMSA/TX_4061/IMG_13_4061.jpg""]","2",NA,NA,NA,NA,NA,5,NA,4,"[""./rc_img/cop_condGroup_14_CommunitySafety_autoscaled.png"",""./rc_img/cop_condGroup_14_SafeStreets_autoscaled.png""]",2,NA,NA,"TX_4061","TX_4061",5,2,4,4,4,1,8,"TX_4061",5,0,0,1,2,2,"TX_4061",5,2,1,3,2,3,3,"24","female","woman","","84043",""
"5","sliderTrial","html-slider-response",22,317956,"0.0-22.0",NA,"656776a7904ae00d6b91d1dd","6568a8644aa3a143f28354e1",8,NA,NA,NA,NA,NA,NA,NA,NA,NA,NA,NA,"3508","[""SV_PolicingMSA/TX_4061/IMG_5_4061.jpg"",""SV_PolicingMSA/TX_4061/IMG_12_4061.jpg"",""SV_PolicingMSA/TX_4061/IMG_1_4061.jpg"",""SV_PolicingMSA/TX_4061/IMG_3_4061.jpg"",""SV_PolicingMSA/TX_4061/IMG_14_4061.jpg"",""SV_PolicingMSA/TX_4061/IMG_8_4061.jpg"",""SV_PolicingMSA/TX_4061/IMG_4_4061.jpg"",""SV_PolicingMSA/TX_4061/IMG_13_4061.jpg""]","2",NA,NA,NA,NA,NA,5,NA,4,"[""./rc_img/cop_condGroup_15_CommunitySafety_autoscaled.png"",""./rc_img/cop_condGroup_15_SafeStreets_autoscaled.png""]",2,NA,NA,"TX_4061","TX_4061",5,2,4,4,4,1,8,"TX_4061",5,0,0,1,2,2,"TX_4061",5,2,1,3,2,3,3,"24","female","woman","","84043",""
"6","sliderTrial","html-slider-response",35,401549,"0.0-35.0",NA,"656776a7904ae00d6b91d1dd","6568a8644aa3a143f28354e1",8,NA,NA,NA,NA,NA,NA,NA,NA,NA,NA,NA,"6547","[""SV_PolicingMSA/TX_109/IMG_7_109.jpg"",""SV_PolicingMSA/TX_109/IMG_3_109.jpg"",""SV_PolicingMSA/TX_109/IMG_10_109.jpg"",""SV_PolicingMSA/TX_109/IMG_0_109.jpg"",""SV_PolicingMSA/TX_109/IMG_4_109.jpg"",""SV_PolicingMSA/TX_109/IMG_13_109.jpg"",""SV_PolicingMSA/TX_109/IMG_6_109.jpg"",""SV_PolicingMSA/TX_109/IMG_14_109.jpg""]","6",NA,NA,NA,NA,NA,3,NA,4,"[""./rc_img/cop_condGroup_12_SafeStreets_autoscaled.png"",""./rc_img/cop_condGroup_12_CommunitySafety_autoscaled.png""]",2,NA,NA,"TX_109/","TX_109",3,1,2,2,2,1,5,"TX_109",3,1,1,2,2,1,"TX_109",3,1,3,2,1,2,1,"24","female","woman","","84043",""
"7","sliderTrial","html-slider-response",36,404242,"0.0-36.0",NA,"656776a7904ae00d6b91d1dd","6568a8644aa3a143f28354e1",8,NA,NA,NA,NA,NA,NA,NA,NA,NA,NA,NA,"2691","[""SV_PolicingMSA/TX_109/IMG_7_109.jpg"",""SV_PolicingMSA/TX_109/IMG_3_109.jpg"",""SV_PolicingMSA/TX_109/IMG_10_109.jpg"",""SV_PolicingMSA/TX_109/IMG_0_109.jpg"",""SV_PolicingMSA/TX_109/IMG_4_109.jpg"",""SV_PolicingMSA/TX_109/IMG_13_109.jpg"",""SV_PolicingMSA/TX_109/IMG_6_109.jpg"",""SV_PolicingMSA/TX_109/IMG_14_109.jpg""]","2",NA,NA,NA,NA,NA,3,NA,4,"[""./rc_img/cop_condGroup_17_CommunitySafety_autoscaled.png"",""./rc_img/cop_condGroup_17_SafeStreets_autoscaled.png""]",2,NA,NA,"TX_109/","TX_109",3,1,2,2,2,1,5,"TX_109",3,1,1,2,2,1,"TX_109",3,1,3,2,1,2,1,"24","female","woman","","84043",""
"8","sliderTrial","html-slider-response",37,406621,"0.0-37.0",NA,"656776a7904ae00d6b91d1dd","6568a8644aa3a143f28354e1",8,NA,NA,NA,NA,NA,NA,NA,NA,NA,NA,NA,"2378","[""SV_PolicingMSA/TX_109/IMG_7_109.jpg"",""SV_PolicingMSA/TX_109/IMG_3_109.jpg"",""SV_PolicingMSA/TX_109/IMG_10_109.jpg"",""SV_PolicingMSA/TX_109/IMG_0_109.jpg"",""SV_PolicingMSA/TX_109/IMG_4_109.jpg"",""SV_PolicingMSA/TX_109/IMG_13_109.jpg"",""SV_PolicingMSA/TX_109/IMG_6_109.jpg"",""SV_PolicingMSA/TX_109/IMG_14_109.jpg""]","6",NA,NA,NA,NA,NA,3,NA,4,"[""./rc_img/cop_condGroup_5_SafeStreets_autoscaled.png"",""./rc_img/cop_condGroup_5_CommunitySafety_autoscaled.png""]",2,NA,NA,"TX_109/","TX_109",3,1,2,2,2,1,5,"TX_109",3,1,1,2,2,1,"TX_109",3,1,3,2,1,2,1,"24","female","woman","","84043",""
"9","sliderTrial","html-slider-response",38,408642,"0.0-38.0",NA,"656776a7904ae00d6b91d1dd","6568a8644aa3a143f28354e1",8,NA,NA,NA,NA,NA,NA,NA,NA,NA,NA,NA,"2020","[""SV_PolicingMSA/TX_109/IMG_7_109.jpg"",""SV_PolicingMSA/TX_109/IMG_3_109.jpg"",""SV_PolicingMSA/TX_109/IMG_10_109.jpg"",""SV_PolicingMSA/TX_109/IMG_0_109.jpg"",""SV_PolicingMSA/TX_109/IMG_4_109.jpg"",""SV_PolicingMSA/TX_109/IMG_13_109.jpg"",""SV_PolicingMSA/TX_109/IMG_6_109.jpg"",""SV_PolicingMSA/TX_109/IMG_14_109.jpg""]","2",NA,NA,NA,NA,NA,3,NA,4,"[""./rc_img/cop_condGroup_14_CommunitySafety_autoscaled.png"",""./rc_img/cop_condGroup_14_SafeStreets_autoscaled.png""]",2,NA,NA,"TX_109/","TX_109",3,1,2,2,2,1,5,"TX_109",3,1,1,2,2,1,"TX_109",3,1,3,2,1,2,1,"24","female","woman","","84043",""
"10","sliderTrial","html-slider-response",39,411523,"0.0-39.0",NA,"656776a7904ae00d6b91d1dd","6568a8644aa3a143f28354e1",8,NA,NA,NA,NA,NA,NA,NA,NA,NA,NA,NA,"2880","[""SV_PolicingMSA/TX_109/IMG_7_109.jpg"",""SV_PolicingMSA/TX_109/IMG_3_109.jpg"",""SV_PolicingMSA/TX_109/IMG_10_109.jpg"",""SV_PolicingMSA/TX_109/IMG_0_109.jpg"",""SV_PolicingMSA/TX_109/IMG_4_109.jpg"",""SV_PolicingMSA/TX_109/IMG_13_109.jpg"",""SV_PolicingMSA/TX_109/IMG_6_109.jpg"",""SV_PolicingMSA/TX_109/IMG_14_109.jpg""]","2",NA,NA,NA,NA,NA,3,NA,4,"[""./rc_img/cop_condGroup_15_CommunitySafety_autoscaled.png"",""./rc_img/cop_condGroup_15_SafeStreets_autoscaled.png""]",2,NA,NA,"TX_109/","TX_109",3,1,2,2,2,1,5,"TX_109",3,1,1,2,2,1,"TX_109",3,1,3,2,1,2,1,"24","female","woman","","84043",""
"11","sliderTrial","html-slider-response",52,519811,"0.0-52.0",NA,"656776a7904ae00d6b91d1dd","6568a8644aa3a143f28354e1",8,NA,NA,NA,NA,NA,NA,NA,NA,NA,NA,NA,"7190","[""SV_PolicingMSA/TX_134/IMG_11_134.jpg"",""SV_PolicingMSA/TX_134/IMG_5_134.jpg"",""SV_PolicingMSA/TX_134/IMG_8_134.jpg"",""SV_PolicingMSA/TX_134/IMG_4_134.jpg"",""SV_PolicingMSA/TX_134/IMG_3_134.jpg"",""SV_PolicingMSA/TX_134/IMG_2_134.jpg"",""SV_PolicingMSA/TX_134/IMG_0_134.jpg"",""SV_PolicingMSA/TX_134/IMG_13_134.jpg""]","3",NA,NA,NA,NA,NA,2,NA,4,"[""./rc_img/cop_condGroup_18_CommunitySafety_autoscaled.png"",""./rc_img/cop_condGroup_18_SafeStreets_autoscaled.png""]",3,NA,NA,"TX_134/","TX_134",2,1,1,2,1,1,3,"TX_134",2,1,1,2,1,1,"TX_134",2,1,3,1,1,1,0,"24","female","woman","","84043",""
"12","sliderTrial","html-slider-response",53,522819,"0.0-53.0",NA,"656776a7904ae00d6b91d1dd","6568a8644aa3a143f28354e1",8,NA,NA,NA,NA,NA,NA,NA,NA,NA,NA,NA,"3007","[""SV_PolicingMSA/TX_134/IMG_11_134.jpg"",""SV_PolicingMSA/TX_134/IMG_5_134.jpg"",""SV_PolicingMSA/TX_134/IMG_8_134.jpg"",""SV_PolicingMSA/TX_134/IMG_4_134.jpg"",""SV_PolicingMSA/TX_134/IMG_3_134.jpg"",""SV_PolicingMSA/TX_134/IMG_2_134.jpg"",""SV_PolicingMSA/TX_134/IMG_0_134.jpg"",""SV_PolicingMSA/TX_134/IMG_13_134.jpg""]","5",NA,NA,NA,NA,NA,2,NA,4,"[""./rc_img/cop_condGroup_19_SafeStreets_autoscaled.png"",""./rc_img/cop_condGroup_19_CommunitySafety_autoscaled.png""]",3,NA,NA,"TX_134/","TX_134",2,1,1,2,1,1,3,"TX_134",2,1,1,2,1,1,"TX_134",2,1,3,1,1,1,0,"24","female","woman","","84043",""
"13","sliderTrial","html-slider-response",54,525780,"0.0-54.0",NA,"656776a7904ae00d6b91d1dd","6568a8644aa3a143f28354e1",8,NA,NA,NA,NA,NA,NA,NA,NA,NA,NA,NA,"2960","[""SV_PolicingMSA/TX_134/IMG_11_134.jpg"",""SV_PolicingMSA/TX_134/IMG_5_134.jpg"",""SV_PolicingMSA/TX_134/IMG_8_134.jpg"",""SV_PolicingMSA/TX_134/IMG_4_134.jpg"",""SV_PolicingMSA/TX_134/IMG_3_134.jpg"",""SV_PolicingMSA/TX_134/IMG_2_134.jpg"",""SV_PolicingMSA/TX_134/IMG_0_134.jpg"",""SV_PolicingMSA/TX_134/IMG_13_134.jpg""]","5",NA,NA,NA,NA,NA,2,NA,4,"[""./rc_img/cop_condGroup_4_SafeStreets_autoscaled.png"",""./rc_img/cop_condGroup_4_CommunitySafety_autoscaled.png""]",3,NA,NA,"TX_134/","TX_134",2,1,1,2,1,1,3,"TX_134",2,1,1,2,1,1,"TX_134",2,1,3,1,1,1,0,"24","female","woman","","84043",""
"14","sliderTrial","html-slider-response",55,528227,"0.0-55.0",NA,"656776a7904ae00d6b91d1dd","6568a8644aa3a143f28354e1",8,NA,NA,NA,NA,NA,NA,NA,NA,NA,NA,NA,"2446","[""SV_PolicingMSA/TX_134/IMG_11_134.jpg"",""SV_PolicingMSA/TX_134/IMG_5_134.jpg"",""SV_PolicingMSA/TX_134/IMG_8_134.jpg"",""SV_PolicingMSA/TX_134/IMG_4_134.jpg"",""SV_PolicingMSA/TX_134/IMG_3_134.jpg"",""SV_PolicingMSA/TX_134/IMG_2_134.jpg"",""SV_PolicingMSA/TX_134/IMG_0_134.jpg"",""SV_PolicingMSA/TX_134/IMG_13_134.jpg""]","5",NA,NA,NA,NA,NA,2,NA,4,"[""./rc_img/cop_condGroup_10_SafeStreets_autoscaled.png"",""./rc_img/cop_condGroup_10_CommunitySafety_autoscaled.png""]",3,NA,NA,"TX_134/","TX_134",2,1,1,2,1,1,3,"TX_134",2,1,1,2,1,1,"TX_134",2,1,3,1,1,1,0,"24","female","woman","","84043",""
"15","sliderTrial","html-slider-response",56,531457,"0.0-56.0",NA,"656776a7904ae00d6b91d1dd","6568a8644aa3a143f28354e1",8,NA,NA,NA,NA,NA,NA,NA,NA,NA,NA,NA,"3229","[""SV_PolicingMSA/TX_134/IMG_11_134.jpg"",""SV_PolicingMSA/TX_134/IMG_5_134.jpg"",""SV_PolicingMSA/TX_134/IMG_8_134.jpg"",""SV_PolicingMSA/TX_134/IMG_4_134.jpg"",""SV_PolicingMSA/TX_134/IMG_3_134.jpg"",""SV_PolicingMSA/TX_134/IMG_2_134.jpg"",""SV_PolicingMSA/TX_134/IMG_0_134.jpg"",""SV_PolicingMSA/TX_134/IMG_13_134.jpg""]","3",NA,NA,NA,NA,NA,2,NA,4,"[""./rc_img/cop_condGroup_7_CommunitySafety_autoscaled.png"",""./rc_img/cop_condGroup_7_SafeStreets_autoscaled.png""]",3,NA,NA,"TX_134/","TX_134",2,1,1,2,1,1,3,"TX_134",2,1,1,2,1,1,"TX_134",2,1,3,1,1,1,0,"24","female","woman","","84043",""
"16","sliderTrial","html-slider-response",69,596428,"0.0-69.0",NA,"656776a7904ae00d6b91d1dd","6568a8644aa3a143f28354e1",8,NA,NA,NA,NA,NA,NA,NA,NA,NA,NA,NA,"3602","[""SV_PolicingMSA/TX_348/IMG_3_348.jpg"",""SV_PolicingMSA/TX_348/IMG_2_348.jpg"",""SV_PolicingMSA/TX_348/IMG_11_348.jpg"",""SV_PolicingMSA/TX_348/IMG_1_348.jpg"",""SV_PolicingMSA/TX_348/IMG_6_348.jpg"",""SV_PolicingMSA/TX_348/IMG_13_348.jpg"",""SV_PolicingMSA/TX_348/IMG_5_348.jpg"",""SV_PolicingMSA/TX_348/IMG_4_348.jpg""]","2",NA,NA,NA,NA,NA,1,NA,4,"[""./rc_img/cop_condGroup_8_CommunitySafety_autoscaled.png"",""./rc_img/cop_condGroup_8_SafeStreets_autoscaled.png""]",2,NA,NA,"TX_348/","TX_348",1,2,2,3,1,1,2,"TX_348",1,1,1,1,2,1,"TX_348",1,1,3,2,1,2,1,"24","female","woman","","84043",""
"17","sliderTrial_attention","html-slider-response",70,606445,"0.0-70.0",NA,"656776a7904ae00d6b91d1dd","6568a8644aa3a143f28354e1",8,NA,NA,NA,NA,NA,NA,NA,NA,NA,NA,NA,"null","[""SV_PolicingMSA/TX_348/IMG_3_348.jpg"",""SV_PolicingMSA/TX_348/IMG_2_348.jpg"",""SV_PolicingMSA/TX_348/IMG_11_348.jpg"",""SV_PolicingMSA/TX_348/IMG_1_348.jpg"",""SV_PolicingMSA/TX_348/IMG_6_348.jpg"",""SV_PolicingMSA/TX_348/IMG_13_348.jpg"",""SV_PolicingMSA/TX_348/IMG_5_348.jpg"",""SV_PolicingMSA/TX_348/IMG_4_348.jpg""]","null",NA,NA,NA,NA,NA,1,NA,4,"[""./assets/img/attnchk.png"",""./assets/img/attnchk.png""]",NA,TRUE,NA,"TX_348/","TX_348",1,2,2,3,1,1,2,"TX_348",1,1,1,1,2,1,"TX_348",1,1,3,2,1,2,1,"24","female","woman","","84043",""
"18","sliderTrial","html-slider-response",71,609625,"0.0-71.0",NA,"656776a7904ae00d6b91d1dd","6568a8644aa3a143f28354e1",8,NA,NA,NA,NA,NA,NA,NA,NA,NA,NA,NA,"3178","[""SV_PolicingMSA/TX_348/IMG_3_348.jpg"",""SV_PolicingMSA/TX_348/IMG_2_348.jpg"",""SV_PolicingMSA/TX_348/IMG_11_348.jpg"",""SV_PolicingMSA/TX_348/IMG_1_348.jpg"",""SV_PolicingMSA/TX_348/IMG_6_348.jpg"",""SV_PolicingMSA/TX_348/IMG_13_348.jpg"",""SV_PolicingMSA/TX_348/IMG_5_348.jpg"",""SV_PolicingMSA/TX_348/IMG_4_348.jpg""]","6",NA,NA,NA,NA,NA,1,NA,4,"[""./rc_img/cop_condGroup_20_SafeStreets_autoscaled.png"",""./rc_img/cop_condGroup_20_CommunitySafety_autoscaled.png""]",2,NA,NA,"TX_348/","TX_348",1,2,2,3,1,1,2,"TX_348",1,1,1,1,2,1,"TX_348",1,1,3,2,1,2,1,"24","female","woman","","84043",""
"19","sliderTrial","html-slider-response",72,613416,"0.0-72.0",NA,"656776a7904ae00d6b91d1dd","6568a8644aa3a143f28354e1",8,NA,NA,NA,NA,NA,NA,NA,NA,NA,NA,NA,"3790","[""SV_PolicingMSA/TX_348/IMG_3_348.jpg"",""SV_PolicingMSA/TX_348/IMG_2_348.jpg"",""SV_PolicingMSA/TX_348/IMG_11_348.jpg"",""SV_PolicingMSA/TX_348/IMG_1_348.jpg"",""SV_PolicingMSA/TX_348/IMG_6_348.jpg"",""SV_PolicingMSA/TX_348/IMG_13_348.jpg"",""SV_PolicingMSA/TX_348/IMG_5_348.jpg"",""SV_PolicingMSA/TX_348/IMG_4_348.jpg""]","2",NA,NA,NA,NA,NA,1,NA,4,"[""./rc_img/cop_condGroup_11_CommunitySafety_autoscaled.png"",""./rc_img/cop_condGroup_11_SafeStreets_autoscaled.png""]",2,NA,NA,"TX_348/","TX_348",1,2,2,3,1,1,2,"TX_348",1,1,1,1,2,1,"TX_348",1,1,3,2,1,2,1,"24","female","woman","","84043",""
"20","sliderTrial","html-slider-response",73,615639,"0.0-73.0",NA,"656776a7904ae00d6b91d1dd","6568a8644aa3a143f28354e1",8,NA,NA,NA,NA,NA,NA,NA,NA,NA,NA,NA,"2221","[""SV_PolicingMSA/TX_348/IMG_3_348.jpg"",""SV_PolicingMSA/TX_348/IMG_2_348.jpg"",""SV_PolicingMSA/TX_348/IMG_11_348.jpg"",""SV_PolicingMSA/TX_348/IMG_1_348.jpg"",""SV_PolicingMSA/TX_348/IMG_6_348.jpg"",""SV_PolicingMSA/TX_348/IMG_13_348.jpg"",""SV_PolicingMSA/TX_348/IMG_5_348.jpg"",""SV_PolicingMSA/TX_348/IMG_4_348.jpg""]","6",NA,NA,NA,NA,NA,1,NA,4,"[""./rc_img/cop_condGroup_6_SafeStreets_autoscaled.png"",""./rc_img/cop_condGroup_6_CommunitySafety_autoscaled.png""]",2,NA,NA,"TX_348/","TX_348",1,2,2,3,1,1,2,"TX_348",1,1,1,1,2,1,"TX_348",1,1,3,2,1,2,1,"24","female","woman","","84043",""
"21","sliderTrial","html-slider-response",74,617187,"0.0-74.0",NA,"656776a7904ae00d6b91d1dd","6568a8644aa3a143f28354e1",8,NA,NA,NA,NA,NA,NA,NA,NA,NA,NA,NA,"1547","[""SV_PolicingMSA/TX_348/IMG_3_348.jpg"",""SV_PolicingMSA/TX_348/IMG_2_348.jpg"",""SV_PolicingMSA/TX_348/IMG_11_348.jpg"",""SV_PolicingMSA/TX_348/IMG_1_348.jpg"",""SV_PolicingMSA/TX_348/IMG_6_348.jpg"",""SV_PolicingMSA/TX_348/IMG_13_348.jpg"",""SV_PolicingMSA/TX_348/IMG_5_348.jpg"",""SV_PolicingMSA/TX_348/IMG_4_348.jpg""]","2",NA,NA,NA,NA,NA,1,NA,4,"[""./rc_img/cop_condGroup_3_CommunitySafety_autoscaled.png"",""./rc_img/cop_condGroup_3_SafeStreets_autoscaled.png""]",2,NA,NA,"TX_348/","TX_348",1,2,2,3,1,1,2,"TX_348",1,1,1,1,2,1,"TX_348",1,1,3,2,1,2,1,"24","female","woman","","84043",""
"22","sliderTrial","html-slider-response",88,677225,"0.0-88.0",NA,"656776a7904ae00d6b91d1dd","6568a8644aa3a143f28354e1",8,NA,NA,NA,NA,NA,NA,NA,NA,NA,NA,NA,"3932","[""SV_PolicingMSA/TX_575/IMG_3_575.jpg"",""SV_PolicingMSA/TX_575/IMG_12_575.jpg"",""SV_PolicingMSA/TX_575/IMG_10_575.jpg"",""SV_PolicingMSA/TX_575/IMG_5_575.jpg"",""SV_PolicingMSA/TX_575/IMG_14_575.jpg"",""SV_PolicingMSA/TX_575/IMG_9_575.jpg"",""SV_PolicingMSA/TX_575/IMG_6_575.jpg"",""SV_PolicingMSA/TX_575/IMG_4_575.jpg""]","2",NA,NA,NA,NA,NA,3,NA,4,"[""./rc_img/cop_condGroup_8_CommunitySafety_autoscaled.png"",""./rc_img/cop_condGroup_8_SafeStreets_autoscaled.png""]",2,NA,NA,"TX_575/","TX_575",3,2,2,2,1,1,6,"TX_575",3,0,0,0,2,2,"TX_575",3,3,1,3,3,3,3,"24","female","woman","","84043",""
"23","sliderTrial","html-slider-response",89,679481,"0.0-89.0",NA,"656776a7904ae00d6b91d1dd","6568a8644aa3a143f28354e1",8,NA,NA,NA,NA,NA,NA,NA,NA,NA,NA,NA,"2254","[""SV_PolicingMSA/TX_575/IMG_3_575.jpg"",""SV_PolicingMSA/TX_575/IMG_12_575.jpg"",""SV_PolicingMSA/TX_575/IMG_10_575.jpg"",""SV_PolicingMSA/TX_575/IMG_5_575.jpg"",""SV_PolicingMSA/TX_575/IMG_14_575.jpg"",""SV_PolicingMSA/TX_575/IMG_9_575.jpg"",""SV_PolicingMSA/TX_575/IMG_6_575.jpg"",""SV_PolicingMSA/TX_575/IMG_4_575.jpg""]","6",NA,NA,NA,NA,NA,3,NA,4,"[""./rc_img/cop_condGroup_20_SafeStreets_autoscaled.png"",""./rc_img/cop_condGroup_20_CommunitySafety_autoscaled.png""]",2,NA,NA,"TX_575/","TX_575",3,2,2,2,1,1,6,"TX_575",3,0,0,0,2,2,"TX_575",3,3,1,3,3,3,3,"24","female","woman","","84043",""
"24","sliderTrial","html-slider-response",90,681788,"0.0-90.0",NA,"656776a7904ae00d6b91d1dd","6568a8644aa3a143f28354e1",8,NA,NA,NA,NA,NA,NA,NA,NA,NA,NA,NA,"2306","[""SV_PolicingMSA/TX_575/IMG_3_575.jpg"",""SV_PolicingMSA/TX_575/IMG_12_575.jpg"",""SV_PolicingMSA/TX_575/IMG_10_575.jpg"",""SV_PolicingMSA/TX_575/IMG_5_575.jpg"",""SV_PolicingMSA/TX_575/IMG_14_575.jpg"",""SV_PolicingMSA/TX_575/IMG_9_575.jpg"",""SV_PolicingMSA/TX_575/IMG_6_575.jpg"",""SV_PolicingMSA/TX_575/IMG_4_575.jpg""]","2",NA,NA,NA,NA,NA,3,NA,4,"[""./rc_img/cop_condGroup_11_CommunitySafety_autoscaled.png"",""./rc_img/cop_condGroup_11_SafeStreets_autoscaled.png""]",2,NA,NA,"TX_575/","TX_575",3,2,2,2,1,1,6,"TX_575",3,0,0,0,2,2,"TX_575",3,3,1,3,3,3,3,"24","female","woman","","84043",""
"25","sliderTrial","html-slider-response",91,684391,"0.0-91.0",NA,"656776a7904ae00d6b91d1dd","6568a8644aa3a143f28354e1",8,NA,NA,NA,NA,NA,NA,NA,NA,NA,NA,NA,"2602","[""SV_PolicingMSA/TX_575/IMG_3_575.jpg"",""SV_PolicingMSA/TX_575/IMG_12_575.jpg"",""SV_PolicingMSA/TX_575/IMG_10_575.jpg"",""SV_PolicingMSA/TX_575/IMG_5_575.jpg"",""SV_PolicingMSA/TX_575/IMG_14_575.jpg"",""SV_PolicingMSA/TX_575/IMG_9_575.jpg"",""SV_PolicingMSA/TX_575/IMG_6_575.jpg"",""SV_PolicingMSA/TX_575/IMG_4_575.jpg""]","6",NA,NA,NA,NA,NA,3,NA,4,"[""./rc_img/cop_condGroup_6_SafeStreets_autoscaled.png"",""./rc_img/cop_condGroup_6_CommunitySafety_autoscaled.png""]",2,NA,NA,"TX_575/","TX_575",3,2,2,2,1,1,6,"TX_575",3,0,0,0,2,2,"TX_575",3,3,1,3,3,3,3,"24","female","woman","","84043",""
"26","sliderTrial","html-slider-response",92,686891,"0.0-92.0",NA,"656776a7904ae00d6b91d1dd","6568a8644aa3a143f28354e1",8,NA,NA,NA,NA,NA,NA,NA,NA,NA,NA,NA,"2512","[""SV_PolicingMSA/TX_575/IMG_3_575.jpg"",""SV_PolicingMSA/TX_575/IMG_12_575.jpg"",""SV_PolicingMSA/TX_575/IMG_10_575.jpg"",""SV_PolicingMSA/TX_575/IMG_5_575.jpg"",""SV_PolicingMSA/TX_575/IMG_14_575.jpg"",""SV_PolicingMSA/TX_575/IMG_9_575.jpg"",""SV_PolicingMSA/TX_575/IMG_6_575.jpg"",""SV_PolicingMSA/TX_575/IMG_4_575.jpg""]","2",NA,NA,NA,NA,NA,3,NA,4,"[""./rc_img/cop_condGroup_3_CommunitySafety_autoscaled.png"",""./rc_img/cop_condGroup_3_SafeStreets_autoscaled.png""]",2,NA,NA,"TX_575/","TX_575",3,2,2,2,1,1,6,"TX_575",3,0,0,0,2,2,"TX_575",3,3,1,3,3,3,3,"24","female","woman","","84043",""
"27","sliderTrial","html-slider-response",105,738683,"0.0-105.0",NA,"656776a7904ae00d6b91d1dd","6568a8644aa3a143f28354e1",8,NA,NA,NA,NA,NA,NA,NA,NA,NA,NA,NA,"2967","[""SV_PolicingMSA/TX_298/IMG_0_298.jpg"",""SV_PolicingMSA/TX_298/IMG_2_298.jpg"",""SV_PolicingMSA/TX_298/IMG_13_298.jpg"",""SV_PolicingMSA/TX_298/IMG_6_298.jpg"",""SV_PolicingMSA/TX_298/IMG_8_298.jpg"",""SV_PolicingMSA/TX_298/IMG_3_298.jpg"",""SV_PolicingMSA/TX_298/IMG_11_298.jpg"",""SV_PolicingMSA/TX_298/IMG_7_298.jpg""]","2",NA,NA,NA,NA,NA,4,NA,4,"[""./rc_img/cop_condGroup_18_CommunitySafety_autoscaled.png"",""./rc_img/cop_condGroup_18_SafeStreets_autoscaled.png""]",2,NA,NA,"TX_298/","TX_298",4,3,4,4,2,2,7,"TX_298",4,0,0,0,3,3,"TX_298",4,4,0,3,3,4,4,"24","female","woman","","84043",""
"28","sliderTrial","html-slider-response",106,740917,"0.0-106.0",NA,"656776a7904ae00d6b91d1dd","6568a8644aa3a143f28354e1",8,NA,NA,NA,NA,NA,NA,NA,NA,NA,NA,NA,"2233","[""SV_PolicingMSA/TX_298/IMG_0_298.jpg"",""SV_PolicingMSA/TX_298/IMG_2_298.jpg"",""SV_PolicingMSA/TX_298/IMG_13_298.jpg"",""SV_PolicingMSA/TX_298/IMG_6_298.jpg"",""SV_PolicingMSA/TX_298/IMG_8_298.jpg"",""SV_PolicingMSA/TX_298/IMG_3_298.jpg"",""SV_PolicingMSA/TX_298/IMG_11_298.jpg"",""SV_PolicingMSA/TX_298/IMG_7_298.jpg""]","6",NA,NA,NA,NA,NA,4,NA,4,"[""./rc_img/cop_condGroup_19_SafeStreets_autoscaled.png"",""./rc_img/cop_condGroup_19_CommunitySafety_autoscaled.png""]",2,NA,NA,"TX_298/","TX_298",4,3,4,4,2,2,7,"TX_298",4,0,0,0,3,3,"TX_298",4,4,0,3,3,4,4,"24","female","woman","","84043",""
"29","sliderTrial","html-slider-response",107,743551,"0.0-107.0",NA,"656776a7904ae00d6b91d1dd","6568a8644aa3a143f28354e1",8,NA,NA,NA,NA,NA,NA,NA,NA,NA,NA,NA,"2633","[""SV_PolicingMSA/TX_298/IMG_0_298.jpg"",""SV_PolicingMSA/TX_298/IMG_2_298.jpg"",""SV_PolicingMSA/TX_298/IMG_13_298.jpg"",""SV_PolicingMSA/TX_298/IMG_6_298.jpg"",""SV_PolicingMSA/TX_298/IMG_8_298.jpg"",""SV_PolicingMSA/TX_298/IMG_3_298.jpg"",""SV_PolicingMSA/TX_298/IMG_11_298.jpg"",""SV_PolicingMSA/TX_298/IMG_7_298.jpg""]","6",NA,NA,NA,NA,NA,4,NA,4,"[""./rc_img/cop_condGroup_4_SafeStreets_autoscaled.png"",""./rc_img/cop_condGroup_4_CommunitySafety_autoscaled.png""]",2,NA,NA,"TX_298/","TX_298",4,3,4,4,2,2,7,"TX_298",4,0,0,0,3,3,"TX_298",4,4,0,3,3,4,4,"24","female","woman","","84043",""
"30","sliderTrial","html-slider-response",108,746735,"0.0-108.0",NA,"656776a7904ae00d6b91d1dd","6568a8644aa3a143f28354e1",8,NA,NA,NA,NA,NA,NA,NA,NA,NA,NA,NA,"3195","[""SV_PolicingMSA/TX_298/IMG_0_298.jpg"",""SV_PolicingMSA/TX_298/IMG_2_298.jpg"",""SV_PolicingMSA/TX_298/IMG_13_298.jpg"",""SV_PolicingMSA/TX_298/IMG_6_298.jpg"",""SV_PolicingMSA/TX_298/IMG_8_298.jpg"",""SV_PolicingMSA/TX_298/IMG_3_298.jpg"",""SV_PolicingMSA/TX_298/IMG_11_298.jpg"",""SV_PolicingMSA/TX_298/IMG_7_298.jpg""]","6",NA,NA,NA,NA,NA,4,NA,4,"[""./rc_img/cop_condGroup_10_SafeStreets_autoscaled.png"",""./rc_img/cop_condGroup_10_CommunitySafety_autoscaled.png""]",2,NA,NA,"TX_298/","TX_298",4,3,4,4,2,2,7,"TX_298",4,0,0,0,3,3,"TX_298",4,4,0,3,3,4,4,"24","female","woman","","84043",""
"31","sliderTrial","html-slider-response",109,749526,"0.0-109.0",NA,"656776a7904ae00d6b91d1dd","6568a8644aa3a143f28354e1",8,NA,NA,NA,NA,NA,NA,NA,NA,NA,NA,NA,"2790","[""SV_PolicingMSA/TX_298/IMG_0_298.jpg"",""SV_PolicingMSA/TX_298/IMG_2_298.jpg"",""SV_PolicingMSA/TX_298/IMG_13_298.jpg"",""SV_PolicingMSA/TX_298/IMG_6_298.jpg"",""SV_PolicingMSA/TX_298/IMG_8_298.jpg"",""SV_PolicingMSA/TX_298/IMG_3_298.jpg"",""SV_PolicingMSA/TX_298/IMG_11_298.jpg"",""SV_PolicingMSA/TX_298/IMG_7_298.jpg""]","2",NA,NA,NA,NA,NA,4,NA,4,"[""./rc_img/cop_condGroup_7_CommunitySafety_autoscaled.png"",""./rc_img/cop_condGroup_7_SafeStreets_autoscaled.png""]",2,NA,NA,"TX_298/","TX_298",4,3,4,4,2,2,7,"TX_298",4,0,0,0,3,3,"TX_298",4,4,0,3,3,4,4,"24","female","woman","","84043",""
"32","sliderTrial","html-slider-response",122,797014,"0.0-122.0",NA,"656776a7904ae00d6b91d1dd","6568a8644aa3a143f28354e1",8,NA,NA,NA,NA,NA,NA,NA,NA,NA,NA,NA,"2348","[""SV_PolicingMSA/TX_576/IMG_10_576.jpg"",""SV_PolicingMSA/TX_576/IMG_0_576.jpg"",""SV_PolicingMSA/TX_576/IMG_7_576.jpg"",""SV_PolicingMSA/TX_576/IMG_6_576.jpg"",""SV_PolicingMSA/TX_576/IMG_5_576.jpg"",""SV_PolicingMSA/TX_576/IMG_13_576.jpg"",""SV_PolicingMSA/TX_576/IMG_1_576.jpg"",""SV_PolicingMSA/TX_576/IMG_11_576.jpg""]","6",NA,NA,NA,NA,NA,2,NA,4,"[""./rc_img/cop_condGroup_2_SafeStreets_autoscaled.png"",""./rc_img/cop_condGroup_2_CommunitySafety_autoscaled.png""]",2,NA,NA,"TX_576/","TX_576",2,2,3,3,1,1,4,"TX_576",2,1,1,1,2,2,"TX_576",2,1,3,2,2,2,2,"24","female","woman","","84043",""
"33","sliderTrial","html-slider-response",123,798643,"0.0-123.0",NA,"656776a7904ae00d6b91d1dd","6568a8644aa3a143f28354e1",8,NA,NA,NA,NA,NA,NA,NA,NA,NA,NA,NA,"1628","[""SV_PolicingMSA/TX_576/IMG_10_576.jpg"",""SV_PolicingMSA/TX_576/IMG_0_576.jpg"",""SV_PolicingMSA/TX_576/IMG_7_576.jpg"",""SV_PolicingMSA/TX_576/IMG_6_576.jpg"",""SV_PolicingMSA/TX_576/IMG_5_576.jpg"",""SV_PolicingMSA/TX_576/IMG_13_576.jpg"",""SV_PolicingMSA/TX_576/IMG_1_576.jpg"",""SV_PolicingMSA/TX_576/IMG_11_576.jpg""]","6",NA,NA,NA,NA,NA,2,NA,4,"[""./rc_img/cop_condGroup_13_SafeStreets_autoscaled.png"",""./rc_img/cop_condGroup_13_CommunitySafety_autoscaled.png""]",2,NA,NA,"TX_576/","TX_576",2,2,3,3,1,1,4,"TX_576",2,1,1,1,2,2,"TX_576",2,1,3,2,2,2,2,"24","female","woman","","84043",""
"34","sliderTrial","html-slider-response",124,800896,"0.0-124.0",NA,"656776a7904ae00d6b91d1dd","6568a8644aa3a143f28354e1",8,NA,NA,NA,NA,NA,NA,NA,NA,NA,NA,NA,"2252","[""SV_PolicingMSA/TX_576/IMG_10_576.jpg"",""SV_PolicingMSA/TX_576/IMG_0_576.jpg"",""SV_PolicingMSA/TX_576/IMG_7_576.jpg"",""SV_PolicingMSA/TX_576/IMG_6_576.jpg"",""SV_PolicingMSA/TX_576/IMG_5_576.jpg"",""SV_PolicingMSA/TX_576/IMG_13_576.jpg"",""SV_PolicingMSA/TX_576/IMG_1_576.jpg"",""SV_PolicingMSA/TX_576/IMG_11_576.jpg""]","6",NA,NA,NA,NA,NA,2,NA,4,"[""./rc_img/cop_condGroup_1_SafeStreets_autoscaled.png"",""./rc_img/cop_condGroup_1_CommunitySafety_autoscaled.png""]",2,NA,NA,"TX_576/","TX_576",2,2,3,3,1,1,4,"TX_576",2,1,1,1,2,2,"TX_576",2,1,3,2,2,2,2,"24","female","woman","","84043",""
"35","sliderTrial","html-slider-response",125,803203,"0.0-125.0",NA,"656776a7904ae00d6b91d1dd","6568a8644aa3a143f28354e1",8,NA,NA,NA,NA,NA,NA,NA,NA,NA,NA,NA,"2306","[""SV_PolicingMSA/TX_576/IMG_10_576.jpg"",""SV_PolicingMSA/TX_576/IMG_0_576.jpg"",""SV_PolicingMSA/TX_576/IMG_7_576.jpg"",""SV_PolicingMSA/TX_576/IMG_6_576.jpg"",""SV_PolicingMSA/TX_576/IMG_5_576.jpg"",""SV_PolicingMSA/TX_576/IMG_13_576.jpg"",""SV_PolicingMSA/TX_576/IMG_1_576.jpg"",""SV_PolicingMSA/TX_576/IMG_11_576.jpg""]","6",NA,NA,NA,NA,NA,2,NA,4,"[""./rc_img/cop_condGroup_16_SafeStreets_autoscaled.png"",""./rc_img/cop_condGroup_16_CommunitySafety_autoscaled.png""]",2,NA,NA,"TX_576/","TX_576",2,2,3,3,1,1,4,"TX_576",2,1,1,1,2,2,"TX_576",2,1,3,2,2,2,2,"24","female","woman","","84043",""
"36","sliderTrial","html-slider-response",126,805304,"0.0-126.0",NA,"656776a7904ae00d6b91d1dd","6568a8644aa3a143f28354e1",8,NA,NA,NA,NA,NA,NA,NA,NA,NA,NA,NA,"2100","[""SV_PolicingMSA/TX_576/IMG_10_576.jpg"",""SV_PolicingMSA/TX_576/IMG_0_576.jpg"",""SV_PolicingMSA/TX_576/IMG_7_576.jpg"",""SV_PolicingMSA/TX_576/IMG_6_576.jpg"",""SV_PolicingMSA/TX_576/IMG_5_576.jpg"",""SV_PolicingMSA/TX_576/IMG_13_576.jpg"",""SV_PolicingMSA/TX_576/IMG_1_576.jpg"",""SV_PolicingMSA/TX_576/IMG_11_576.jpg""]","6",NA,NA,NA,NA,NA,2,NA,4,"[""./rc_img/cop_condGroup_9_SafeStreets_autoscaled.png"",""./rc_img/cop_condGroup_9_CommunitySafety_autoscaled.png""]",2,NA,NA,"TX_576/","TX_576",2,2,3,3,1,1,4,"TX_576",2,1,1,1,2,2,"TX_576",2,1,3,2,2,2,2,"24","female","woman","","84043",""
"37","sliderTrial","html-slider-response",139,856997,"0.0-139.0",NA,"656776a7904ae00d6b91d1dd","6568a8644aa3a143f28354e1",8,NA,NA,NA,NA,NA,NA,NA,NA,NA,NA,NA,"2356","[""SV_PolicingMSA/TX_130/IMG_14_130.jpg"",""SV_PolicingMSA/TX_130/IMG_13_130.jpg"",""SV_PolicingMSA/TX_130/IMG_12_130.jpg"",""SV_PolicingMSA/TX_130/IMG_8_130.jpg"",""SV_PolicingMSA/TX_130/IMG_4_130.jpg"",""SV_PolicingMSA/TX_130/IMG_10_130.jpg"",""SV_PolicingMSA/TX_130/IMG_0_130.jpg"",""SV_PolicingMSA/TX_130/IMG_7_130.jpg""]","6",NA,NA,NA,NA,NA,0,NA,4,"[""./rc_img/cop_condGroup_2_SafeStreets_autoscaled.png"",""./rc_img/cop_condGroup_2_CommunitySafety_autoscaled.png""]",2,NA,NA,"TX_130/","TX_130",0,1,2,2,1,1,1,"TX_130",0,1,1,1,2,2,"TX_130",0,2,2,3,2,2,1,"24","female","woman","","84043",""
"38","sliderTrial_attention","html-slider-response",140,866993,"0.0-140.0",NA,"656776a7904ae00d6b91d1dd","6568a8644aa3a143f28354e1",8,NA,NA,NA,NA,NA,NA,NA,NA,NA,NA,NA,"null","[""SV_PolicingMSA/TX_130/IMG_14_130.jpg"",""SV_PolicingMSA/TX_130/IMG_13_130.jpg"",""SV_PolicingMSA/TX_130/IMG_12_130.jpg"",""SV_PolicingMSA/TX_130/IMG_8_130.jpg"",""SV_PolicingMSA/TX_130/IMG_4_130.jpg"",""SV_PolicingMSA/TX_130/IMG_10_130.jpg"",""SV_PolicingMSA/TX_130/IMG_0_130.jpg"",""SV_PolicingMSA/TX_130/IMG_7_130.jpg""]","null",NA,NA,NA,NA,NA,0,NA,4,"[""./assets/img/attnchk.png"",""./assets/img/attnchk.png""]",NA,TRUE,NA,"TX_130/","TX_130",0,1,2,2,1,1,1,"TX_130",0,1,1,1,2,2,"TX_130",0,2,2,3,2,2,1,"24","female","woman","","84043",""
"39","sliderTrial","html-slider-response",141,884121,"0.0-141.0",NA,"656776a7904ae00d6b91d1dd","6568a8644aa3a143f28354e1",8,NA,NA,NA,NA,NA,NA,NA,NA,NA,NA,NA,"17127","[""SV_PolicingMSA/TX_130/IMG_14_130.jpg"",""SV_PolicingMSA/TX_130/IMG_13_130.jpg"",""SV_PolicingMSA/TX_130/IMG_12_130.jpg"",""SV_PolicingMSA/TX_130/IMG_8_130.jpg"",""SV_PolicingMSA/TX_130/IMG_4_130.jpg"",""SV_PolicingMSA/TX_130/IMG_10_130.jpg"",""SV_PolicingMSA/TX_130/IMG_0_130.jpg"",""SV_PolicingMSA/TX_130/IMG_7_130.jpg""]","6",NA,NA,NA,NA,NA,0,NA,4,"[""./rc_img/cop_condGroup_13_SafeStreets_autoscaled.png"",""./rc_img/cop_condGroup_13_CommunitySafety_autoscaled.png""]",2,NA,NA,"TX_130/","TX_130",0,1,2,2,1,1,1,"TX_130",0,1,1,1,2,2,"TX_130",0,2,2,3,2,2,1,"24","female","woman","","84043",""
"40","sliderTrial","html-slider-response",142,922097,"0.0-142.0",NA,"656776a7904ae00d6b91d1dd","6568a8644aa3a143f28354e1",8,NA,NA,NA,NA,NA,NA,NA,NA,NA,NA,NA,"37974","[""SV_PolicingMSA/TX_130/IMG_14_130.jpg"",""SV_PolicingMSA/TX_130/IMG_13_130.jpg"",""SV_PolicingMSA/TX_130/IMG_12_130.jpg"",""SV_PolicingMSA/TX_130/IMG_8_130.jpg"",""SV_PolicingMSA/TX_130/IMG_4_130.jpg"",""SV_PolicingMSA/TX_130/IMG_10_130.jpg"",""SV_PolicingMSA/TX_130/IMG_0_130.jpg"",""SV_PolicingMSA/TX_130/IMG_7_130.jpg""]","6",NA,NA,NA,NA,NA,0,NA,4,"[""./rc_img/cop_condGroup_1_SafeStreets_autoscaled.png"",""./rc_img/cop_condGroup_1_CommunitySafety_autoscaled.png""]",2,NA,NA,"TX_130/","TX_130",0,1,2,2,1,1,1,"TX_130",0,1,1,1,2,2,"TX_130",0,2,2,3,2,2,1,"24","female","woman","","84043",""
"41","sliderTrial","html-slider-response",143,924161,"0.0-143.0",NA,"656776a7904ae00d6b91d1dd","6568a8644aa3a143f28354e1",8,NA,NA,NA,NA,NA,NA,NA,NA,NA,NA,NA,"2063","[""SV_PolicingMSA/TX_130/IMG_14_130.jpg"",""SV_PolicingMSA/TX_130/IMG_13_130.jpg"",""SV_PolicingMSA/TX_130/IMG_12_130.jpg"",""SV_PolicingMSA/TX_130/IMG_8_130.jpg"",""SV_PolicingMSA/TX_130/IMG_4_130.jpg"",""SV_PolicingMSA/TX_130/IMG_10_130.jpg"",""SV_PolicingMSA/TX_130/IMG_0_130.jpg"",""SV_PolicingMSA/TX_130/IMG_7_130.jpg""]","6",NA,NA,NA,NA,NA,0,NA,4,"[""./rc_img/cop_condGroup_16_SafeStreets_autoscaled.png"",""./rc_img/cop_condGroup_16_CommunitySafety_autoscaled.png""]",2,NA,NA,"TX_130/","TX_130",0,1,2,2,1,1,1,"TX_130",0,1,1,1,2,2,"TX_130",0,2,2,3,2,2,1,"24","female","woman","","84043",""
"42","sliderTrial","html-slider-response",144,927145,"0.0-144.0",NA,"656776a7904ae00d6b91d1dd","6568a8644aa3a143f28354e1",8,NA,NA,NA,NA,NA,NA,NA,NA,NA,NA,NA,"2996","[""SV_PolicingMSA/TX_130/IMG_14_130.jpg"",""SV_PolicingMSA/TX_130/IMG_13_130.jpg"",""SV_PolicingMSA/TX_130/IMG_12_130.jpg"",""SV_PolicingMSA/TX_130/IMG_8_130.jpg"",""SV_PolicingMSA/TX_130/IMG_4_130.jpg"",""SV_PolicingMSA/TX_130/IMG_10_130.jpg"",""SV_PolicingMSA/TX_130/IMG_0_130.jpg"",""SV_PolicingMSA/TX_130/IMG_7_130.jpg""]","6",NA,NA,NA,NA,NA,0,NA,4,"[""./rc_img/cop_condGroup_9_SafeStreets_autoscaled.png"",""./rc_img/cop_condGroup_9_CommunitySafety_autoscaled.png""]",2,NA,NA,"TX_130/","TX_130",0,1,2,2,1,1,1,"TX_130",0,1,1,1,2,2,"TX_130",0,2,2,3,2,2,1,"24","female","woman","","84043",""
