"","task","trial_type","trial_index","time_elapsed","internal_node_id","subject_id","study_id","session_id","section","width","height","webaudio","browser","browser_version","mobile","os","fullscreen","vsync_rate","webcam","microphone","rt","stimulus","response","success","timeout","failed_images","failed_audio","failed_video","block.x.x","accuracy","slider_start","choices","standardized_response","correct","num_attention_checks_correct","stim_tract","stim_tractT","block.x","P0_Q1.wealthy","P0_Q1.safe","P0_Q1.walkable","P0_Q1.traditional","P0_Q1.diverse","block_fixed","stim_tractT.x","block.y","P0_Q1.violence","P0_Q1.crime","P0_Q1.drug","P0_Q1.schools","P0_Q1.opportunities","stim_tractT.y","block.y.y","P0_Q1.movein","P0_Q1.moveout","P0_Q1.shopping","P0_Q1.walk","P0_Q1.park","P0_Q1.school","age","sex","gender","gender-self-describe","zipcode","surveyComments"
"1","sliderTrial","html-slider-response",18,240248,"0.0-18.0",NA,"656776a7904ae00d6b91d1dd","6568a86b0cbcb4084b2158b2",7,NA,NA,NA,NA,NA,NA,NA,NA,NA,NA,NA,"11699","[""SV_PolicingMSA/MO_60/IMG_7_60.jpg"",""SV_PolicingMSA/MO_60/IMG_10_60.jpg"",""SV_PolicingMSA/MO_60/IMG_14_60.jpg"",""SV_PolicingMSA/MO_60/IMG_3_60.jpg"",""SV_PolicingMSA/MO_60/IMG_0_60.jpg"",""SV_PolicingMSA/MO_60/IMG_12_60.jpg"",""SV_PolicingMSA/MO_60/IMG_5_60.jpg"",""SV_PolicingMSA/MO_60/IMG_13_60.jpg""]","5",NA,NA,NA,NA,NA,4,NA,4,"[""./rc_img/cop_condGroup_2_SafeStreets_autoscaled.png"",""./rc_img/cop_condGroup_2_CommunitySafety_autoscaled.png""]",3,NA,NA,"MO_60/I","MO_60I",4,1,3,2,4,2,7,"MO_60I",4,2,2,3,1,1,"MO_60I",4,1,3,2,1,1,1,"37","male","man","","79924",""
"2","sliderTrial","html-slider-response",19,243715,"0.0-19.0",NA,"656776a7904ae00d6b91d1dd","6568a86b0cbcb4084b2158b2",7,NA,NA,NA,NA,NA,NA,NA,NA,NA,NA,NA,"3464","[""SV_PolicingMSA/MO_60/IMG_7_60.jpg"",""SV_PolicingMSA/MO_60/IMG_10_60.jpg"",""SV_PolicingMSA/MO_60/IMG_14_60.jpg"",""SV_PolicingMSA/MO_60/IMG_3_60.jpg"",""SV_PolicingMSA/MO_60/IMG_0_60.jpg"",""SV_PolicingMSA/MO_60/IMG_12_60.jpg"",""SV_PolicingMSA/MO_60/IMG_5_60.jpg"",""SV_PolicingMSA/MO_60/IMG_13_60.jpg""]","5",NA,NA,NA,NA,NA,4,NA,4,"[""./rc_img/cop_condGroup_14_SafeStreets_autoscaled.png"",""./rc_img/cop_condGroup_14_CommunitySafety_autoscaled.png""]",3,NA,NA,"MO_60/I","MO_60I",4,1,3,2,4,2,7,"MO_60I",4,2,2,3,1,1,"MO_60I",4,1,3,2,1,1,1,"37","male","man","","79924",""
"3","sliderTrial","html-slider-response",20,246576,"0.0-20.0",NA,"656776a7904ae00d6b91d1dd","6568a86b0cbcb4084b2158b2",7,NA,NA,NA,NA,NA,NA,NA,NA,NA,NA,NA,"2858","[""SV_PolicingMSA/MO_60/IMG_7_60.jpg"",""SV_PolicingMSA/MO_60/IMG_10_60.jpg"",""SV_PolicingMSA/MO_60/IMG_14_60.jpg"",""SV_PolicingMSA/MO_60/IMG_3_60.jpg"",""SV_PolicingMSA/MO_60/IMG_0_60.jpg"",""SV_PolicingMSA/MO_60/IMG_12_60.jpg"",""SV_PolicingMSA/MO_60/IMG_5_60.jpg"",""SV_PolicingMSA/MO_60/IMG_13_60.jpg""]","3",NA,NA,NA,NA,NA,4,NA,4,"[""./rc_img/cop_condGroup_18_CommunitySafety_autoscaled.png"",""./rc_img/cop_condGroup_18_SafeStreets_autoscaled.png""]",3,NA,NA,"MO_60/I","MO_60I",4,1,3,2,4,2,7,"MO_60I",4,2,2,3,1,1,"MO_60I",4,1,3,2,1,1,1,"37","male","man","","79924",""
"4","sliderTrial","html-slider-response",21,249912,"0.0-21.0",NA,"656776a7904ae00d6b91d1dd","6568a86b0cbcb4084b2158b2",7,NA,NA,NA,NA,NA,NA,NA,NA,NA,NA,NA,"3332","[""SV_PolicingMSA/MO_60/IMG_7_60.jpg"",""SV_PolicingMSA/MO_60/IMG_10_60.jpg"",""SV_PolicingMSA/MO_60/IMG_14_60.jpg"",""SV_PolicingMSA/MO_60/IMG_3_60.jpg"",""SV_PolicingMSA/MO_60/IMG_0_60.jpg"",""SV_PolicingMSA/MO_60/IMG_12_60.jpg"",""SV_PolicingMSA/MO_60/IMG_5_60.jpg"",""SV_PolicingMSA/MO_60/IMG_13_60.jpg""]","3",NA,NA,NA,NA,NA,4,NA,4,"[""./rc_img/cop_condGroup_19_CommunitySafety_autoscaled.png"",""./rc_img/cop_condGroup_19_SafeStreets_autoscaled.png""]",3,NA,NA,"MO_60/I","MO_60I",4,1,3,2,4,2,7,"MO_60I",4,2,2,3,1,1,"MO_60I",4,1,3,2,1,1,1,"37","male","man","","79924",""
"5","sliderTrial","html-slider-response",22,252038,"0.0-22.0",NA,"656776a7904ae00d6b91d1dd","6568a86b0cbcb4084b2158b2",7,NA,NA,NA,NA,NA,NA,NA,NA,NA,NA,NA,"2122","[""SV_PolicingMSA/MO_60/IMG_7_60.jpg"",""SV_PolicingMSA/MO_60/IMG_10_60.jpg"",""SV_PolicingMSA/MO_60/IMG_14_60.jpg"",""SV_PolicingMSA/MO_60/IMG_3_60.jpg"",""SV_PolicingMSA/MO_60/IMG_0_60.jpg"",""SV_PolicingMSA/MO_60/IMG_12_60.jpg"",""SV_PolicingMSA/MO_60/IMG_5_60.jpg"",""SV_PolicingMSA/MO_60/IMG_13_60.jpg""]","3",NA,NA,NA,NA,NA,4,NA,4,"[""./rc_img/cop_condGroup_13_CommunitySafety_autoscaled.png"",""./rc_img/cop_condGroup_13_SafeStreets_autoscaled.png""]",3,NA,NA,"MO_60/I","MO_60I",4,1,3,2,4,2,7,"MO_60I",4,2,2,3,1,1,"MO_60I",4,1,3,2,1,1,1,"37","male","man","","79924",""
"6","sliderTrial","html-slider-response",35,362358,"0.0-35.0",NA,"656776a7904ae00d6b91d1dd","6568a86b0cbcb4084b2158b2",7,NA,NA,NA,NA,NA,NA,NA,NA,NA,NA,NA,"14411","[""SV_PolicingMSA/MO_1278/IMG_6_1278.jpg"",""SV_PolicingMSA/MO_1278/IMG_0_1278.jpg"",""SV_PolicingMSA/MO_1278/IMG_14_1278.jpg"",""SV_PolicingMSA/MO_1278/IMG_4_1278.jpg"",""SV_PolicingMSA/MO_1278/IMG_9_1278.jpg"",""SV_PolicingMSA/MO_1278/IMG_1_1278.jpg"",""SV_PolicingMSA/MO_1278/IMG_2_1278.jpg"",""SV_PolicingMSA/MO_1278/IMG_12_1278.jpg""]","5",NA,NA,NA,NA,NA,5,NA,4,"[""./rc_img/cop_condGroup_1_CommunitySafety_autoscaled.png"",""./rc_img/cop_condGroup_1_SafeStreets_autoscaled.png""]",5,NA,NA,"MO_1278","MO_1278",5,3,3,2,3,2,8,"MO_1278",5,2,3,3,2,2,"MO_1278",5,2,3,2,2,2,2,"37","male","man","","79924",""
"7","sliderTrial","html-slider-response",36,369261,"0.0-36.0",NA,"656776a7904ae00d6b91d1dd","6568a86b0cbcb4084b2158b2",7,NA,NA,NA,NA,NA,NA,NA,NA,NA,NA,NA,"6900","[""SV_PolicingMSA/MO_1278/IMG_6_1278.jpg"",""SV_PolicingMSA/MO_1278/IMG_0_1278.jpg"",""SV_PolicingMSA/MO_1278/IMG_14_1278.jpg"",""SV_PolicingMSA/MO_1278/IMG_4_1278.jpg"",""SV_PolicingMSA/MO_1278/IMG_9_1278.jpg"",""SV_PolicingMSA/MO_1278/IMG_1_1278.jpg"",""SV_PolicingMSA/MO_1278/IMG_2_1278.jpg"",""SV_PolicingMSA/MO_1278/IMG_12_1278.jpg""]","6",NA,NA,NA,NA,NA,5,NA,4,"[""./rc_img/cop_condGroup_8_SafeStreets_autoscaled.png"",""./rc_img/cop_condGroup_8_CommunitySafety_autoscaled.png""]",2,NA,NA,"MO_1278","MO_1278",5,3,3,2,3,2,8,"MO_1278",5,2,3,3,2,2,"MO_1278",5,2,3,2,2,2,2,"37","male","man","","79924",""
"8","sliderTrial","html-slider-response",37,372225,"0.0-37.0",NA,"656776a7904ae00d6b91d1dd","6568a86b0cbcb4084b2158b2",7,NA,NA,NA,NA,NA,NA,NA,NA,NA,NA,NA,"2962","[""SV_PolicingMSA/MO_1278/IMG_6_1278.jpg"",""SV_PolicingMSA/MO_1278/IMG_0_1278.jpg"",""SV_PolicingMSA/MO_1278/IMG_14_1278.jpg"",""SV_PolicingMSA/MO_1278/IMG_4_1278.jpg"",""SV_PolicingMSA/MO_1278/IMG_9_1278.jpg"",""SV_PolicingMSA/MO_1278/IMG_1_1278.jpg"",""SV_PolicingMSA/MO_1278/IMG_2_1278.jpg"",""SV_PolicingMSA/MO_1278/IMG_12_1278.jpg""]","2",NA,NA,NA,NA,NA,5,NA,4,"[""./rc_img/cop_condGroup_20_CommunitySafety_autoscaled.png"",""./rc_img/cop_condGroup_20_SafeStreets_autoscaled.png""]",2,NA,NA,"MO_1278","MO_1278",5,3,3,2,3,2,8,"MO_1278",5,2,3,3,2,2,"MO_1278",5,2,3,2,2,2,2,"37","male","man","","79924",""
"9","sliderTrial","html-slider-response",38,376235,"0.0-38.0",NA,"656776a7904ae00d6b91d1dd","6568a86b0cbcb4084b2158b2",7,NA,NA,NA,NA,NA,NA,NA,NA,NA,NA,NA,"4007","[""SV_PolicingMSA/MO_1278/IMG_6_1278.jpg"",""SV_PolicingMSA/MO_1278/IMG_0_1278.jpg"",""SV_PolicingMSA/MO_1278/IMG_14_1278.jpg"",""SV_PolicingMSA/MO_1278/IMG_4_1278.jpg"",""SV_PolicingMSA/MO_1278/IMG_9_1278.jpg"",""SV_PolicingMSA/MO_1278/IMG_1_1278.jpg"",""SV_PolicingMSA/MO_1278/IMG_2_1278.jpg"",""SV_PolicingMSA/MO_1278/IMG_12_1278.jpg""]","2",NA,NA,NA,NA,NA,5,NA,4,"[""./rc_img/cop_condGroup_12_CommunitySafety_autoscaled.png"",""./rc_img/cop_condGroup_12_SafeStreets_autoscaled.png""]",2,NA,NA,"MO_1278","MO_1278",5,3,3,2,3,2,8,"MO_1278",5,2,3,3,2,2,"MO_1278",5,2,3,2,2,2,2,"37","male","man","","79924",""
"10","sliderTrial","html-slider-response",39,385327,"0.0-39.0",NA,"656776a7904ae00d6b91d1dd","6568a86b0cbcb4084b2158b2",7,NA,NA,NA,NA,NA,NA,NA,NA,NA,NA,NA,"9089","[""SV_PolicingMSA/MO_1278/IMG_6_1278.jpg"",""SV_PolicingMSA/MO_1278/IMG_0_1278.jpg"",""SV_PolicingMSA/MO_1278/IMG_14_1278.jpg"",""SV_PolicingMSA/MO_1278/IMG_4_1278.jpg"",""SV_PolicingMSA/MO_1278/IMG_9_1278.jpg"",""SV_PolicingMSA/MO_1278/IMG_1_1278.jpg"",""SV_PolicingMSA/MO_1278/IMG_2_1278.jpg"",""SV_PolicingMSA/MO_1278/IMG_12_1278.jpg""]","2",NA,NA,NA,NA,NA,5,NA,4,"[""./rc_img/cop_condGroup_15_CommunitySafety_autoscaled.png"",""./rc_img/cop_condGroup_15_SafeStreets_autoscaled.png""]",2,NA,NA,"MO_1278","MO_1278",5,3,3,2,3,2,8,"MO_1278",5,2,3,3,2,2,"MO_1278",5,2,3,2,2,2,2,"37","male","man","","79924",""
"11","sliderTrial","html-slider-response",52,456434,"0.0-52.0",NA,"656776a7904ae00d6b91d1dd","6568a86b0cbcb4084b2158b2",7,NA,NA,NA,NA,NA,NA,NA,NA,NA,NA,NA,"4060","[""SV_PolicingMSA/MO_982/IMG_0_982.jpg"",""SV_PolicingMSA/MO_982/IMG_12_982.jpg"",""SV_PolicingMSA/MO_982/IMG_10_982.jpg"",""SV_PolicingMSA/MO_982/IMG_7_982.jpg"",""SV_PolicingMSA/MO_982/IMG_14_982.jpg"",""SV_PolicingMSA/MO_982/IMG_13_982.jpg"",""SV_PolicingMSA/MO_982/IMG_8_982.jpg"",""SV_PolicingMSA/MO_982/IMG_2_982.jpg""]","6",NA,NA,NA,NA,NA,2,NA,4,"[""./rc_img/cop_condGroup_2_SafeStreets_autoscaled.png"",""./rc_img/cop_condGroup_2_CommunitySafety_autoscaled.png""]",2,NA,NA,"MO_982/","MO_982",2,3,3,3,2,3,3,"MO_982",2,3,2,3,3,3,"MO_982",2,2,2,2,3,3,2,"37","male","man","","79924",""
"12","sliderTrial","html-slider-response",53,459017,"0.0-53.0",NA,"656776a7904ae00d6b91d1dd","6568a86b0cbcb4084b2158b2",7,NA,NA,NA,NA,NA,NA,NA,NA,NA,NA,NA,"2580","[""SV_PolicingMSA/MO_982/IMG_0_982.jpg"",""SV_PolicingMSA/MO_982/IMG_12_982.jpg"",""SV_PolicingMSA/MO_982/IMG_10_982.jpg"",""SV_PolicingMSA/MO_982/IMG_7_982.jpg"",""SV_PolicingMSA/MO_982/IMG_14_982.jpg"",""SV_PolicingMSA/MO_982/IMG_13_982.jpg"",""SV_PolicingMSA/MO_982/IMG_8_982.jpg"",""SV_PolicingMSA/MO_982/IMG_2_982.jpg""]","6",NA,NA,NA,NA,NA,2,NA,4,"[""./rc_img/cop_condGroup_14_SafeStreets_autoscaled.png"",""./rc_img/cop_condGroup_14_CommunitySafety_autoscaled.png""]",2,NA,NA,"MO_982/","MO_982",2,3,3,3,2,3,3,"MO_982",2,3,2,3,3,3,"MO_982",2,2,2,2,3,3,2,"37","male","man","","79924",""
"13","sliderTrial","html-slider-response",54,464742,"0.0-54.0",NA,"656776a7904ae00d6b91d1dd","6568a86b0cbcb4084b2158b2",7,NA,NA,NA,NA,NA,NA,NA,NA,NA,NA,NA,"5722","[""SV_PolicingMSA/MO_982/IMG_0_982.jpg"",""SV_PolicingMSA/MO_982/IMG_12_982.jpg"",""SV_PolicingMSA/MO_982/IMG_10_982.jpg"",""SV_PolicingMSA/MO_982/IMG_7_982.jpg"",""SV_PolicingMSA/MO_982/IMG_14_982.jpg"",""SV_PolicingMSA/MO_982/IMG_13_982.jpg"",""SV_PolicingMSA/MO_982/IMG_8_982.jpg"",""SV_PolicingMSA/MO_982/IMG_2_982.jpg""]","1",NA,NA,NA,NA,NA,2,NA,4,"[""./rc_img/cop_condGroup_18_CommunitySafety_autoscaled.png"",""./rc_img/cop_condGroup_18_SafeStreets_autoscaled.png""]",1,NA,NA,"MO_982/","MO_982",2,3,3,3,2,3,3,"MO_982",2,3,2,3,3,3,"MO_982",2,2,2,2,3,3,2,"37","male","man","","79924",""
"14","sliderTrial","html-slider-response",55,468386,"0.0-55.0",NA,"656776a7904ae00d6b91d1dd","6568a86b0cbcb4084b2158b2",7,NA,NA,NA,NA,NA,NA,NA,NA,NA,NA,NA,"3642","[""SV_PolicingMSA/MO_982/IMG_0_982.jpg"",""SV_PolicingMSA/MO_982/IMG_12_982.jpg"",""SV_PolicingMSA/MO_982/IMG_10_982.jpg"",""SV_PolicingMSA/MO_982/IMG_7_982.jpg"",""SV_PolicingMSA/MO_982/IMG_14_982.jpg"",""SV_PolicingMSA/MO_982/IMG_13_982.jpg"",""SV_PolicingMSA/MO_982/IMG_8_982.jpg"",""SV_PolicingMSA/MO_982/IMG_2_982.jpg""]","3",NA,NA,NA,NA,NA,2,NA,4,"[""./rc_img/cop_condGroup_19_CommunitySafety_autoscaled.png"",""./rc_img/cop_condGroup_19_SafeStreets_autoscaled.png""]",3,NA,NA,"MO_982/","MO_982",2,3,3,3,2,3,3,"MO_982",2,3,2,3,3,3,"MO_982",2,2,2,2,3,3,2,"37","male","man","","79924",""
"15","sliderTrial","html-slider-response",56,470849,"0.0-56.0",NA,"656776a7904ae00d6b91d1dd","6568a86b0cbcb4084b2158b2",7,NA,NA,NA,NA,NA,NA,NA,NA,NA,NA,NA,"2460","[""SV_PolicingMSA/MO_982/IMG_0_982.jpg"",""SV_PolicingMSA/MO_982/IMG_12_982.jpg"",""SV_PolicingMSA/MO_982/IMG_10_982.jpg"",""SV_PolicingMSA/MO_982/IMG_7_982.jpg"",""SV_PolicingMSA/MO_982/IMG_14_982.jpg"",""SV_PolicingMSA/MO_982/IMG_13_982.jpg"",""SV_PolicingMSA/MO_982/IMG_8_982.jpg"",""SV_PolicingMSA/MO_982/IMG_2_982.jpg""]","2",NA,NA,NA,NA,NA,2,NA,4,"[""./rc_img/cop_condGroup_13_CommunitySafety_autoscaled.png"",""./rc_img/cop_condGroup_13_SafeStreets_autoscaled.png""]",2,NA,NA,"MO_982/","MO_982",2,3,3,3,2,3,3,"MO_982",2,3,2,3,3,3,"MO_982",2,2,2,2,3,3,2,"37","male","man","","79924",""
"16","sliderTrial","html-slider-response",69,603785,"0.0-69.0",NA,"656776a7904ae00d6b91d1dd","6568a86b0cbcb4084b2158b2",7,NA,NA,NA,NA,NA,NA,NA,NA,NA,NA,NA,"88735","[""SV_PolicingMSA/MO_1004/IMG_5_1004.jpg"",""SV_PolicingMSA/MO_1004/IMG_3_1004.jpg"",""SV_PolicingMSA/MO_1004/IMG_0_1004.jpg"",""SV_PolicingMSA/MO_1004/IMG_14_1004.jpg"",""SV_PolicingMSA/MO_1004/IMG_6_1004.jpg"",""SV_PolicingMSA/MO_1004/IMG_9_1004.jpg"",""SV_PolicingMSA/MO_1004/IMG_12_1004.jpg"",""SV_PolicingMSA/MO_1004/IMG_1_1004.jpg""]","1",NA,NA,NA,NA,NA,1,NA,4,"[""./rc_img/cop_condGroup_3_CommunitySafety_autoscaled.png"",""./rc_img/cop_condGroup_3_SafeStreets_autoscaled.png""]",1,NA,NA,"MO_1004","MO_1004",1,2,2,3,3,1,2,"MO_1004",1,3,3,3,1,2,"MO_1004",1,1,4,1,1,1,0,"37","male","man","","79924",""
"17","sliderTrial_attention","html-slider-response",70,613801,"0.0-70.0",NA,"656776a7904ae00d6b91d1dd","6568a86b0cbcb4084b2158b2",7,NA,NA,NA,NA,NA,NA,NA,NA,NA,NA,NA,"null","[""SV_PolicingMSA/MO_1004/IMG_5_1004.jpg"",""SV_PolicingMSA/MO_1004/IMG_3_1004.jpg"",""SV_PolicingMSA/MO_1004/IMG_0_1004.jpg"",""SV_PolicingMSA/MO_1004/IMG_14_1004.jpg"",""SV_PolicingMSA/MO_1004/IMG_6_1004.jpg"",""SV_PolicingMSA/MO_1004/IMG_9_1004.jpg"",""SV_PolicingMSA/MO_1004/IMG_12_1004.jpg"",""SV_PolicingMSA/MO_1004/IMG_1_1004.jpg""]","null",NA,NA,NA,NA,NA,1,NA,4,"[""./assets/img/attnchk.png"",""./assets/img/attnchk.png""]",NA,TRUE,NA,"MO_1004","MO_1004",1,2,2,3,3,1,2,"MO_1004",1,3,3,3,1,2,"MO_1004",1,1,4,1,1,1,0,"37","male","man","","79924",""
"18","sliderTrial","html-slider-response",71,618100,"0.0-71.0",NA,"656776a7904ae00d6b91d1dd","6568a86b0cbcb4084b2158b2",7,NA,NA,NA,NA,NA,NA,NA,NA,NA,NA,NA,"4257","[""SV_PolicingMSA/MO_1004/IMG_5_1004.jpg"",""SV_PolicingMSA/MO_1004/IMG_3_1004.jpg"",""SV_PolicingMSA/MO_1004/IMG_0_1004.jpg"",""SV_PolicingMSA/MO_1004/IMG_14_1004.jpg"",""SV_PolicingMSA/MO_1004/IMG_6_1004.jpg"",""SV_PolicingMSA/MO_1004/IMG_9_1004.jpg"",""SV_PolicingMSA/MO_1004/IMG_12_1004.jpg"",""SV_PolicingMSA/MO_1004/IMG_1_1004.jpg""]","1",NA,NA,NA,NA,NA,1,NA,4,"[""./rc_img/cop_condGroup_11_CommunitySafety_autoscaled.png"",""./rc_img/cop_condGroup_11_SafeStreets_autoscaled.png""]",1,NA,NA,"MO_1004","MO_1004",1,2,2,3,3,1,2,"MO_1004",1,3,3,3,1,2,"MO_1004",1,1,4,1,1,1,0,"37","male","man","","79924",""
"19","sliderTrial","html-slider-response",72,620980,"0.0-72.0",NA,"656776a7904ae00d6b91d1dd","6568a86b0cbcb4084b2158b2",7,NA,NA,NA,NA,NA,NA,NA,NA,NA,NA,NA,"2877","[""SV_PolicingMSA/MO_1004/IMG_5_1004.jpg"",""SV_PolicingMSA/MO_1004/IMG_3_1004.jpg"",""SV_PolicingMSA/MO_1004/IMG_0_1004.jpg"",""SV_PolicingMSA/MO_1004/IMG_14_1004.jpg"",""SV_PolicingMSA/MO_1004/IMG_6_1004.jpg"",""SV_PolicingMSA/MO_1004/IMG_9_1004.jpg"",""SV_PolicingMSA/MO_1004/IMG_12_1004.jpg"",""SV_PolicingMSA/MO_1004/IMG_1_1004.jpg""]","2",NA,NA,NA,NA,NA,1,NA,4,"[""./rc_img/cop_condGroup_16_CommunitySafety_autoscaled.png"",""./rc_img/cop_condGroup_16_SafeStreets_autoscaled.png""]",2,NA,NA,"MO_1004","MO_1004",1,2,2,3,3,1,2,"MO_1004",1,3,3,3,1,2,"MO_1004",1,1,4,1,1,1,0,"37","male","man","","79924",""
"20","sliderTrial","html-slider-response",73,623474,"0.0-73.0",NA,"656776a7904ae00d6b91d1dd","6568a86b0cbcb4084b2158b2",7,NA,NA,NA,NA,NA,NA,NA,NA,NA,NA,NA,"2492","[""SV_PolicingMSA/MO_1004/IMG_5_1004.jpg"",""SV_PolicingMSA/MO_1004/IMG_3_1004.jpg"",""SV_PolicingMSA/MO_1004/IMG_0_1004.jpg"",""SV_PolicingMSA/MO_1004/IMG_14_1004.jpg"",""SV_PolicingMSA/MO_1004/IMG_6_1004.jpg"",""SV_PolicingMSA/MO_1004/IMG_9_1004.jpg"",""SV_PolicingMSA/MO_1004/IMG_12_1004.jpg"",""SV_PolicingMSA/MO_1004/IMG_1_1004.jpg""]","2",NA,NA,NA,NA,NA,1,NA,4,"[""./rc_img/cop_condGroup_7_CommunitySafety_autoscaled.png"",""./rc_img/cop_condGroup_7_SafeStreets_autoscaled.png""]",2,NA,NA,"MO_1004","MO_1004",1,2,2,3,3,1,2,"MO_1004",1,3,3,3,1,2,"MO_1004",1,1,4,1,1,1,0,"37","male","man","","79924",""
"21","sliderTrial","html-slider-response",74,626171,"0.0-74.0",NA,"656776a7904ae00d6b91d1dd","6568a86b0cbcb4084b2158b2",7,NA,NA,NA,NA,NA,NA,NA,NA,NA,NA,NA,"2694","[""SV_PolicingMSA/MO_1004/IMG_5_1004.jpg"",""SV_PolicingMSA/MO_1004/IMG_3_1004.jpg"",""SV_PolicingMSA/MO_1004/IMG_0_1004.jpg"",""SV_PolicingMSA/MO_1004/IMG_14_1004.jpg"",""SV_PolicingMSA/MO_1004/IMG_6_1004.jpg"",""SV_PolicingMSA/MO_1004/IMG_9_1004.jpg"",""SV_PolicingMSA/MO_1004/IMG_12_1004.jpg"",""SV_PolicingMSA/MO_1004/IMG_1_1004.jpg""]","6",NA,NA,NA,NA,NA,1,NA,4,"[""./rc_img/cop_condGroup_9_SafeStreets_autoscaled.png"",""./rc_img/cop_condGroup_9_CommunitySafety_autoscaled.png""]",2,NA,NA,"MO_1004","MO_1004",1,2,2,3,3,1,2,"MO_1004",1,3,3,3,1,2,"MO_1004",1,1,4,1,1,1,0,"37","male","man","","79924",""
"22","sliderTrial","html-slider-response",88,764785,"0.0-88.0",NA,"656776a7904ae00d6b91d1dd","6568a86b0cbcb4084b2158b2",7,NA,NA,NA,NA,NA,NA,NA,NA,NA,NA,NA,"4138","[""SV_PolicingMSA/MO_1289/IMG_7_1289.jpg"",""SV_PolicingMSA/MO_1289/IMG_11_1289.jpg"",""SV_PolicingMSA/MO_1289/IMG_5_1289.jpg"",""SV_PolicingMSA/MO_1289/IMG_4_1289.jpg"",""SV_PolicingMSA/MO_1289/IMG_6_1289.jpg"",""SV_PolicingMSA/MO_1289/IMG_3_1289.jpg"",""SV_PolicingMSA/MO_1289/IMG_1_1289.jpg"",""SV_PolicingMSA/MO_1289/IMG_8_1289.jpg""]","1",NA,NA,NA,NA,NA,3,NA,4,"[""./rc_img/cop_condGroup_3_CommunitySafety_autoscaled.png"",""./rc_img/cop_condGroup_3_SafeStreets_autoscaled.png""]",1,NA,NA,"MO_1289","MO_1289",3,3,4,2,4,1,5,"MO_1289",3,2,2,2,3,3,"MO_1289",3,3,1,4,3,3,3,"37","male","man","","79924",""
"23","sliderTrial","html-slider-response",89,767022,"0.0-89.0",NA,"656776a7904ae00d6b91d1dd","6568a86b0cbcb4084b2158b2",7,NA,NA,NA,NA,NA,NA,NA,NA,NA,NA,NA,"2234","[""SV_PolicingMSA/MO_1289/IMG_7_1289.jpg"",""SV_PolicingMSA/MO_1289/IMG_11_1289.jpg"",""SV_PolicingMSA/MO_1289/IMG_5_1289.jpg"",""SV_PolicingMSA/MO_1289/IMG_4_1289.jpg"",""SV_PolicingMSA/MO_1289/IMG_6_1289.jpg"",""SV_PolicingMSA/MO_1289/IMG_3_1289.jpg"",""SV_PolicingMSA/MO_1289/IMG_1_1289.jpg"",""SV_PolicingMSA/MO_1289/IMG_8_1289.jpg""]","1",NA,NA,NA,NA,NA,3,NA,4,"[""./rc_img/cop_condGroup_11_CommunitySafety_autoscaled.png"",""./rc_img/cop_condGroup_11_SafeStreets_autoscaled.png""]",1,NA,NA,"MO_1289","MO_1289",3,3,4,2,4,1,5,"MO_1289",3,2,2,2,3,3,"MO_1289",3,3,1,4,3,3,3,"37","male","man","","79924",""
"24","sliderTrial","html-slider-response",90,769561,"0.0-90.0",NA,"656776a7904ae00d6b91d1dd","6568a86b0cbcb4084b2158b2",7,NA,NA,NA,NA,NA,NA,NA,NA,NA,NA,NA,"2536","[""SV_PolicingMSA/MO_1289/IMG_7_1289.jpg"",""SV_PolicingMSA/MO_1289/IMG_11_1289.jpg"",""SV_PolicingMSA/MO_1289/IMG_5_1289.jpg"",""SV_PolicingMSA/MO_1289/IMG_4_1289.jpg"",""SV_PolicingMSA/MO_1289/IMG_6_1289.jpg"",""SV_PolicingMSA/MO_1289/IMG_3_1289.jpg"",""SV_PolicingMSA/MO_1289/IMG_1_1289.jpg"",""SV_PolicingMSA/MO_1289/IMG_8_1289.jpg""]","1",NA,NA,NA,NA,NA,3,NA,4,"[""./rc_img/cop_condGroup_16_CommunitySafety_autoscaled.png"",""./rc_img/cop_condGroup_16_SafeStreets_autoscaled.png""]",1,NA,NA,"MO_1289","MO_1289",3,3,4,2,4,1,5,"MO_1289",3,2,2,2,3,3,"MO_1289",3,3,1,4,3,3,3,"37","male","man","","79924",""
"25","sliderTrial","html-slider-response",91,771415,"0.0-91.0",NA,"656776a7904ae00d6b91d1dd","6568a86b0cbcb4084b2158b2",7,NA,NA,NA,NA,NA,NA,NA,NA,NA,NA,NA,"1851","[""SV_PolicingMSA/MO_1289/IMG_7_1289.jpg"",""SV_PolicingMSA/MO_1289/IMG_11_1289.jpg"",""SV_PolicingMSA/MO_1289/IMG_5_1289.jpg"",""SV_PolicingMSA/MO_1289/IMG_4_1289.jpg"",""SV_PolicingMSA/MO_1289/IMG_6_1289.jpg"",""SV_PolicingMSA/MO_1289/IMG_3_1289.jpg"",""SV_PolicingMSA/MO_1289/IMG_1_1289.jpg"",""SV_PolicingMSA/MO_1289/IMG_8_1289.jpg""]","1",NA,NA,NA,NA,NA,3,NA,4,"[""./rc_img/cop_condGroup_7_CommunitySafety_autoscaled.png"",""./rc_img/cop_condGroup_7_SafeStreets_autoscaled.png""]",1,NA,NA,"MO_1289","MO_1289",3,3,4,2,4,1,5,"MO_1289",3,2,2,2,3,3,"MO_1289",3,3,1,4,3,3,3,"37","male","man","","79924",""
"26","sliderTrial","html-slider-response",92,773448,"0.0-92.0",NA,"656776a7904ae00d6b91d1dd","6568a86b0cbcb4084b2158b2",7,NA,NA,NA,NA,NA,NA,NA,NA,NA,NA,NA,"2031","[""SV_PolicingMSA/MO_1289/IMG_7_1289.jpg"",""SV_PolicingMSA/MO_1289/IMG_11_1289.jpg"",""SV_PolicingMSA/MO_1289/IMG_5_1289.jpg"",""SV_PolicingMSA/MO_1289/IMG_4_1289.jpg"",""SV_PolicingMSA/MO_1289/IMG_6_1289.jpg"",""SV_PolicingMSA/MO_1289/IMG_3_1289.jpg"",""SV_PolicingMSA/MO_1289/IMG_1_1289.jpg"",""SV_PolicingMSA/MO_1289/IMG_8_1289.jpg""]","7",NA,NA,NA,NA,NA,3,NA,4,"[""./rc_img/cop_condGroup_9_SafeStreets_autoscaled.png"",""./rc_img/cop_condGroup_9_CommunitySafety_autoscaled.png""]",1,NA,NA,"MO_1289","MO_1289",3,3,4,2,4,1,5,"MO_1289",3,2,2,2,3,3,"MO_1289",3,3,1,4,3,3,3,"37","male","man","","79924",""
"27","sliderTrial","html-slider-response",105,860942,"0.0-105.0",NA,"656776a7904ae00d6b91d1dd","6568a86b0cbcb4084b2158b2",7,NA,NA,NA,NA,NA,NA,NA,NA,NA,NA,NA,"2750","[""SV_PolicingMSA/MO_1031/IMG_13_1031.jpg"",""SV_PolicingMSA/MO_1031/IMG_9_1031.jpg"",""SV_PolicingMSA/MO_1031/IMG_12_1031.jpg"",""SV_PolicingMSA/MO_1031/IMG_11_1031.jpg"",""SV_PolicingMSA/MO_1031/IMG_7_1031.jpg"",""SV_PolicingMSA/MO_1031/IMG_0_1031.jpg"",""SV_PolicingMSA/MO_1031/IMG_3_1031.jpg"",""SV_PolicingMSA/MO_1031/IMG_2_1031.jpg""]","7",NA,NA,NA,NA,NA,0,NA,4,"[""./rc_img/cop_condGroup_17_SafeStreets_autoscaled.png"",""./rc_img/cop_condGroup_17_CommunitySafety_autoscaled.png""]",1,NA,NA,"MO_1031","MO_1031",0,2,3,0,4,1,1,"MO_1031",0,2,2,2,1,1,"MO_1031",0,1,4,1,2,1,2,"37","male","man","","79924",""
"28","sliderTrial_attention","html-slider-response",106,870959,"0.0-106.0",NA,"656776a7904ae00d6b91d1dd","6568a86b0cbcb4084b2158b2",7,NA,NA,NA,NA,NA,NA,NA,NA,NA,NA,NA,"null","[""SV_PolicingMSA/MO_1031/IMG_13_1031.jpg"",""SV_PolicingMSA/MO_1031/IMG_9_1031.jpg"",""SV_PolicingMSA/MO_1031/IMG_12_1031.jpg"",""SV_PolicingMSA/MO_1031/IMG_11_1031.jpg"",""SV_PolicingMSA/MO_1031/IMG_7_1031.jpg"",""SV_PolicingMSA/MO_1031/IMG_0_1031.jpg"",""SV_PolicingMSA/MO_1031/IMG_3_1031.jpg"",""SV_PolicingMSA/MO_1031/IMG_2_1031.jpg""]","null",NA,NA,NA,NA,NA,0,NA,4,"[""./assets/img/attnchk.png"",""./assets/img/attnchk.png""]",NA,TRUE,NA,"MO_1031","MO_1031",0,2,3,0,4,1,1,"MO_1031",0,2,2,2,1,1,"MO_1031",0,1,4,1,2,1,2,"37","male","man","","79924",""
"29","sliderTrial","html-slider-response",107,875776,"0.0-107.0",NA,"656776a7904ae00d6b91d1dd","6568a86b0cbcb4084b2158b2",7,NA,NA,NA,NA,NA,NA,NA,NA,NA,NA,NA,"4810","[""SV_PolicingMSA/MO_1031/IMG_13_1031.jpg"",""SV_PolicingMSA/MO_1031/IMG_9_1031.jpg"",""SV_PolicingMSA/MO_1031/IMG_12_1031.jpg"",""SV_PolicingMSA/MO_1031/IMG_11_1031.jpg"",""SV_PolicingMSA/MO_1031/IMG_7_1031.jpg"",""SV_PolicingMSA/MO_1031/IMG_0_1031.jpg"",""SV_PolicingMSA/MO_1031/IMG_3_1031.jpg"",""SV_PolicingMSA/MO_1031/IMG_2_1031.jpg""]","1",NA,NA,NA,NA,NA,0,NA,4,"[""./rc_img/cop_condGroup_5_CommunitySafety_autoscaled.png"",""./rc_img/cop_condGroup_5_SafeStreets_autoscaled.png""]",1,NA,NA,"MO_1031","MO_1031",0,2,3,0,4,1,1,"MO_1031",0,2,2,2,1,1,"MO_1031",0,1,4,1,2,1,2,"37","male","man","","79924",""
"30","sliderTrial","html-slider-response",108,878977,"0.0-108.0",NA,"656776a7904ae00d6b91d1dd","6568a86b0cbcb4084b2158b2",7,NA,NA,NA,NA,NA,NA,NA,NA,NA,NA,NA,"3199","[""SV_PolicingMSA/MO_1031/IMG_13_1031.jpg"",""SV_PolicingMSA/MO_1031/IMG_9_1031.jpg"",""SV_PolicingMSA/MO_1031/IMG_12_1031.jpg"",""SV_PolicingMSA/MO_1031/IMG_11_1031.jpg"",""SV_PolicingMSA/MO_1031/IMG_7_1031.jpg"",""SV_PolicingMSA/MO_1031/IMG_0_1031.jpg"",""SV_PolicingMSA/MO_1031/IMG_3_1031.jpg"",""SV_PolicingMSA/MO_1031/IMG_2_1031.jpg""]","1",NA,NA,NA,NA,NA,0,NA,4,"[""./rc_img/cop_condGroup_4_CommunitySafety_autoscaled.png"",""./rc_img/cop_condGroup_4_SafeStreets_autoscaled.png""]",1,NA,NA,"MO_1031","MO_1031",0,2,3,0,4,1,1,"MO_1031",0,2,2,2,1,1,"MO_1031",0,1,4,1,2,1,2,"37","male","man","","79924",""
"31","sliderTrial","html-slider-response",109,882447,"0.0-109.0",NA,"656776a7904ae00d6b91d1dd","6568a86b0cbcb4084b2158b2",7,NA,NA,NA,NA,NA,NA,NA,NA,NA,NA,NA,"3467","[""SV_PolicingMSA/MO_1031/IMG_13_1031.jpg"",""SV_PolicingMSA/MO_1031/IMG_9_1031.jpg"",""SV_PolicingMSA/MO_1031/IMG_12_1031.jpg"",""SV_PolicingMSA/MO_1031/IMG_11_1031.jpg"",""SV_PolicingMSA/MO_1031/IMG_7_1031.jpg"",""SV_PolicingMSA/MO_1031/IMG_0_1031.jpg"",""SV_PolicingMSA/MO_1031/IMG_3_1031.jpg"",""SV_PolicingMSA/MO_1031/IMG_2_1031.jpg""]","1",NA,NA,NA,NA,NA,0,NA,4,"[""./rc_img/cop_condGroup_10_CommunitySafety_autoscaled.png"",""./rc_img/cop_condGroup_10_SafeStreets_autoscaled.png""]",1,NA,NA,"MO_1031","MO_1031",0,2,3,0,4,1,1,"MO_1031",0,2,2,2,1,1,"MO_1031",0,1,4,1,2,1,2,"37","male","man","","79924",""
"32","sliderTrial","html-slider-response",110,884316,"0.0-110.0",NA,"656776a7904ae00d6b91d1dd","6568a86b0cbcb4084b2158b2",7,NA,NA,NA,NA,NA,NA,NA,NA,NA,NA,NA,"1865","[""SV_PolicingMSA/MO_1031/IMG_13_1031.jpg"",""SV_PolicingMSA/MO_1031/IMG_9_1031.jpg"",""SV_PolicingMSA/MO_1031/IMG_12_1031.jpg"",""SV_PolicingMSA/MO_1031/IMG_11_1031.jpg"",""SV_PolicingMSA/MO_1031/IMG_7_1031.jpg"",""SV_PolicingMSA/MO_1031/IMG_0_1031.jpg"",""SV_PolicingMSA/MO_1031/IMG_3_1031.jpg"",""SV_PolicingMSA/MO_1031/IMG_2_1031.jpg""]","2",NA,NA,NA,NA,NA,0,NA,4,"[""./rc_img/cop_condGroup_6_CommunitySafety_autoscaled.png"",""./rc_img/cop_condGroup_6_SafeStreets_autoscaled.png""]",2,NA,NA,"MO_1031","MO_1031",0,2,3,0,4,1,1,"MO_1031",0,2,2,2,1,1,"MO_1031",0,1,4,1,2,1,2,"37","male","man","","79924",""
"33","sliderTrial","html-slider-response",123,962581,"0.0-123.0",NA,"656776a7904ae00d6b91d1dd","6568a86b0cbcb4084b2158b2",7,NA,NA,NA,NA,NA,NA,NA,NA,NA,NA,NA,"13270","[""SV_PolicingMSA/MO_589/IMG_13_589.jpg"",""SV_PolicingMSA/MO_589/IMG_8_589.jpg"",""SV_PolicingMSA/MO_589/IMG_4_589.jpg"",""SV_PolicingMSA/MO_589/IMG_1_589.jpg"",""SV_PolicingMSA/MO_589/IMG_10_589.jpg"",""SV_PolicingMSA/MO_589/IMG_9_589.jpg"",""SV_PolicingMSA/MO_589/IMG_0_589.jpg"",""SV_PolicingMSA/MO_589/IMG_12_589.jpg""]","6",NA,NA,NA,NA,NA,2,NA,4,"[""./rc_img/cop_condGroup_17_SafeStreets_autoscaled.png"",""./rc_img/cop_condGroup_17_CommunitySafety_autoscaled.png""]",2,NA,NA,"MO_589/","MO_589",2,1,2,0,4,1,4,"MO_589",2,2,2,1,2,1,"MO_589",2,1,3,1,3,1,2,"37","male","man","","79924",""
"34","sliderTrial","html-slider-response",124,968222,"0.0-124.0",NA,"656776a7904ae00d6b91d1dd","6568a86b0cbcb4084b2158b2",7,NA,NA,NA,NA,NA,NA,NA,NA,NA,NA,NA,"5639","[""SV_PolicingMSA/MO_589/IMG_13_589.jpg"",""SV_PolicingMSA/MO_589/IMG_8_589.jpg"",""SV_PolicingMSA/MO_589/IMG_4_589.jpg"",""SV_PolicingMSA/MO_589/IMG_1_589.jpg"",""SV_PolicingMSA/MO_589/IMG_10_589.jpg"",""SV_PolicingMSA/MO_589/IMG_9_589.jpg"",""SV_PolicingMSA/MO_589/IMG_0_589.jpg"",""SV_PolicingMSA/MO_589/IMG_12_589.jpg""]","2",NA,NA,NA,NA,NA,2,NA,4,"[""./rc_img/cop_condGroup_5_CommunitySafety_autoscaled.png"",""./rc_img/cop_condGroup_5_SafeStreets_autoscaled.png""]",2,NA,NA,"MO_589/","MO_589",2,1,2,0,4,1,4,"MO_589",2,2,2,1,2,1,"MO_589",2,1,3,1,3,1,2,"37","male","man","","79924",""
"35","sliderTrial","html-slider-response",125,992778,"0.0-125.0",NA,"656776a7904ae00d6b91d1dd","6568a86b0cbcb4084b2158b2",7,NA,NA,NA,NA,NA,NA,NA,NA,NA,NA,NA,"24553","[""SV_PolicingMSA/MO_589/IMG_13_589.jpg"",""SV_PolicingMSA/MO_589/IMG_8_589.jpg"",""SV_PolicingMSA/MO_589/IMG_4_589.jpg"",""SV_PolicingMSA/MO_589/IMG_1_589.jpg"",""SV_PolicingMSA/MO_589/IMG_10_589.jpg"",""SV_PolicingMSA/MO_589/IMG_9_589.jpg"",""SV_PolicingMSA/MO_589/IMG_0_589.jpg"",""SV_PolicingMSA/MO_589/IMG_12_589.jpg""]","1",NA,NA,NA,NA,NA,2,NA,4,"[""./rc_img/cop_condGroup_4_CommunitySafety_autoscaled.png"",""./rc_img/cop_condGroup_4_SafeStreets_autoscaled.png""]",1,NA,NA,"MO_589/","MO_589",2,1,2,0,4,1,4,"MO_589",2,2,2,1,2,1,"MO_589",2,1,3,1,3,1,2,"37","male","man","","79924",""
"36","sliderTrial","html-slider-response",126,1007148,"0.0-126.0",NA,"656776a7904ae00d6b91d1dd","6568a86b0cbcb4084b2158b2",7,NA,NA,NA,NA,NA,NA,NA,NA,NA,NA,NA,"14367","[""SV_PolicingMSA/MO_589/IMG_13_589.jpg"",""SV_PolicingMSA/MO_589/IMG_8_589.jpg"",""SV_PolicingMSA/MO_589/IMG_4_589.jpg"",""SV_PolicingMSA/MO_589/IMG_1_589.jpg"",""SV_PolicingMSA/MO_589/IMG_10_589.jpg"",""SV_PolicingMSA/MO_589/IMG_9_589.jpg"",""SV_PolicingMSA/MO_589/IMG_0_589.jpg"",""SV_PolicingMSA/MO_589/IMG_12_589.jpg""]","1",NA,NA,NA,NA,NA,2,NA,4,"[""./rc_img/cop_condGroup_10_CommunitySafety_autoscaled.png"",""./rc_img/cop_condGroup_10_SafeStreets_autoscaled.png""]",1,NA,NA,"MO_589/","MO_589",2,1,2,0,4,1,4,"MO_589",2,2,2,1,2,1,"MO_589",2,1,3,1,3,1,2,"37","male","man","","79924",""
"37","sliderTrial","html-slider-response",127,1010829,"0.0-127.0",NA,"656776a7904ae00d6b91d1dd","6568a86b0cbcb4084b2158b2",7,NA,NA,NA,NA,NA,NA,NA,NA,NA,NA,NA,"3678","[""SV_PolicingMSA/MO_589/IMG_13_589.jpg"",""SV_PolicingMSA/MO_589/IMG_8_589.jpg"",""SV_PolicingMSA/MO_589/IMG_4_589.jpg"",""SV_PolicingMSA/MO_589/IMG_1_589.jpg"",""SV_PolicingMSA/MO_589/IMG_10_589.jpg"",""SV_PolicingMSA/MO_589/IMG_9_589.jpg"",""SV_PolicingMSA/MO_589/IMG_0_589.jpg"",""SV_PolicingMSA/MO_589/IMG_12_589.jpg""]","1",NA,NA,NA,NA,NA,2,NA,4,"[""./rc_img/cop_condGroup_6_CommunitySafety_autoscaled.png"",""./rc_img/cop_condGroup_6_SafeStreets_autoscaled.png""]",1,NA,NA,"MO_589/","MO_589",2,1,2,0,4,1,4,"MO_589",2,2,2,1,2,1,"MO_589",2,1,3,1,3,1,2,"37","male","man","","79924",""
"38","sliderTrial","html-slider-response",140,1074282,"0.0-140.0",NA,"656776a7904ae00d6b91d1dd","6568a86b0cbcb4084b2158b2",7,NA,NA,NA,NA,NA,NA,NA,NA,NA,NA,NA,"3113","[""SV_PolicingMSA/MO_628/IMG_14_628.jpg"",""SV_PolicingMSA/MO_628/IMG_10_628.jpg"",""SV_PolicingMSA/MO_628/IMG_6_628.jpg"",""SV_PolicingMSA/MO_628/IMG_9_628.jpg"",""SV_PolicingMSA/MO_628/IMG_4_628.jpg"",""SV_PolicingMSA/MO_628/IMG_1_628.jpg"",""SV_PolicingMSA/MO_628/IMG_5_628.jpg"",""SV_PolicingMSA/MO_628/IMG_0_628.jpg""]","1",NA,NA,NA,NA,NA,3,NA,4,"[""./rc_img/cop_condGroup_1_CommunitySafety_autoscaled.png"",""./rc_img/cop_condGroup_1_SafeStreets_autoscaled.png""]",1,NA,NA,"MO_628/","MO_628",3,2,3,3,3,2,6,"MO_628",3,2,2,2,2,2,"MO_628",3,2,2,2,2,2,2,"37","male","man","","79924",""
"39","sliderTrial","html-slider-response",141,1076500,"0.0-141.0",NA,"656776a7904ae00d6b91d1dd","6568a86b0cbcb4084b2158b2",7,NA,NA,NA,NA,NA,NA,NA,NA,NA,NA,NA,"2215","[""SV_PolicingMSA/MO_628/IMG_14_628.jpg"",""SV_PolicingMSA/MO_628/IMG_10_628.jpg"",""SV_PolicingMSA/MO_628/IMG_6_628.jpg"",""SV_PolicingMSA/MO_628/IMG_9_628.jpg"",""SV_PolicingMSA/MO_628/IMG_4_628.jpg"",""SV_PolicingMSA/MO_628/IMG_1_628.jpg"",""SV_PolicingMSA/MO_628/IMG_5_628.jpg"",""SV_PolicingMSA/MO_628/IMG_0_628.jpg""]","7",NA,NA,NA,NA,NA,3,NA,4,"[""./rc_img/cop_condGroup_8_SafeStreets_autoscaled.png"",""./rc_img/cop_condGroup_8_CommunitySafety_autoscaled.png""]",1,NA,NA,"MO_628/","MO_628",3,2,3,3,3,2,6,"MO_628",3,2,2,2,2,2,"MO_628",3,2,2,2,2,2,2,"37","male","man","","79924",""
"40","sliderTrial","html-slider-response",142,1078503,"0.0-142.0",NA,"656776a7904ae00d6b91d1dd","6568a86b0cbcb4084b2158b2",7,NA,NA,NA,NA,NA,NA,NA,NA,NA,NA,NA,"2000","[""SV_PolicingMSA/MO_628/IMG_14_628.jpg"",""SV_PolicingMSA/MO_628/IMG_10_628.jpg"",""SV_PolicingMSA/MO_628/IMG_6_628.jpg"",""SV_PolicingMSA/MO_628/IMG_9_628.jpg"",""SV_PolicingMSA/MO_628/IMG_4_628.jpg"",""SV_PolicingMSA/MO_628/IMG_1_628.jpg"",""SV_PolicingMSA/MO_628/IMG_5_628.jpg"",""SV_PolicingMSA/MO_628/IMG_0_628.jpg""]","1",NA,NA,NA,NA,NA,3,NA,4,"[""./rc_img/cop_condGroup_20_CommunitySafety_autoscaled.png"",""./rc_img/cop_condGroup_20_SafeStreets_autoscaled.png""]",1,NA,NA,"MO_628/","MO_628",3,2,3,3,3,2,6,"MO_628",3,2,2,2,2,2,"MO_628",3,2,2,2,2,2,2,"37","male","man","","79924",""
"41","sliderTrial","html-slider-response",143,1082063,"0.0-143.0",NA,"656776a7904ae00d6b91d1dd","6568a86b0cbcb4084b2158b2",7,NA,NA,NA,NA,NA,NA,NA,NA,NA,NA,NA,"3558","[""SV_PolicingMSA/MO_628/IMG_14_628.jpg"",""SV_PolicingMSA/MO_628/IMG_10_628.jpg"",""SV_PolicingMSA/MO_628/IMG_6_628.jpg"",""SV_PolicingMSA/MO_628/IMG_9_628.jpg"",""SV_PolicingMSA/MO_628/IMG_4_628.jpg"",""SV_PolicingMSA/MO_628/IMG_1_628.jpg"",""SV_PolicingMSA/MO_628/IMG_5_628.jpg"",""SV_PolicingMSA/MO_628/IMG_0_628.jpg""]","1",NA,NA,NA,NA,NA,3,NA,4,"[""./rc_img/cop_condGroup_12_CommunitySafety_autoscaled.png"",""./rc_img/cop_condGroup_12_SafeStreets_autoscaled.png""]",1,NA,NA,"MO_628/","MO_628",3,2,3,3,3,2,6,"MO_628",3,2,2,2,2,2,"MO_628",3,2,2,2,2,2,2,"37","male","man","","79924",""
"42","sliderTrial","html-slider-response",144,1084674,"0.0-144.0",NA,"656776a7904ae00d6b91d1dd","6568a86b0cbcb4084b2158b2",7,NA,NA,NA,NA,NA,NA,NA,NA,NA,NA,NA,"2608","[""SV_PolicingMSA/MO_628/IMG_14_628.jpg"",""SV_PolicingMSA/MO_628/IMG_10_628.jpg"",""SV_PolicingMSA/MO_628/IMG_6_628.jpg"",""SV_PolicingMSA/MO_628/IMG_9_628.jpg"",""SV_PolicingMSA/MO_628/IMG_4_628.jpg"",""SV_PolicingMSA/MO_628/IMG_1_628.jpg"",""SV_PolicingMSA/MO_628/IMG_5_628.jpg"",""SV_PolicingMSA/MO_628/IMG_0_628.jpg""]","2",NA,NA,NA,NA,NA,3,NA,4,"[""./rc_img/cop_condGroup_15_CommunitySafety_autoscaled.png"",""./rc_img/cop_condGroup_15_SafeStreets_autoscaled.png""]",2,NA,NA,"MO_628/","MO_628",3,2,3,3,3,2,6,"MO_628",3,2,2,2,2,2,"MO_628",3,2,2,2,2,2,2,"37","male","man","","79924",""
