"","task","trial_type","trial_index","time_elapsed","internal_node_id","subject_id","study_id","session_id","section","width","height","webaudio","browser","browser_version","mobile","os","fullscreen","vsync_rate","webcam","microphone","rt","stimulus","response","success","timeout","failed_images","failed_audio","failed_video","block.x.x","accuracy","slider_start","choices","standardized_response","correct","num_attention_checks_correct","stim_tract","stim_tractT","block.x","P0_Q1.wealthy","P0_Q1.safe","P0_Q1.walkable","P0_Q1.traditional","P0_Q1.diverse","block_fixed","stim_tractT.x","block.y","P0_Q1.violence","P0_Q1.crime","P0_Q1.drug","P0_Q1.schools","P0_Q1.opportunities","stim_tractT.y","block.y.y","P0_Q1.movein","P0_Q1.moveout","P0_Q1.shopping","P0_Q1.walk","P0_Q1.park","P0_Q1.school","age","sex","gender","gender-self-describe","zipcode","surveyComments"
"1","sliderTrial","html-slider-response",18,857279,"0.0-18.0",NA,"656776a7904ae00d6b91d1dd","6568aa600592cb173acc433c",9,NA,NA,NA,NA,NA,NA,NA,NA,NA,NA,NA,"2934","[""SV_PolicingMSA/NV_173/IMG_7_173.jpg"",""SV_PolicingMSA/NV_173/IMG_4_173.jpg"",""SV_PolicingMSA/NV_173/IMG_6_173.jpg"",""SV_PolicingMSA/NV_173/IMG_14_173.jpg"",""SV_PolicingMSA/NV_173/IMG_10_173.jpg"",""SV_PolicingMSA/NV_173/IMG_8_173.jpg"",""SV_PolicingMSA/NV_173/IMG_13_173.jpg"",""SV_PolicingMSA/NV_173/IMG_0_173.jpg""]","5",NA,NA,NA,NA,NA,3,NA,4,"[""./rc_img/cop_condGroup_18_SafeStreets_autoscaled.png"",""./rc_img/cop_condGroup_18_CommunitySafety_autoscaled.png""]",3,NA,NA,"NV_173/","NV_173",3,2,2,2,2,2,5,"NV_173",3,2,2,2,2,2,"NV_173",3,2,2,2,2,2,2,"56","male","man","","20149",""
"2","sliderTrial","html-slider-response",19,859619,"0.0-19.0",NA,"656776a7904ae00d6b91d1dd","6568aa600592cb173acc433c",9,NA,NA,NA,NA,NA,NA,NA,NA,NA,NA,NA,"2338","[""SV_PolicingMSA/NV_173/IMG_7_173.jpg"",""SV_PolicingMSA/NV_173/IMG_4_173.jpg"",""SV_PolicingMSA/NV_173/IMG_6_173.jpg"",""SV_PolicingMSA/NV_173/IMG_14_173.jpg"",""SV_PolicingMSA/NV_173/IMG_10_173.jpg"",""SV_PolicingMSA/NV_173/IMG_8_173.jpg"",""SV_PolicingMSA/NV_173/IMG_13_173.jpg"",""SV_PolicingMSA/NV_173/IMG_0_173.jpg""]","4",NA,NA,NA,NA,NA,3,NA,4,"[""./rc_img/cop_condGroup_17_SafeStreets_autoscaled.png"",""./rc_img/cop_condGroup_17_CommunitySafety_autoscaled.png""]",4,NA,NA,"NV_173/","NV_173",3,2,2,2,2,2,5,"NV_173",3,2,2,2,2,2,"NV_173",3,2,2,2,2,2,2,"56","male","man","","20149",""
"3","sliderTrial","html-slider-response",20,860842,"0.0-20.0",NA,"656776a7904ae00d6b91d1dd","6568aa600592cb173acc433c",9,NA,NA,NA,NA,NA,NA,NA,NA,NA,NA,NA,"1221","[""SV_PolicingMSA/NV_173/IMG_7_173.jpg"",""SV_PolicingMSA/NV_173/IMG_4_173.jpg"",""SV_PolicingMSA/NV_173/IMG_6_173.jpg"",""SV_PolicingMSA/NV_173/IMG_14_173.jpg"",""SV_PolicingMSA/NV_173/IMG_10_173.jpg"",""SV_PolicingMSA/NV_173/IMG_8_173.jpg"",""SV_PolicingMSA/NV_173/IMG_13_173.jpg"",""SV_PolicingMSA/NV_173/IMG_0_173.jpg""]","4",NA,NA,NA,NA,NA,3,NA,4,"[""./rc_img/cop_condGroup_2_CommunitySafety_autoscaled.png"",""./rc_img/cop_condGroup_2_SafeStreets_autoscaled.png""]",4,NA,NA,"NV_173/","NV_173",3,2,2,2,2,2,5,"NV_173",3,2,2,2,2,2,"NV_173",3,2,2,2,2,2,2,"56","male","man","","20149",""
"4","sliderTrial","html-slider-response",21,862342,"0.0-21.0",NA,"656776a7904ae00d6b91d1dd","6568aa600592cb173acc433c",9,NA,NA,NA,NA,NA,NA,NA,NA,NA,NA,NA,"1499","[""SV_PolicingMSA/NV_173/IMG_7_173.jpg"",""SV_PolicingMSA/NV_173/IMG_4_173.jpg"",""SV_PolicingMSA/NV_173/IMG_6_173.jpg"",""SV_PolicingMSA/NV_173/IMG_14_173.jpg"",""SV_PolicingMSA/NV_173/IMG_10_173.jpg"",""SV_PolicingMSA/NV_173/IMG_8_173.jpg"",""SV_PolicingMSA/NV_173/IMG_13_173.jpg"",""SV_PolicingMSA/NV_173/IMG_0_173.jpg""]","4",NA,NA,NA,NA,NA,3,NA,4,"[""./rc_img/cop_condGroup_20_CommunitySafety_autoscaled.png"",""./rc_img/cop_condGroup_20_SafeStreets_autoscaled.png""]",4,NA,NA,"NV_173/","NV_173",3,2,2,2,2,2,5,"NV_173",3,2,2,2,2,2,"NV_173",3,2,2,2,2,2,2,"56","male","man","","20149",""
"5","sliderTrial","html-slider-response",22,863227,"0.0-22.0",NA,"656776a7904ae00d6b91d1dd","6568aa600592cb173acc433c",9,NA,NA,NA,NA,NA,NA,NA,NA,NA,NA,NA,"883","[""SV_PolicingMSA/NV_173/IMG_7_173.jpg"",""SV_PolicingMSA/NV_173/IMG_4_173.jpg"",""SV_PolicingMSA/NV_173/IMG_6_173.jpg"",""SV_PolicingMSA/NV_173/IMG_14_173.jpg"",""SV_PolicingMSA/NV_173/IMG_10_173.jpg"",""SV_PolicingMSA/NV_173/IMG_8_173.jpg"",""SV_PolicingMSA/NV_173/IMG_13_173.jpg"",""SV_PolicingMSA/NV_173/IMG_0_173.jpg""]","4",NA,NA,NA,NA,NA,3,NA,4,"[""./rc_img/cop_condGroup_19_SafeStreets_autoscaled.png"",""./rc_img/cop_condGroup_19_CommunitySafety_autoscaled.png""]",4,NA,NA,"NV_173/","NV_173",3,2,2,2,2,2,5,"NV_173",3,2,2,2,2,2,"NV_173",3,2,2,2,2,2,2,"56","male","man","","20149",""
"6","sliderTrial_attention","html-slider-response",35,899538,"0.0-35.0",NA,"656776a7904ae00d6b91d1dd","6568aa600592cb173acc433c",9,NA,NA,NA,NA,NA,NA,NA,NA,NA,NA,NA,"null","[""SV_PolicingMSA/NV_0/IMG_5_0.jpg"",""SV_PolicingMSA/NV_0/IMG_0_0.jpg"",""SV_PolicingMSA/NV_0/IMG_4_0.jpg"",""SV_PolicingMSA/NV_0/IMG_12_0.jpg"",""SV_PolicingMSA/NV_0/IMG_13_0.jpg"",""SV_PolicingMSA/NV_0/IMG_7_0.jpg"",""SV_PolicingMSA/NV_0/IMG_11_0.jpg"",""SV_PolicingMSA/NV_0/IMG_14_0.jpg""]","null",NA,NA,NA,NA,NA,0,NA,4,"[""./assets/img/attnchk.png"",""./assets/img/attnchk.png""]",NA,TRUE,NA,"NV_0/IM","NV_0IM",0,2,2,2,2,2,1,"NV_0IM",0,2,2,2,2,2,"NV_0IM",0,2,2,2,2,2,2,"56","male","man","","20149",""
"7","sliderTrial","html-slider-response",36,901837,"0.0-36.0",NA,"656776a7904ae00d6b91d1dd","6568aa600592cb173acc433c",9,NA,NA,NA,NA,NA,NA,NA,NA,NA,NA,NA,"2293","[""SV_PolicingMSA/NV_0/IMG_5_0.jpg"",""SV_PolicingMSA/NV_0/IMG_0_0.jpg"",""SV_PolicingMSA/NV_0/IMG_4_0.jpg"",""SV_PolicingMSA/NV_0/IMG_12_0.jpg"",""SV_PolicingMSA/NV_0/IMG_13_0.jpg"",""SV_PolicingMSA/NV_0/IMG_7_0.jpg"",""SV_PolicingMSA/NV_0/IMG_11_0.jpg"",""SV_PolicingMSA/NV_0/IMG_14_0.jpg""]","4",NA,NA,NA,NA,NA,0,NA,4,"[""./rc_img/cop_condGroup_1_SafeStreets_autoscaled.png"",""./rc_img/cop_condGroup_1_CommunitySafety_autoscaled.png""]",4,NA,NA,"NV_0/IM","NV_0IM",0,2,2,2,2,2,1,"NV_0IM",0,2,2,2,2,2,"NV_0IM",0,2,2,2,2,2,2,"56","male","man","","20149",""
"8","sliderTrial","html-slider-response",37,902407,"0.0-37.0",NA,"656776a7904ae00d6b91d1dd","6568aa600592cb173acc433c",9,NA,NA,NA,NA,NA,NA,NA,NA,NA,NA,NA,"568","[""SV_PolicingMSA/NV_0/IMG_5_0.jpg"",""SV_PolicingMSA/NV_0/IMG_0_0.jpg"",""SV_PolicingMSA/NV_0/IMG_4_0.jpg"",""SV_PolicingMSA/NV_0/IMG_12_0.jpg"",""SV_PolicingMSA/NV_0/IMG_13_0.jpg"",""SV_PolicingMSA/NV_0/IMG_7_0.jpg"",""SV_PolicingMSA/NV_0/IMG_11_0.jpg"",""SV_PolicingMSA/NV_0/IMG_14_0.jpg""]","4",NA,NA,NA,NA,NA,0,NA,4,"[""./rc_img/cop_condGroup_5_SafeStreets_autoscaled.png"",""./rc_img/cop_condGroup_5_CommunitySafety_autoscaled.png""]",4,NA,NA,"NV_0/IM","NV_0IM",0,2,2,2,2,2,1,"NV_0IM",0,2,2,2,2,2,"NV_0IM",0,2,2,2,2,2,2,"56","male","man","","20149",""
"9","sliderTrial","html-slider-response",38,903082,"0.0-38.0",NA,"656776a7904ae00d6b91d1dd","6568aa600592cb173acc433c",9,NA,NA,NA,NA,NA,NA,NA,NA,NA,NA,NA,"673","[""SV_PolicingMSA/NV_0/IMG_5_0.jpg"",""SV_PolicingMSA/NV_0/IMG_0_0.jpg"",""SV_PolicingMSA/NV_0/IMG_4_0.jpg"",""SV_PolicingMSA/NV_0/IMG_12_0.jpg"",""SV_PolicingMSA/NV_0/IMG_13_0.jpg"",""SV_PolicingMSA/NV_0/IMG_7_0.jpg"",""SV_PolicingMSA/NV_0/IMG_11_0.jpg"",""SV_PolicingMSA/NV_0/IMG_14_0.jpg""]","4",NA,NA,NA,NA,NA,0,NA,4,"[""./rc_img/cop_condGroup_8_CommunitySafety_autoscaled.png"",""./rc_img/cop_condGroup_8_SafeStreets_autoscaled.png""]",4,NA,NA,"NV_0/IM","NV_0IM",0,2,2,2,2,2,1,"NV_0IM",0,2,2,2,2,2,"NV_0IM",0,2,2,2,2,2,2,"56","male","man","","20149",""
"10","sliderTrial","html-slider-response",39,903532,"0.0-39.0",NA,"656776a7904ae00d6b91d1dd","6568aa600592cb173acc433c",9,NA,NA,NA,NA,NA,NA,NA,NA,NA,NA,NA,"448","[""SV_PolicingMSA/NV_0/IMG_5_0.jpg"",""SV_PolicingMSA/NV_0/IMG_0_0.jpg"",""SV_PolicingMSA/NV_0/IMG_4_0.jpg"",""SV_PolicingMSA/NV_0/IMG_12_0.jpg"",""SV_PolicingMSA/NV_0/IMG_13_0.jpg"",""SV_PolicingMSA/NV_0/IMG_7_0.jpg"",""SV_PolicingMSA/NV_0/IMG_11_0.jpg"",""SV_PolicingMSA/NV_0/IMG_14_0.jpg""]","4",NA,NA,NA,NA,NA,0,NA,4,"[""./rc_img/cop_condGroup_12_SafeStreets_autoscaled.png"",""./rc_img/cop_condGroup_12_CommunitySafety_autoscaled.png""]",4,NA,NA,"NV_0/IM","NV_0IM",0,2,2,2,2,2,1,"NV_0IM",0,2,2,2,2,2,"NV_0IM",0,2,2,2,2,2,2,"56","male","man","","20149",""
"11","sliderTrial","html-slider-response",40,904064,"0.0-40.0",NA,"656776a7904ae00d6b91d1dd","6568aa600592cb173acc433c",9,NA,NA,NA,NA,NA,NA,NA,NA,NA,NA,NA,"531","[""SV_PolicingMSA/NV_0/IMG_5_0.jpg"",""SV_PolicingMSA/NV_0/IMG_0_0.jpg"",""SV_PolicingMSA/NV_0/IMG_4_0.jpg"",""SV_PolicingMSA/NV_0/IMG_12_0.jpg"",""SV_PolicingMSA/NV_0/IMG_13_0.jpg"",""SV_PolicingMSA/NV_0/IMG_7_0.jpg"",""SV_PolicingMSA/NV_0/IMG_11_0.jpg"",""SV_PolicingMSA/NV_0/IMG_14_0.jpg""]","4",NA,NA,NA,NA,NA,0,NA,4,"[""./rc_img/cop_condGroup_6_CommunitySafety_autoscaled.png"",""./rc_img/cop_condGroup_6_SafeStreets_autoscaled.png""]",4,NA,NA,"NV_0/IM","NV_0IM",0,2,2,2,2,2,1,"NV_0IM",0,2,2,2,2,2,"NV_0IM",0,2,2,2,2,2,2,"56","male","man","","20149",""
"12","sliderTrial","html-slider-response",53,931854,"0.0-53.0",NA,"656776a7904ae00d6b91d1dd","6568aa600592cb173acc433c",9,NA,NA,NA,NA,NA,NA,NA,NA,NA,NA,NA,"2534","[""SV_PolicingMSA/NV_329/IMG_12_329.jpg"",""SV_PolicingMSA/NV_329/IMG_6_329.jpg"",""SV_PolicingMSA/NV_329/IMG_2_329.jpg"",""SV_PolicingMSA/NV_329/IMG_10_329.jpg"",""SV_PolicingMSA/NV_329/IMG_0_329.jpg"",""SV_PolicingMSA/NV_329/IMG_13_329.jpg"",""SV_PolicingMSA/NV_329/IMG_14_329.jpg"",""SV_PolicingMSA/NV_329/IMG_1_329.jpg""]","4",NA,NA,NA,NA,NA,2,NA,4,"[""./rc_img/cop_condGroup_1_SafeStreets_autoscaled.png"",""./rc_img/cop_condGroup_1_CommunitySafety_autoscaled.png""]",4,NA,NA,"NV_329/","NV_329",2,3,3,3,3,3,3,"NV_329",2,3,3,3,3,3,"NV_329",2,3,3,3,3,3,3,"56","male","man","","20149",""
"13","sliderTrial","html-slider-response",54,932552,"0.0-54.0",NA,"656776a7904ae00d6b91d1dd","6568aa600592cb173acc433c",9,NA,NA,NA,NA,NA,NA,NA,NA,NA,NA,NA,"697","[""SV_PolicingMSA/NV_329/IMG_12_329.jpg"",""SV_PolicingMSA/NV_329/IMG_6_329.jpg"",""SV_PolicingMSA/NV_329/IMG_2_329.jpg"",""SV_PolicingMSA/NV_329/IMG_10_329.jpg"",""SV_PolicingMSA/NV_329/IMG_0_329.jpg"",""SV_PolicingMSA/NV_329/IMG_13_329.jpg"",""SV_PolicingMSA/NV_329/IMG_14_329.jpg"",""SV_PolicingMSA/NV_329/IMG_1_329.jpg""]","4",NA,NA,NA,NA,NA,2,NA,4,"[""./rc_img/cop_condGroup_5_SafeStreets_autoscaled.png"",""./rc_img/cop_condGroup_5_CommunitySafety_autoscaled.png""]",4,NA,NA,"NV_329/","NV_329",2,3,3,3,3,3,3,"NV_329",2,3,3,3,3,3,"NV_329",2,3,3,3,3,3,3,"56","male","man","","20149",""
"14","sliderTrial","html-slider-response",55,933459,"0.0-55.0",NA,"656776a7904ae00d6b91d1dd","6568aa600592cb173acc433c",9,NA,NA,NA,NA,NA,NA,NA,NA,NA,NA,NA,"905","[""SV_PolicingMSA/NV_329/IMG_12_329.jpg"",""SV_PolicingMSA/NV_329/IMG_6_329.jpg"",""SV_PolicingMSA/NV_329/IMG_2_329.jpg"",""SV_PolicingMSA/NV_329/IMG_10_329.jpg"",""SV_PolicingMSA/NV_329/IMG_0_329.jpg"",""SV_PolicingMSA/NV_329/IMG_13_329.jpg"",""SV_PolicingMSA/NV_329/IMG_14_329.jpg"",""SV_PolicingMSA/NV_329/IMG_1_329.jpg""]","4",NA,NA,NA,NA,NA,2,NA,4,"[""./rc_img/cop_condGroup_8_CommunitySafety_autoscaled.png"",""./rc_img/cop_condGroup_8_SafeStreets_autoscaled.png""]",4,NA,NA,"NV_329/","NV_329",2,3,3,3,3,3,3,"NV_329",2,3,3,3,3,3,"NV_329",2,3,3,3,3,3,3,"56","male","man","","20149",""
"15","sliderTrial","html-slider-response",56,934067,"0.0-56.0",NA,"656776a7904ae00d6b91d1dd","6568aa600592cb173acc433c",9,NA,NA,NA,NA,NA,NA,NA,NA,NA,NA,NA,"607","[""SV_PolicingMSA/NV_329/IMG_12_329.jpg"",""SV_PolicingMSA/NV_329/IMG_6_329.jpg"",""SV_PolicingMSA/NV_329/IMG_2_329.jpg"",""SV_PolicingMSA/NV_329/IMG_10_329.jpg"",""SV_PolicingMSA/NV_329/IMG_0_329.jpg"",""SV_PolicingMSA/NV_329/IMG_13_329.jpg"",""SV_PolicingMSA/NV_329/IMG_14_329.jpg"",""SV_PolicingMSA/NV_329/IMG_1_329.jpg""]","4",NA,NA,NA,NA,NA,2,NA,4,"[""./rc_img/cop_condGroup_12_SafeStreets_autoscaled.png"",""./rc_img/cop_condGroup_12_CommunitySafety_autoscaled.png""]",4,NA,NA,"NV_329/","NV_329",2,3,3,3,3,3,3,"NV_329",2,3,3,3,3,3,"NV_329",2,3,3,3,3,3,3,"56","male","man","","20149",""
"16","sliderTrial","html-slider-response",57,934374,"0.0-57.0",NA,"656776a7904ae00d6b91d1dd","6568aa600592cb173acc433c",9,NA,NA,NA,NA,NA,NA,NA,NA,NA,NA,NA,"306","[""SV_PolicingMSA/NV_329/IMG_12_329.jpg"",""SV_PolicingMSA/NV_329/IMG_6_329.jpg"",""SV_PolicingMSA/NV_329/IMG_2_329.jpg"",""SV_PolicingMSA/NV_329/IMG_10_329.jpg"",""SV_PolicingMSA/NV_329/IMG_0_329.jpg"",""SV_PolicingMSA/NV_329/IMG_13_329.jpg"",""SV_PolicingMSA/NV_329/IMG_14_329.jpg"",""SV_PolicingMSA/NV_329/IMG_1_329.jpg""]","4",NA,NA,NA,NA,NA,2,NA,4,"[""./rc_img/cop_condGroup_6_CommunitySafety_autoscaled.png"",""./rc_img/cop_condGroup_6_SafeStreets_autoscaled.png""]",4,NA,NA,"NV_329/","NV_329",2,3,3,3,3,3,3,"NV_329",2,3,3,3,3,3,"NV_329",2,3,3,3,3,3,3,"56","male","man","","20149",""
"17","sliderTrial","html-slider-response",70,959388,"0.0-70.0",NA,"656776a7904ae00d6b91d1dd","6568aa600592cb173acc433c",9,NA,NA,NA,NA,NA,NA,NA,NA,NA,NA,NA,"1581","[""SV_PolicingMSA/NV_189/IMG_9_189.jpg"",""SV_PolicingMSA/NV_189/IMG_5_189.jpg"",""SV_PolicingMSA/NV_189/IMG_7_189.jpg"",""SV_PolicingMSA/NV_189/IMG_8_189.jpg"",""SV_PolicingMSA/NV_189/IMG_4_189.jpg"",""SV_PolicingMSA/NV_189/IMG_11_189.jpg"",""SV_PolicingMSA/NV_189/IMG_10_189.jpg"",""SV_PolicingMSA/NV_189/IMG_6_189.jpg""]","4",NA,NA,NA,NA,NA,1,NA,4,"[""./rc_img/cop_condGroup_18_SafeStreets_autoscaled.png"",""./rc_img/cop_condGroup_18_CommunitySafety_autoscaled.png""]",4,NA,NA,"NV_189/","NV_189",1,3,3,3,3,3,2,"NV_189",1,3,3,3,3,3,"NV_189",1,3,3,3,3,3,3,"56","male","man","","20149",""
"18","sliderTrial","html-slider-response",71,960289,"0.0-71.0",NA,"656776a7904ae00d6b91d1dd","6568aa600592cb173acc433c",9,NA,NA,NA,NA,NA,NA,NA,NA,NA,NA,NA,"898","[""SV_PolicingMSA/NV_189/IMG_9_189.jpg"",""SV_PolicingMSA/NV_189/IMG_5_189.jpg"",""SV_PolicingMSA/NV_189/IMG_7_189.jpg"",""SV_PolicingMSA/NV_189/IMG_8_189.jpg"",""SV_PolicingMSA/NV_189/IMG_4_189.jpg"",""SV_PolicingMSA/NV_189/IMG_11_189.jpg"",""SV_PolicingMSA/NV_189/IMG_10_189.jpg"",""SV_PolicingMSA/NV_189/IMG_6_189.jpg""]","4",NA,NA,NA,NA,NA,1,NA,4,"[""./rc_img/cop_condGroup_17_SafeStreets_autoscaled.png"",""./rc_img/cop_condGroup_17_CommunitySafety_autoscaled.png""]",4,NA,NA,"NV_189/","NV_189",1,3,3,3,3,3,2,"NV_189",1,3,3,3,3,3,"NV_189",1,3,3,3,3,3,3,"56","male","man","","20149",""
"19","sliderTrial","html-slider-response",72,961189,"0.0-72.0",NA,"656776a7904ae00d6b91d1dd","6568aa600592cb173acc433c",9,NA,NA,NA,NA,NA,NA,NA,NA,NA,NA,NA,"898","[""SV_PolicingMSA/NV_189/IMG_9_189.jpg"",""SV_PolicingMSA/NV_189/IMG_5_189.jpg"",""SV_PolicingMSA/NV_189/IMG_7_189.jpg"",""SV_PolicingMSA/NV_189/IMG_8_189.jpg"",""SV_PolicingMSA/NV_189/IMG_4_189.jpg"",""SV_PolicingMSA/NV_189/IMG_11_189.jpg"",""SV_PolicingMSA/NV_189/IMG_10_189.jpg"",""SV_PolicingMSA/NV_189/IMG_6_189.jpg""]","4",NA,NA,NA,NA,NA,1,NA,4,"[""./rc_img/cop_condGroup_2_CommunitySafety_autoscaled.png"",""./rc_img/cop_condGroup_2_SafeStreets_autoscaled.png""]",4,NA,NA,"NV_189/","NV_189",1,3,3,3,3,3,2,"NV_189",1,3,3,3,3,3,"NV_189",1,3,3,3,3,3,3,"56","male","man","","20149",""
"20","sliderTrial_attention","html-slider-response",73,971205,"0.0-73.0",NA,"656776a7904ae00d6b91d1dd","6568aa600592cb173acc433c",9,NA,NA,NA,NA,NA,NA,NA,NA,NA,NA,NA,"null","[""SV_PolicingMSA/NV_189/IMG_9_189.jpg"",""SV_PolicingMSA/NV_189/IMG_5_189.jpg"",""SV_PolicingMSA/NV_189/IMG_7_189.jpg"",""SV_PolicingMSA/NV_189/IMG_8_189.jpg"",""SV_PolicingMSA/NV_189/IMG_4_189.jpg"",""SV_PolicingMSA/NV_189/IMG_11_189.jpg"",""SV_PolicingMSA/NV_189/IMG_10_189.jpg"",""SV_PolicingMSA/NV_189/IMG_6_189.jpg""]","null",NA,NA,NA,NA,NA,1,NA,4,"[""./assets/img/attnchk.png"",""./assets/img/attnchk.png""]",NA,TRUE,NA,"NV_189/","NV_189",1,3,3,3,3,3,2,"NV_189",1,3,3,3,3,3,"NV_189",1,3,3,3,3,3,3,"56","male","man","","20149",""
"21","sliderTrial","html-slider-response",74,976429,"0.0-74.0",NA,"656776a7904ae00d6b91d1dd","6568aa600592cb173acc433c",9,NA,NA,NA,NA,NA,NA,NA,NA,NA,NA,NA,"5218","[""SV_PolicingMSA/NV_189/IMG_9_189.jpg"",""SV_PolicingMSA/NV_189/IMG_5_189.jpg"",""SV_PolicingMSA/NV_189/IMG_7_189.jpg"",""SV_PolicingMSA/NV_189/IMG_8_189.jpg"",""SV_PolicingMSA/NV_189/IMG_4_189.jpg"",""SV_PolicingMSA/NV_189/IMG_11_189.jpg"",""SV_PolicingMSA/NV_189/IMG_10_189.jpg"",""SV_PolicingMSA/NV_189/IMG_6_189.jpg""]","4",NA,NA,NA,NA,NA,1,NA,4,"[""./rc_img/cop_condGroup_20_CommunitySafety_autoscaled.png"",""./rc_img/cop_condGroup_20_SafeStreets_autoscaled.png""]",4,NA,NA,"NV_189/","NV_189",1,3,3,3,3,3,2,"NV_189",1,3,3,3,3,3,"NV_189",1,3,3,3,3,3,3,"56","male","man","","20149",""
"22","sliderTrial","html-slider-response",75,977209,"0.0-75.0",NA,"656776a7904ae00d6b91d1dd","6568aa600592cb173acc433c",9,NA,NA,NA,NA,NA,NA,NA,NA,NA,NA,NA,"778","[""SV_PolicingMSA/NV_189/IMG_9_189.jpg"",""SV_PolicingMSA/NV_189/IMG_5_189.jpg"",""SV_PolicingMSA/NV_189/IMG_7_189.jpg"",""SV_PolicingMSA/NV_189/IMG_8_189.jpg"",""SV_PolicingMSA/NV_189/IMG_4_189.jpg"",""SV_PolicingMSA/NV_189/IMG_11_189.jpg"",""SV_PolicingMSA/NV_189/IMG_10_189.jpg"",""SV_PolicingMSA/NV_189/IMG_6_189.jpg""]","4",NA,NA,NA,NA,NA,1,NA,4,"[""./rc_img/cop_condGroup_19_SafeStreets_autoscaled.png"",""./rc_img/cop_condGroup_19_CommunitySafety_autoscaled.png""]",4,NA,NA,"NV_189/","NV_189",1,3,3,3,3,3,2,"NV_189",1,3,3,3,3,3,"NV_189",1,3,3,3,3,3,3,"56","male","man","","20149",""
"23","sliderTrial","html-slider-response",89,1009086,"0.0-89.0",NA,"656776a7904ae00d6b91d1dd","6568aa600592cb173acc433c",9,NA,NA,NA,NA,NA,NA,NA,NA,NA,NA,NA,"2099","[""SV_PolicingMSA/NV_466/IMG_2_466.jpg"",""SV_PolicingMSA/NV_466/IMG_0_466.jpg"",""SV_PolicingMSA/NV_466/IMG_10_466.jpg"",""SV_PolicingMSA/NV_466/IMG_6_466.jpg"",""SV_PolicingMSA/NV_466/IMG_1_466.jpg"",""SV_PolicingMSA/NV_466/IMG_13_466.jpg"",""SV_PolicingMSA/NV_466/IMG_4_466.jpg"",""SV_PolicingMSA/NV_466/IMG_5_466.jpg""]","4",NA,NA,NA,NA,NA,3,NA,4,"[""./rc_img/cop_condGroup_3_SafeStreets_autoscaled.png"",""./rc_img/cop_condGroup_3_CommunitySafety_autoscaled.png""]",4,NA,NA,"NV_466/","NV_466",3,3,3,3,3,3,6,"NV_466",3,3,3,3,3,3,"NV_466",3,3,3,3,3,3,3,"56","male","man","","20149",""
"24","sliderTrial","html-slider-response",90,1009678,"0.0-90.0",NA,"656776a7904ae00d6b91d1dd","6568aa600592cb173acc433c",9,NA,NA,NA,NA,NA,NA,NA,NA,NA,NA,NA,"590","[""SV_PolicingMSA/NV_466/IMG_2_466.jpg"",""SV_PolicingMSA/NV_466/IMG_0_466.jpg"",""SV_PolicingMSA/NV_466/IMG_10_466.jpg"",""SV_PolicingMSA/NV_466/IMG_6_466.jpg"",""SV_PolicingMSA/NV_466/IMG_1_466.jpg"",""SV_PolicingMSA/NV_466/IMG_13_466.jpg"",""SV_PolicingMSA/NV_466/IMG_4_466.jpg"",""SV_PolicingMSA/NV_466/IMG_5_466.jpg""]","4",NA,NA,NA,NA,NA,3,NA,4,"[""./rc_img/cop_condGroup_4_SafeStreets_autoscaled.png"",""./rc_img/cop_condGroup_4_CommunitySafety_autoscaled.png""]",4,NA,NA,"NV_466/","NV_466",3,3,3,3,3,3,6,"NV_466",3,3,3,3,3,3,"NV_466",3,3,3,3,3,3,3,"56","male","man","","20149",""
"25","sliderTrial","html-slider-response",91,1010241,"0.0-91.0",NA,"656776a7904ae00d6b91d1dd","6568aa600592cb173acc433c",9,NA,NA,NA,NA,NA,NA,NA,NA,NA,NA,NA,"562","[""SV_PolicingMSA/NV_466/IMG_2_466.jpg"",""SV_PolicingMSA/NV_466/IMG_0_466.jpg"",""SV_PolicingMSA/NV_466/IMG_10_466.jpg"",""SV_PolicingMSA/NV_466/IMG_6_466.jpg"",""SV_PolicingMSA/NV_466/IMG_1_466.jpg"",""SV_PolicingMSA/NV_466/IMG_13_466.jpg"",""SV_PolicingMSA/NV_466/IMG_4_466.jpg"",""SV_PolicingMSA/NV_466/IMG_5_466.jpg""]","4",NA,NA,NA,NA,NA,3,NA,4,"[""./rc_img/cop_condGroup_14_SafeStreets_autoscaled.png"",""./rc_img/cop_condGroup_14_CommunitySafety_autoscaled.png""]",4,NA,NA,"NV_466/","NV_466",3,3,3,3,3,3,6,"NV_466",3,3,3,3,3,3,"NV_466",3,3,3,3,3,3,3,"56","male","man","","20149",""
"26","sliderTrial","html-slider-response",92,1010879,"0.0-92.0",NA,"656776a7904ae00d6b91d1dd","6568aa600592cb173acc433c",9,NA,NA,NA,NA,NA,NA,NA,NA,NA,NA,NA,"636","[""SV_PolicingMSA/NV_466/IMG_2_466.jpg"",""SV_PolicingMSA/NV_466/IMG_0_466.jpg"",""SV_PolicingMSA/NV_466/IMG_10_466.jpg"",""SV_PolicingMSA/NV_466/IMG_6_466.jpg"",""SV_PolicingMSA/NV_466/IMG_1_466.jpg"",""SV_PolicingMSA/NV_466/IMG_13_466.jpg"",""SV_PolicingMSA/NV_466/IMG_4_466.jpg"",""SV_PolicingMSA/NV_466/IMG_5_466.jpg""]","4",NA,NA,NA,NA,NA,3,NA,4,"[""./rc_img/cop_condGroup_11_CommunitySafety_autoscaled.png"",""./rc_img/cop_condGroup_11_SafeStreets_autoscaled.png""]",4,NA,NA,"NV_466/","NV_466",3,3,3,3,3,3,6,"NV_466",3,3,3,3,3,3,"NV_466",3,3,3,3,3,3,3,"56","male","man","","20149",""
"27","sliderTrial","html-slider-response",93,1011486,"0.0-93.0",NA,"656776a7904ae00d6b91d1dd","6568aa600592cb173acc433c",9,NA,NA,NA,NA,NA,NA,NA,NA,NA,NA,NA,"605","[""SV_PolicingMSA/NV_466/IMG_2_466.jpg"",""SV_PolicingMSA/NV_466/IMG_0_466.jpg"",""SV_PolicingMSA/NV_466/IMG_10_466.jpg"",""SV_PolicingMSA/NV_466/IMG_6_466.jpg"",""SV_PolicingMSA/NV_466/IMG_1_466.jpg"",""SV_PolicingMSA/NV_466/IMG_13_466.jpg"",""SV_PolicingMSA/NV_466/IMG_4_466.jpg"",""SV_PolicingMSA/NV_466/IMG_5_466.jpg""]","4",NA,NA,NA,NA,NA,3,NA,4,"[""./rc_img/cop_condGroup_9_CommunitySafety_autoscaled.png"",""./rc_img/cop_condGroup_9_SafeStreets_autoscaled.png""]",4,NA,NA,"NV_466/","NV_466",3,3,3,3,3,3,6,"NV_466",3,3,3,3,3,3,"NV_466",3,3,3,3,3,3,3,"56","male","man","","20149",""
"28","sliderTrial","html-slider-response",106,1040055,"0.0-106.0",NA,"656776a7904ae00d6b91d1dd","6568aa600592cb173acc433c",9,NA,NA,NA,NA,NA,NA,NA,NA,NA,NA,NA,"1923","[""SV_PolicingMSA/NV_673/IMG_5_673.jpg"",""SV_PolicingMSA/NV_673/IMG_1_673.jpg"",""SV_PolicingMSA/NV_673/IMG_12_673.jpg"",""SV_PolicingMSA/NV_673/IMG_7_673.jpg"",""SV_PolicingMSA/NV_673/IMG_13_673.jpg"",""SV_PolicingMSA/NV_673/IMG_8_673.jpg"",""SV_PolicingMSA/NV_673/IMG_4_673.jpg"",""SV_PolicingMSA/NV_673/IMG_14_673.jpg""]","4",NA,NA,NA,NA,NA,5,NA,4,"[""./rc_img/cop_condGroup_3_SafeStreets_autoscaled.png"",""./rc_img/cop_condGroup_3_CommunitySafety_autoscaled.png""]",4,NA,NA,"NV_673/","NV_673",5,3,3,3,3,3,8,"NV_673",5,3,3,3,3,3,"NV_673",5,3,3,3,3,3,3,"56","male","man","","20149",""
"29","sliderTrial","html-slider-response",107,1041766,"0.0-107.0",NA,"656776a7904ae00d6b91d1dd","6568aa600592cb173acc433c",9,NA,NA,NA,NA,NA,NA,NA,NA,NA,NA,NA,"1710","[""SV_PolicingMSA/NV_673/IMG_5_673.jpg"",""SV_PolicingMSA/NV_673/IMG_1_673.jpg"",""SV_PolicingMSA/NV_673/IMG_12_673.jpg"",""SV_PolicingMSA/NV_673/IMG_7_673.jpg"",""SV_PolicingMSA/NV_673/IMG_13_673.jpg"",""SV_PolicingMSA/NV_673/IMG_8_673.jpg"",""SV_PolicingMSA/NV_673/IMG_4_673.jpg"",""SV_PolicingMSA/NV_673/IMG_14_673.jpg""]","4",NA,NA,NA,NA,NA,5,NA,4,"[""./rc_img/cop_condGroup_4_SafeStreets_autoscaled.png"",""./rc_img/cop_condGroup_4_CommunitySafety_autoscaled.png""]",4,NA,NA,"NV_673/","NV_673",5,3,3,3,3,3,8,"NV_673",5,3,3,3,3,3,"NV_673",5,3,3,3,3,3,3,"56","male","man","","20149",""
"30","sliderTrial","html-slider-response",108,1042463,"0.0-108.0",NA,"656776a7904ae00d6b91d1dd","6568aa600592cb173acc433c",9,NA,NA,NA,NA,NA,NA,NA,NA,NA,NA,NA,"695","[""SV_PolicingMSA/NV_673/IMG_5_673.jpg"",""SV_PolicingMSA/NV_673/IMG_1_673.jpg"",""SV_PolicingMSA/NV_673/IMG_12_673.jpg"",""SV_PolicingMSA/NV_673/IMG_7_673.jpg"",""SV_PolicingMSA/NV_673/IMG_13_673.jpg"",""SV_PolicingMSA/NV_673/IMG_8_673.jpg"",""SV_PolicingMSA/NV_673/IMG_4_673.jpg"",""SV_PolicingMSA/NV_673/IMG_14_673.jpg""]","4",NA,NA,NA,NA,NA,5,NA,4,"[""./rc_img/cop_condGroup_14_SafeStreets_autoscaled.png"",""./rc_img/cop_condGroup_14_CommunitySafety_autoscaled.png""]",4,NA,NA,"NV_673/","NV_673",5,3,3,3,3,3,8,"NV_673",5,3,3,3,3,3,"NV_673",5,3,3,3,3,3,3,"56","male","man","","20149",""
"31","sliderTrial","html-slider-response",109,1043176,"0.0-109.0",NA,"656776a7904ae00d6b91d1dd","6568aa600592cb173acc433c",9,NA,NA,NA,NA,NA,NA,NA,NA,NA,NA,NA,"710","[""SV_PolicingMSA/NV_673/IMG_5_673.jpg"",""SV_PolicingMSA/NV_673/IMG_1_673.jpg"",""SV_PolicingMSA/NV_673/IMG_12_673.jpg"",""SV_PolicingMSA/NV_673/IMG_7_673.jpg"",""SV_PolicingMSA/NV_673/IMG_13_673.jpg"",""SV_PolicingMSA/NV_673/IMG_8_673.jpg"",""SV_PolicingMSA/NV_673/IMG_4_673.jpg"",""SV_PolicingMSA/NV_673/IMG_14_673.jpg""]","4",NA,NA,NA,NA,NA,5,NA,4,"[""./rc_img/cop_condGroup_11_CommunitySafety_autoscaled.png"",""./rc_img/cop_condGroup_11_SafeStreets_autoscaled.png""]",4,NA,NA,"NV_673/","NV_673",5,3,3,3,3,3,8,"NV_673",5,3,3,3,3,3,"NV_673",5,3,3,3,3,3,3,"56","male","man","","20149",""
"32","sliderTrial","html-slider-response",110,1043828,"0.0-110.0",NA,"656776a7904ae00d6b91d1dd","6568aa600592cb173acc433c",9,NA,NA,NA,NA,NA,NA,NA,NA,NA,NA,NA,"650","[""SV_PolicingMSA/NV_673/IMG_5_673.jpg"",""SV_PolicingMSA/NV_673/IMG_1_673.jpg"",""SV_PolicingMSA/NV_673/IMG_12_673.jpg"",""SV_PolicingMSA/NV_673/IMG_7_673.jpg"",""SV_PolicingMSA/NV_673/IMG_13_673.jpg"",""SV_PolicingMSA/NV_673/IMG_8_673.jpg"",""SV_PolicingMSA/NV_673/IMG_4_673.jpg"",""SV_PolicingMSA/NV_673/IMG_14_673.jpg""]","4",NA,NA,NA,NA,NA,5,NA,4,"[""./rc_img/cop_condGroup_9_CommunitySafety_autoscaled.png"",""./rc_img/cop_condGroup_9_SafeStreets_autoscaled.png""]",4,NA,NA,"NV_673/","NV_673",5,3,3,3,3,3,8,"NV_673",5,3,3,3,3,3,"NV_673",5,3,3,3,3,3,3,"56","male","man","","20149",""
"33","sliderTrial","html-slider-response",123,1072750,"0.0-123.0",NA,"656776a7904ae00d6b91d1dd","6568aa600592cb173acc433c",9,NA,NA,NA,NA,NA,NA,NA,NA,NA,NA,NA,"1274","[""SV_PolicingMSA/NV_754/IMG_4_754.jpg"",""SV_PolicingMSA/NV_754/IMG_1_754.jpg"",""SV_PolicingMSA/NV_754/IMG_6_754.jpg"",""SV_PolicingMSA/NV_754/IMG_2_754.jpg"",""SV_PolicingMSA/NV_754/IMG_10_754.jpg"",""SV_PolicingMSA/NV_754/IMG_8_754.jpg"",""SV_PolicingMSA/NV_754/IMG_14_754.jpg"",""SV_PolicingMSA/NV_754/IMG_0_754.jpg""]","4",NA,NA,NA,NA,NA,4,NA,4,"[""./rc_img/cop_condGroup_10_CommunitySafety_autoscaled.png"",""./rc_img/cop_condGroup_10_SafeStreets_autoscaled.png""]",4,NA,NA,"NV_754/","NV_754",4,2,2,2,2,2,7,"NV_754",4,3,3,3,3,3,"NV_754",4,3,3,3,3,3,3,"56","male","man","","20149",""
"34","sliderTrial","html-slider-response",124,1073433,"0.0-124.0",NA,"656776a7904ae00d6b91d1dd","6568aa600592cb173acc433c",9,NA,NA,NA,NA,NA,NA,NA,NA,NA,NA,NA,"681","[""SV_PolicingMSA/NV_754/IMG_4_754.jpg"",""SV_PolicingMSA/NV_754/IMG_1_754.jpg"",""SV_PolicingMSA/NV_754/IMG_6_754.jpg"",""SV_PolicingMSA/NV_754/IMG_2_754.jpg"",""SV_PolicingMSA/NV_754/IMG_10_754.jpg"",""SV_PolicingMSA/NV_754/IMG_8_754.jpg"",""SV_PolicingMSA/NV_754/IMG_14_754.jpg"",""SV_PolicingMSA/NV_754/IMG_0_754.jpg""]","4",NA,NA,NA,NA,NA,4,NA,4,"[""./rc_img/cop_condGroup_15_SafeStreets_autoscaled.png"",""./rc_img/cop_condGroup_15_CommunitySafety_autoscaled.png""]",4,NA,NA,"NV_754/","NV_754",4,2,2,2,2,2,7,"NV_754",4,3,3,3,3,3,"NV_754",4,3,3,3,3,3,3,"56","male","man","","20149",""
"35","sliderTrial","html-slider-response",125,1074100,"0.0-125.0",NA,"656776a7904ae00d6b91d1dd","6568aa600592cb173acc433c",9,NA,NA,NA,NA,NA,NA,NA,NA,NA,NA,NA,"665","[""SV_PolicingMSA/NV_754/IMG_4_754.jpg"",""SV_PolicingMSA/NV_754/IMG_1_754.jpg"",""SV_PolicingMSA/NV_754/IMG_6_754.jpg"",""SV_PolicingMSA/NV_754/IMG_2_754.jpg"",""SV_PolicingMSA/NV_754/IMG_10_754.jpg"",""SV_PolicingMSA/NV_754/IMG_8_754.jpg"",""SV_PolicingMSA/NV_754/IMG_14_754.jpg"",""SV_PolicingMSA/NV_754/IMG_0_754.jpg""]","4",NA,NA,NA,NA,NA,4,NA,4,"[""./rc_img/cop_condGroup_13_CommunitySafety_autoscaled.png"",""./rc_img/cop_condGroup_13_SafeStreets_autoscaled.png""]",4,NA,NA,"NV_754/","NV_754",4,2,2,2,2,2,7,"NV_754",4,3,3,3,3,3,"NV_754",4,3,3,3,3,3,3,"56","male","man","","20149",""
"36","sliderTrial","html-slider-response",126,1074716,"0.0-126.0",NA,"656776a7904ae00d6b91d1dd","6568aa600592cb173acc433c",9,NA,NA,NA,NA,NA,NA,NA,NA,NA,NA,NA,"614","[""SV_PolicingMSA/NV_754/IMG_4_754.jpg"",""SV_PolicingMSA/NV_754/IMG_1_754.jpg"",""SV_PolicingMSA/NV_754/IMG_6_754.jpg"",""SV_PolicingMSA/NV_754/IMG_2_754.jpg"",""SV_PolicingMSA/NV_754/IMG_10_754.jpg"",""SV_PolicingMSA/NV_754/IMG_8_754.jpg"",""SV_PolicingMSA/NV_754/IMG_14_754.jpg"",""SV_PolicingMSA/NV_754/IMG_0_754.jpg""]","4",NA,NA,NA,NA,NA,4,NA,4,"[""./rc_img/cop_condGroup_16_SafeStreets_autoscaled.png"",""./rc_img/cop_condGroup_16_CommunitySafety_autoscaled.png""]",4,NA,NA,"NV_754/","NV_754",4,2,2,2,2,2,7,"NV_754",4,3,3,3,3,3,"NV_754",4,3,3,3,3,3,3,"56","male","man","","20149",""
"37","sliderTrial","html-slider-response",127,1075443,"0.0-127.0",NA,"656776a7904ae00d6b91d1dd","6568aa600592cb173acc433c",9,NA,NA,NA,NA,NA,NA,NA,NA,NA,NA,NA,"726","[""SV_PolicingMSA/NV_754/IMG_4_754.jpg"",""SV_PolicingMSA/NV_754/IMG_1_754.jpg"",""SV_PolicingMSA/NV_754/IMG_6_754.jpg"",""SV_PolicingMSA/NV_754/IMG_2_754.jpg"",""SV_PolicingMSA/NV_754/IMG_10_754.jpg"",""SV_PolicingMSA/NV_754/IMG_8_754.jpg"",""SV_PolicingMSA/NV_754/IMG_14_754.jpg"",""SV_PolicingMSA/NV_754/IMG_0_754.jpg""]","4",NA,NA,NA,NA,NA,4,NA,4,"[""./rc_img/cop_condGroup_7_CommunitySafety_autoscaled.png"",""./rc_img/cop_condGroup_7_SafeStreets_autoscaled.png""]",4,NA,NA,"NV_754/","NV_754",4,2,2,2,2,2,7,"NV_754",4,3,3,3,3,3,"NV_754",4,3,3,3,3,3,3,"56","male","man","","20149",""
"38","sliderTrial","html-slider-response",140,1099564,"0.0-140.0",NA,"656776a7904ae00d6b91d1dd","6568aa600592cb173acc433c",9,NA,NA,NA,NA,NA,NA,NA,NA,NA,NA,NA,"1291","[""SV_PolicingMSA/NV_84/IMG_4_84.jpg"",""SV_PolicingMSA/NV_84/IMG_8_84.jpg"",""SV_PolicingMSA/NV_84/IMG_5_84.jpg"",""SV_PolicingMSA/NV_84/IMG_14_84.jpg"",""SV_PolicingMSA/NV_84/IMG_11_84.jpg"",""SV_PolicingMSA/NV_84/IMG_0_84.jpg"",""SV_PolicingMSA/NV_84/IMG_3_84.jpg"",""SV_PolicingMSA/NV_84/IMG_6_84.jpg""]","4",NA,NA,NA,NA,NA,2,NA,4,"[""./rc_img/cop_condGroup_10_CommunitySafety_autoscaled.png"",""./rc_img/cop_condGroup_10_SafeStreets_autoscaled.png""]",4,NA,NA,"NV_84/I","NV_84I",2,3,3,3,3,3,4,"NV_84I",2,3,3,3,3,3,"NV_84I",2,3,3,3,3,3,3,"56","male","man","","20149",""
"39","sliderTrial","html-slider-response",141,1100404,"0.0-141.0",NA,"656776a7904ae00d6b91d1dd","6568aa600592cb173acc433c",9,NA,NA,NA,NA,NA,NA,NA,NA,NA,NA,NA,"838","[""SV_PolicingMSA/NV_84/IMG_4_84.jpg"",""SV_PolicingMSA/NV_84/IMG_8_84.jpg"",""SV_PolicingMSA/NV_84/IMG_5_84.jpg"",""SV_PolicingMSA/NV_84/IMG_14_84.jpg"",""SV_PolicingMSA/NV_84/IMG_11_84.jpg"",""SV_PolicingMSA/NV_84/IMG_0_84.jpg"",""SV_PolicingMSA/NV_84/IMG_3_84.jpg"",""SV_PolicingMSA/NV_84/IMG_6_84.jpg""]","4",NA,NA,NA,NA,NA,2,NA,4,"[""./rc_img/cop_condGroup_15_SafeStreets_autoscaled.png"",""./rc_img/cop_condGroup_15_CommunitySafety_autoscaled.png""]",4,NA,NA,"NV_84/I","NV_84I",2,3,3,3,3,3,4,"NV_84I",2,3,3,3,3,3,"NV_84I",2,3,3,3,3,3,3,"56","male","man","","20149",""
"40","sliderTrial","html-slider-response",142,1101297,"0.0-142.0",NA,"656776a7904ae00d6b91d1dd","6568aa600592cb173acc433c",9,NA,NA,NA,NA,NA,NA,NA,NA,NA,NA,NA,"891","[""SV_PolicingMSA/NV_84/IMG_4_84.jpg"",""SV_PolicingMSA/NV_84/IMG_8_84.jpg"",""SV_PolicingMSA/NV_84/IMG_5_84.jpg"",""SV_PolicingMSA/NV_84/IMG_14_84.jpg"",""SV_PolicingMSA/NV_84/IMG_11_84.jpg"",""SV_PolicingMSA/NV_84/IMG_0_84.jpg"",""SV_PolicingMSA/NV_84/IMG_3_84.jpg"",""SV_PolicingMSA/NV_84/IMG_6_84.jpg""]","4",NA,NA,NA,NA,NA,2,NA,4,"[""./rc_img/cop_condGroup_13_CommunitySafety_autoscaled.png"",""./rc_img/cop_condGroup_13_SafeStreets_autoscaled.png""]",4,NA,NA,"NV_84/I","NV_84I",2,3,3,3,3,3,4,"NV_84I",2,3,3,3,3,3,"NV_84I",2,3,3,3,3,3,3,"56","male","man","","20149",""
"41","sliderTrial","html-slider-response",143,1102024,"0.0-143.0",NA,"656776a7904ae00d6b91d1dd","6568aa600592cb173acc433c",9,NA,NA,NA,NA,NA,NA,NA,NA,NA,NA,NA,"725","[""SV_PolicingMSA/NV_84/IMG_4_84.jpg"",""SV_PolicingMSA/NV_84/IMG_8_84.jpg"",""SV_PolicingMSA/NV_84/IMG_5_84.jpg"",""SV_PolicingMSA/NV_84/IMG_14_84.jpg"",""SV_PolicingMSA/NV_84/IMG_11_84.jpg"",""SV_PolicingMSA/NV_84/IMG_0_84.jpg"",""SV_PolicingMSA/NV_84/IMG_3_84.jpg"",""SV_PolicingMSA/NV_84/IMG_6_84.jpg""]","4",NA,NA,NA,NA,NA,2,NA,4,"[""./rc_img/cop_condGroup_16_SafeStreets_autoscaled.png"",""./rc_img/cop_condGroup_16_CommunitySafety_autoscaled.png""]",4,NA,NA,"NV_84/I","NV_84I",2,3,3,3,3,3,4,"NV_84I",2,3,3,3,3,3,"NV_84I",2,3,3,3,3,3,3,"56","male","man","","20149",""
"42","sliderTrial","html-slider-response",144,1102654,"0.0-144.0",NA,"656776a7904ae00d6b91d1dd","6568aa600592cb173acc433c",9,NA,NA,NA,NA,NA,NA,NA,NA,NA,NA,NA,"629","[""SV_PolicingMSA/NV_84/IMG_4_84.jpg"",""SV_PolicingMSA/NV_84/IMG_8_84.jpg"",""SV_PolicingMSA/NV_84/IMG_5_84.jpg"",""SV_PolicingMSA/NV_84/IMG_14_84.jpg"",""SV_PolicingMSA/NV_84/IMG_11_84.jpg"",""SV_PolicingMSA/NV_84/IMG_0_84.jpg"",""SV_PolicingMSA/NV_84/IMG_3_84.jpg"",""SV_PolicingMSA/NV_84/IMG_6_84.jpg""]","4",NA,NA,NA,NA,NA,2,NA,4,"[""./rc_img/cop_condGroup_7_CommunitySafety_autoscaled.png"",""./rc_img/cop_condGroup_7_SafeStreets_autoscaled.png""]",4,NA,NA,"NV_84/I","NV_84I",2,3,3,3,3,3,4,"NV_84I",2,3,3,3,3,3,"NV_84I",2,3,3,3,3,3,3,"56","male","man","","20149",""
