"","task","trial_type","trial_index","time_elapsed","internal_node_id","subject_id","study_id","session_id","section","width","height","webaudio","browser","browser_version","mobile","os","fullscreen","vsync_rate","webcam","microphone","rt","stimulus","response","success","timeout","failed_images","failed_audio","failed_video","block.x.x","accuracy","slider_start","choices","standardized_response","correct","num_attention_checks_correct","stim_tract","stim_tractT","block.x","P0_Q1.wealthy","P0_Q1.safe","P0_Q1.walkable","P0_Q1.traditional","P0_Q1.diverse","block_fixed","stim_tractT.x","block.y","P0_Q1.violence","P0_Q1.crime","P0_Q1.drug","P0_Q1.schools","P0_Q1.opportunities","stim_tractT.y","block.y.y","P0_Q1.movein","P0_Q1.moveout","P0_Q1.shopping","P0_Q1.walk","P0_Q1.park","P0_Q1.school","age","sex","gender","gender-self-describe","zipcode","surveyComments"
"1","sliderTrial","html-slider-response",18,235383,"0.0-18.0",NA,"656776a7904ae00d6b91d1dd","6568ad05c66989571b2bc25a",9,NA,NA,NA,NA,NA,NA,NA,NA,NA,NA,NA,"25785","[""SV_PolicingMSA/NV_466/IMG_2_466.jpg"",""SV_PolicingMSA/NV_466/IMG_0_466.jpg"",""SV_PolicingMSA/NV_466/IMG_10_466.jpg"",""SV_PolicingMSA/NV_466/IMG_6_466.jpg"",""SV_PolicingMSA/NV_466/IMG_1_466.jpg"",""SV_PolicingMSA/NV_466/IMG_13_466.jpg"",""SV_PolicingMSA/NV_466/IMG_4_466.jpg"",""SV_PolicingMSA/NV_466/IMG_5_466.jpg""]","1",NA,NA,NA,NA,NA,3,NA,4,"[""./rc_img/cop_condGroup_16_SafeStreets_autoscaled.png"",""./rc_img/cop_condGroup_16_CommunitySafety_autoscaled.png""]",7,NA,NA,"NV_466/","NV_466",3,1,1,4,1,1,5,"NV_466",3,2,2,3,2,1,"NV_466",3,1,3,2,0,0,1,"30","male","man","","01602","Thank you for the study, I answered honestly and to the best of my abilities."
"2","sliderTrial","html-slider-response",19,244002,"0.0-19.0",NA,"656776a7904ae00d6b91d1dd","6568ad05c66989571b2bc25a",9,NA,NA,NA,NA,NA,NA,NA,NA,NA,NA,NA,"8616","[""SV_PolicingMSA/NV_466/IMG_2_466.jpg"",""SV_PolicingMSA/NV_466/IMG_0_466.jpg"",""SV_PolicingMSA/NV_466/IMG_10_466.jpg"",""SV_PolicingMSA/NV_466/IMG_6_466.jpg"",""SV_PolicingMSA/NV_466/IMG_1_466.jpg"",""SV_PolicingMSA/NV_466/IMG_13_466.jpg"",""SV_PolicingMSA/NV_466/IMG_4_466.jpg"",""SV_PolicingMSA/NV_466/IMG_5_466.jpg""]","7",NA,NA,NA,NA,NA,3,NA,4,"[""./rc_img/cop_condGroup_14_CommunitySafety_autoscaled.png"",""./rc_img/cop_condGroup_14_SafeStreets_autoscaled.png""]",7,NA,NA,"NV_466/","NV_466",3,1,1,4,1,1,5,"NV_466",3,2,2,3,2,1,"NV_466",3,1,3,2,0,0,1,"30","male","man","","01602","Thank you for the study, I answered honestly and to the best of my abilities."
"3","sliderTrial","html-slider-response",20,253622,"0.0-20.0",NA,"656776a7904ae00d6b91d1dd","6568ad05c66989571b2bc25a",9,NA,NA,NA,NA,NA,NA,NA,NA,NA,NA,NA,"9619","[""SV_PolicingMSA/NV_466/IMG_2_466.jpg"",""SV_PolicingMSA/NV_466/IMG_0_466.jpg"",""SV_PolicingMSA/NV_466/IMG_10_466.jpg"",""SV_PolicingMSA/NV_466/IMG_6_466.jpg"",""SV_PolicingMSA/NV_466/IMG_1_466.jpg"",""SV_PolicingMSA/NV_466/IMG_13_466.jpg"",""SV_PolicingMSA/NV_466/IMG_4_466.jpg"",""SV_PolicingMSA/NV_466/IMG_5_466.jpg""]","1",NA,NA,NA,NA,NA,3,NA,4,"[""./rc_img/cop_condGroup_18_SafeStreets_autoscaled.png"",""./rc_img/cop_condGroup_18_CommunitySafety_autoscaled.png""]",7,NA,NA,"NV_466/","NV_466",3,1,1,4,1,1,5,"NV_466",3,2,2,3,2,1,"NV_466",3,1,3,2,0,0,1,"30","male","man","","01602","Thank you for the study, I answered honestly and to the best of my abilities."
"4","sliderTrial","html-slider-response",21,257783,"0.0-21.0",NA,"656776a7904ae00d6b91d1dd","6568ad05c66989571b2bc25a",9,NA,NA,NA,NA,NA,NA,NA,NA,NA,NA,NA,"4159","[""SV_PolicingMSA/NV_466/IMG_2_466.jpg"",""SV_PolicingMSA/NV_466/IMG_0_466.jpg"",""SV_PolicingMSA/NV_466/IMG_10_466.jpg"",""SV_PolicingMSA/NV_466/IMG_6_466.jpg"",""SV_PolicingMSA/NV_466/IMG_1_466.jpg"",""SV_PolicingMSA/NV_466/IMG_13_466.jpg"",""SV_PolicingMSA/NV_466/IMG_4_466.jpg"",""SV_PolicingMSA/NV_466/IMG_5_466.jpg""]","7",NA,NA,NA,NA,NA,3,NA,4,"[""./rc_img/cop_condGroup_19_CommunitySafety_autoscaled.png"",""./rc_img/cop_condGroup_19_SafeStreets_autoscaled.png""]",7,NA,NA,"NV_466/","NV_466",3,1,1,4,1,1,5,"NV_466",3,2,2,3,2,1,"NV_466",3,1,3,2,0,0,1,"30","male","man","","01602","Thank you for the study, I answered honestly and to the best of my abilities."
"5","sliderTrial","html-slider-response",22,261983,"0.0-22.0",NA,"656776a7904ae00d6b91d1dd","6568ad05c66989571b2bc25a",9,NA,NA,NA,NA,NA,NA,NA,NA,NA,NA,NA,"4199","[""SV_PolicingMSA/NV_466/IMG_2_466.jpg"",""SV_PolicingMSA/NV_466/IMG_0_466.jpg"",""SV_PolicingMSA/NV_466/IMG_10_466.jpg"",""SV_PolicingMSA/NV_466/IMG_6_466.jpg"",""SV_PolicingMSA/NV_466/IMG_1_466.jpg"",""SV_PolicingMSA/NV_466/IMG_13_466.jpg"",""SV_PolicingMSA/NV_466/IMG_4_466.jpg"",""SV_PolicingMSA/NV_466/IMG_5_466.jpg""]","1",NA,NA,NA,NA,NA,3,NA,4,"[""./rc_img/cop_condGroup_20_SafeStreets_autoscaled.png"",""./rc_img/cop_condGroup_20_CommunitySafety_autoscaled.png""]",7,NA,NA,"NV_466/","NV_466",3,1,1,4,1,1,5,"NV_466",3,2,2,3,2,1,"NV_466",3,1,3,2,0,0,1,"30","male","man","","01602","Thank you for the study, I answered honestly and to the best of my abilities."
"6","sliderTrial","html-slider-response",35,375958,"0.0-35.0",NA,"656776a7904ae00d6b91d1dd","6568ad05c66989571b2bc25a",9,NA,NA,NA,NA,NA,NA,NA,NA,NA,NA,NA,"8327","[""SV_PolicingMSA/NV_84/IMG_4_84.jpg"",""SV_PolicingMSA/NV_84/IMG_8_84.jpg"",""SV_PolicingMSA/NV_84/IMG_5_84.jpg"",""SV_PolicingMSA/NV_84/IMG_14_84.jpg"",""SV_PolicingMSA/NV_84/IMG_11_84.jpg"",""SV_PolicingMSA/NV_84/IMG_0_84.jpg"",""SV_PolicingMSA/NV_84/IMG_3_84.jpg"",""SV_PolicingMSA/NV_84/IMG_6_84.jpg""]","7",NA,NA,NA,NA,NA,2,NA,4,"[""./rc_img/cop_condGroup_12_SafeStreets_autoscaled.png"",""./rc_img/cop_condGroup_12_CommunitySafety_autoscaled.png""]",1,NA,NA,"NV_84/I","NV_84I",2,1,3,4,2,3,3,"NV_84I",2,2,2,2,2,1,"NV_84I",2,2,2,3,0,0,2,"30","male","man","","01602","Thank you for the study, I answered honestly and to the best of my abilities."
"7","sliderTrial","html-slider-response",36,379407,"0.0-36.0",NA,"656776a7904ae00d6b91d1dd","6568ad05c66989571b2bc25a",9,NA,NA,NA,NA,NA,NA,NA,NA,NA,NA,NA,"3447","[""SV_PolicingMSA/NV_84/IMG_4_84.jpg"",""SV_PolicingMSA/NV_84/IMG_8_84.jpg"",""SV_PolicingMSA/NV_84/IMG_5_84.jpg"",""SV_PolicingMSA/NV_84/IMG_14_84.jpg"",""SV_PolicingMSA/NV_84/IMG_11_84.jpg"",""SV_PolicingMSA/NV_84/IMG_0_84.jpg"",""SV_PolicingMSA/NV_84/IMG_3_84.jpg"",""SV_PolicingMSA/NV_84/IMG_6_84.jpg""]","1",NA,NA,NA,NA,NA,2,NA,4,"[""./rc_img/cop_condGroup_13_CommunitySafety_autoscaled.png"",""./rc_img/cop_condGroup_13_SafeStreets_autoscaled.png""]",1,NA,NA,"NV_84/I","NV_84I",2,1,3,4,2,3,3,"NV_84I",2,2,2,2,2,1,"NV_84I",2,2,2,3,0,0,2,"30","male","man","","01602","Thank you for the study, I answered honestly and to the best of my abilities."
"8","sliderTrial","html-slider-response",37,382543,"0.0-37.0",NA,"656776a7904ae00d6b91d1dd","6568ad05c66989571b2bc25a",9,NA,NA,NA,NA,NA,NA,NA,NA,NA,NA,NA,"3136","[""SV_PolicingMSA/NV_84/IMG_4_84.jpg"",""SV_PolicingMSA/NV_84/IMG_8_84.jpg"",""SV_PolicingMSA/NV_84/IMG_5_84.jpg"",""SV_PolicingMSA/NV_84/IMG_14_84.jpg"",""SV_PolicingMSA/NV_84/IMG_11_84.jpg"",""SV_PolicingMSA/NV_84/IMG_0_84.jpg"",""SV_PolicingMSA/NV_84/IMG_3_84.jpg"",""SV_PolicingMSA/NV_84/IMG_6_84.jpg""]","1",NA,NA,NA,NA,NA,2,NA,4,"[""./rc_img/cop_condGroup_10_CommunitySafety_autoscaled.png"",""./rc_img/cop_condGroup_10_SafeStreets_autoscaled.png""]",1,NA,NA,"NV_84/I","NV_84I",2,1,3,4,2,3,3,"NV_84I",2,2,2,2,2,1,"NV_84I",2,2,2,3,0,0,2,"30","male","man","","01602","Thank you for the study, I answered honestly and to the best of my abilities."
"9","sliderTrial","html-slider-response",38,386462,"0.0-38.0",NA,"656776a7904ae00d6b91d1dd","6568ad05c66989571b2bc25a",9,NA,NA,NA,NA,NA,NA,NA,NA,NA,NA,NA,"3918","[""SV_PolicingMSA/NV_84/IMG_4_84.jpg"",""SV_PolicingMSA/NV_84/IMG_8_84.jpg"",""SV_PolicingMSA/NV_84/IMG_5_84.jpg"",""SV_PolicingMSA/NV_84/IMG_14_84.jpg"",""SV_PolicingMSA/NV_84/IMG_11_84.jpg"",""SV_PolicingMSA/NV_84/IMG_0_84.jpg"",""SV_PolicingMSA/NV_84/IMG_3_84.jpg"",""SV_PolicingMSA/NV_84/IMG_6_84.jpg""]","1",NA,NA,NA,NA,NA,2,NA,4,"[""./rc_img/cop_condGroup_15_CommunitySafety_autoscaled.png"",""./rc_img/cop_condGroup_15_SafeStreets_autoscaled.png""]",1,NA,NA,"NV_84/I","NV_84I",2,1,3,4,2,3,3,"NV_84I",2,2,2,2,2,1,"NV_84I",2,2,2,3,0,0,2,"30","male","man","","01602","Thank you for the study, I answered honestly and to the best of my abilities."
"10","sliderTrial","html-slider-response",39,390655,"0.0-39.0",NA,"656776a7904ae00d6b91d1dd","6568ad05c66989571b2bc25a",9,NA,NA,NA,NA,NA,NA,NA,NA,NA,NA,NA,"4190","[""SV_PolicingMSA/NV_84/IMG_4_84.jpg"",""SV_PolicingMSA/NV_84/IMG_8_84.jpg"",""SV_PolicingMSA/NV_84/IMG_5_84.jpg"",""SV_PolicingMSA/NV_84/IMG_14_84.jpg"",""SV_PolicingMSA/NV_84/IMG_11_84.jpg"",""SV_PolicingMSA/NV_84/IMG_0_84.jpg"",""SV_PolicingMSA/NV_84/IMG_3_84.jpg"",""SV_PolicingMSA/NV_84/IMG_6_84.jpg""]","1",NA,NA,NA,NA,NA,2,NA,4,"[""./rc_img/cop_condGroup_17_CommunitySafety_autoscaled.png"",""./rc_img/cop_condGroup_17_SafeStreets_autoscaled.png""]",1,NA,NA,"NV_84/I","NV_84I",2,1,3,4,2,3,3,"NV_84I",2,2,2,2,2,1,"NV_84I",2,2,2,3,0,0,2,"30","male","man","","01602","Thank you for the study, I answered honestly and to the best of my abilities."
"11","sliderTrial","html-slider-response",52,498303,"0.0-52.0",NA,"656776a7904ae00d6b91d1dd","6568ad05c66989571b2bc25a",9,NA,NA,NA,NA,NA,NA,NA,NA,NA,NA,NA,"4039","[""SV_PolicingMSA/NV_329/IMG_12_329.jpg"",""SV_PolicingMSA/NV_329/IMG_6_329.jpg"",""SV_PolicingMSA/NV_329/IMG_2_329.jpg"",""SV_PolicingMSA/NV_329/IMG_10_329.jpg"",""SV_PolicingMSA/NV_329/IMG_0_329.jpg"",""SV_PolicingMSA/NV_329/IMG_13_329.jpg"",""SV_PolicingMSA/NV_329/IMG_14_329.jpg"",""SV_PolicingMSA/NV_329/IMG_1_329.jpg""]","1",NA,NA,NA,NA,NA,2,NA,4,"[""./rc_img/cop_condGroup_2_CommunitySafety_autoscaled.png"",""./rc_img/cop_condGroup_2_SafeStreets_autoscaled.png""]",1,NA,NA,"NV_329/","NV_329",2,3,3,4,3,2,4,"NV_329",2,0,1,2,3,0,"NV_329",2,4,1,4,0,2,4,"30","male","man","","01602","Thank you for the study, I answered honestly and to the best of my abilities."
"12","sliderTrial","html-slider-response",53,501183,"0.0-53.0",NA,"656776a7904ae00d6b91d1dd","6568ad05c66989571b2bc25a",9,NA,NA,NA,NA,NA,NA,NA,NA,NA,NA,NA,"2878","[""SV_PolicingMSA/NV_329/IMG_12_329.jpg"",""SV_PolicingMSA/NV_329/IMG_6_329.jpg"",""SV_PolicingMSA/NV_329/IMG_2_329.jpg"",""SV_PolicingMSA/NV_329/IMG_10_329.jpg"",""SV_PolicingMSA/NV_329/IMG_0_329.jpg"",""SV_PolicingMSA/NV_329/IMG_13_329.jpg"",""SV_PolicingMSA/NV_329/IMG_14_329.jpg"",""SV_PolicingMSA/NV_329/IMG_1_329.jpg""]","7",NA,NA,NA,NA,NA,2,NA,4,"[""./rc_img/cop_condGroup_1_SafeStreets_autoscaled.png"",""./rc_img/cop_condGroup_1_CommunitySafety_autoscaled.png""]",1,NA,NA,"NV_329/","NV_329",2,3,3,4,3,2,4,"NV_329",2,0,1,2,3,0,"NV_329",2,4,1,4,0,2,4,"30","male","man","","01602","Thank you for the study, I answered honestly and to the best of my abilities."
"13","sliderTrial","html-slider-response",54,504263,"0.0-54.0",NA,"656776a7904ae00d6b91d1dd","6568ad05c66989571b2bc25a",9,NA,NA,NA,NA,NA,NA,NA,NA,NA,NA,NA,"3079","[""SV_PolicingMSA/NV_329/IMG_12_329.jpg"",""SV_PolicingMSA/NV_329/IMG_6_329.jpg"",""SV_PolicingMSA/NV_329/IMG_2_329.jpg"",""SV_PolicingMSA/NV_329/IMG_10_329.jpg"",""SV_PolicingMSA/NV_329/IMG_0_329.jpg"",""SV_PolicingMSA/NV_329/IMG_13_329.jpg"",""SV_PolicingMSA/NV_329/IMG_14_329.jpg"",""SV_PolicingMSA/NV_329/IMG_1_329.jpg""]","7",NA,NA,NA,NA,NA,2,NA,4,"[""./rc_img/cop_condGroup_5_SafeStreets_autoscaled.png"",""./rc_img/cop_condGroup_5_CommunitySafety_autoscaled.png""]",1,NA,NA,"NV_329/","NV_329",2,3,3,4,3,2,4,"NV_329",2,0,1,2,3,0,"NV_329",2,4,1,4,0,2,4,"30","male","man","","01602","Thank you for the study, I answered honestly and to the best of my abilities."
"14","sliderTrial","html-slider-response",55,507271,"0.0-55.0",NA,"656776a7904ae00d6b91d1dd","6568ad05c66989571b2bc25a",9,NA,NA,NA,NA,NA,NA,NA,NA,NA,NA,NA,"3007","[""SV_PolicingMSA/NV_329/IMG_12_329.jpg"",""SV_PolicingMSA/NV_329/IMG_6_329.jpg"",""SV_PolicingMSA/NV_329/IMG_2_329.jpg"",""SV_PolicingMSA/NV_329/IMG_10_329.jpg"",""SV_PolicingMSA/NV_329/IMG_0_329.jpg"",""SV_PolicingMSA/NV_329/IMG_13_329.jpg"",""SV_PolicingMSA/NV_329/IMG_14_329.jpg"",""SV_PolicingMSA/NV_329/IMG_1_329.jpg""]","1",NA,NA,NA,NA,NA,2,NA,4,"[""./rc_img/cop_condGroup_7_CommunitySafety_autoscaled.png"",""./rc_img/cop_condGroup_7_SafeStreets_autoscaled.png""]",1,NA,NA,"NV_329/","NV_329",2,3,3,4,3,2,4,"NV_329",2,0,1,2,3,0,"NV_329",2,4,1,4,0,2,4,"30","male","man","","01602","Thank you for the study, I answered honestly and to the best of my abilities."
"15","sliderTrial","html-slider-response",56,510990,"0.0-56.0",NA,"656776a7904ae00d6b91d1dd","6568ad05c66989571b2bc25a",9,NA,NA,NA,NA,NA,NA,NA,NA,NA,NA,NA,"3719","[""SV_PolicingMSA/NV_329/IMG_12_329.jpg"",""SV_PolicingMSA/NV_329/IMG_6_329.jpg"",""SV_PolicingMSA/NV_329/IMG_2_329.jpg"",""SV_PolicingMSA/NV_329/IMG_10_329.jpg"",""SV_PolicingMSA/NV_329/IMG_0_329.jpg"",""SV_PolicingMSA/NV_329/IMG_13_329.jpg"",""SV_PolicingMSA/NV_329/IMG_14_329.jpg"",""SV_PolicingMSA/NV_329/IMG_1_329.jpg""]","7",NA,NA,NA,NA,NA,2,NA,4,"[""./rc_img/cop_condGroup_4_SafeStreets_autoscaled.png"",""./rc_img/cop_condGroup_4_CommunitySafety_autoscaled.png""]",1,NA,NA,"NV_329/","NV_329",2,3,3,4,3,2,4,"NV_329",2,0,1,2,3,0,"NV_329",2,4,1,4,0,2,4,"30","male","man","","01602","Thank you for the study, I answered honestly and to the best of my abilities."
"16","sliderTrial_attention","html-slider-response",69,633758,"0.0-69.0",NA,"656776a7904ae00d6b91d1dd","6568ad05c66989571b2bc25a",9,NA,NA,NA,NA,NA,NA,NA,NA,NA,NA,NA,"null","[""SV_PolicingMSA/NV_0/IMG_5_0.jpg"",""SV_PolicingMSA/NV_0/IMG_0_0.jpg"",""SV_PolicingMSA/NV_0/IMG_4_0.jpg"",""SV_PolicingMSA/NV_0/IMG_12_0.jpg"",""SV_PolicingMSA/NV_0/IMG_13_0.jpg"",""SV_PolicingMSA/NV_0/IMG_7_0.jpg"",""SV_PolicingMSA/NV_0/IMG_11_0.jpg"",""SV_PolicingMSA/NV_0/IMG_14_0.jpg""]","null",NA,NA,NA,NA,NA,0,NA,4,"[""./assets/img/attnchk.png"",""./assets/img/attnchk.png""]",NA,TRUE,NA,"NV_0/IM","NV_0IM",0,1,2,4,2,3,1,"NV_0IM",0,1,1,1,2,2,"NV_0IM",0,2,3,3,0,0,3,"30","male","man","","01602","Thank you for the study, I answered honestly and to the best of my abilities."
"17","sliderTrial","html-slider-response",70,637942,"0.0-70.0",NA,"656776a7904ae00d6b91d1dd","6568ad05c66989571b2bc25a",9,NA,NA,NA,NA,NA,NA,NA,NA,NA,NA,NA,"4181","[""SV_PolicingMSA/NV_0/IMG_5_0.jpg"",""SV_PolicingMSA/NV_0/IMG_0_0.jpg"",""SV_PolicingMSA/NV_0/IMG_4_0.jpg"",""SV_PolicingMSA/NV_0/IMG_12_0.jpg"",""SV_PolicingMSA/NV_0/IMG_13_0.jpg"",""SV_PolicingMSA/NV_0/IMG_7_0.jpg"",""SV_PolicingMSA/NV_0/IMG_11_0.jpg"",""SV_PolicingMSA/NV_0/IMG_14_0.jpg""]","1",NA,NA,NA,NA,NA,0,NA,4,"[""./rc_img/cop_condGroup_2_CommunitySafety_autoscaled.png"",""./rc_img/cop_condGroup_2_SafeStreets_autoscaled.png""]",1,NA,NA,"NV_0/IM","NV_0IM",0,1,2,4,2,3,1,"NV_0IM",0,1,1,1,2,2,"NV_0IM",0,2,3,3,0,0,3,"30","male","man","","01602","Thank you for the study, I answered honestly and to the best of my abilities."
"18","sliderTrial","html-slider-response",71,640694,"0.0-71.0",NA,"656776a7904ae00d6b91d1dd","6568ad05c66989571b2bc25a",9,NA,NA,NA,NA,NA,NA,NA,NA,NA,NA,NA,"2751","[""SV_PolicingMSA/NV_0/IMG_5_0.jpg"",""SV_PolicingMSA/NV_0/IMG_0_0.jpg"",""SV_PolicingMSA/NV_0/IMG_4_0.jpg"",""SV_PolicingMSA/NV_0/IMG_12_0.jpg"",""SV_PolicingMSA/NV_0/IMG_13_0.jpg"",""SV_PolicingMSA/NV_0/IMG_7_0.jpg"",""SV_PolicingMSA/NV_0/IMG_11_0.jpg"",""SV_PolicingMSA/NV_0/IMG_14_0.jpg""]","7",NA,NA,NA,NA,NA,0,NA,4,"[""./rc_img/cop_condGroup_1_SafeStreets_autoscaled.png"",""./rc_img/cop_condGroup_1_CommunitySafety_autoscaled.png""]",1,NA,NA,"NV_0/IM","NV_0IM",0,1,2,4,2,3,1,"NV_0IM",0,1,1,1,2,2,"NV_0IM",0,2,3,3,0,0,3,"30","male","man","","01602","Thank you for the study, I answered honestly and to the best of my abilities."
"19","sliderTrial","html-slider-response",72,645487,"0.0-72.0",NA,"656776a7904ae00d6b91d1dd","6568ad05c66989571b2bc25a",9,NA,NA,NA,NA,NA,NA,NA,NA,NA,NA,NA,"4790","[""SV_PolicingMSA/NV_0/IMG_5_0.jpg"",""SV_PolicingMSA/NV_0/IMG_0_0.jpg"",""SV_PolicingMSA/NV_0/IMG_4_0.jpg"",""SV_PolicingMSA/NV_0/IMG_12_0.jpg"",""SV_PolicingMSA/NV_0/IMG_13_0.jpg"",""SV_PolicingMSA/NV_0/IMG_7_0.jpg"",""SV_PolicingMSA/NV_0/IMG_11_0.jpg"",""SV_PolicingMSA/NV_0/IMG_14_0.jpg""]","7",NA,NA,NA,NA,NA,0,NA,4,"[""./rc_img/cop_condGroup_5_SafeStreets_autoscaled.png"",""./rc_img/cop_condGroup_5_CommunitySafety_autoscaled.png""]",1,NA,NA,"NV_0/IM","NV_0IM",0,1,2,4,2,3,1,"NV_0IM",0,1,1,1,2,2,"NV_0IM",0,2,3,3,0,0,3,"30","male","man","","01602","Thank you for the study, I answered honestly and to the best of my abilities."
"20","sliderTrial","html-slider-response",73,648879,"0.0-73.0",NA,"656776a7904ae00d6b91d1dd","6568ad05c66989571b2bc25a",9,NA,NA,NA,NA,NA,NA,NA,NA,NA,NA,NA,"3391","[""SV_PolicingMSA/NV_0/IMG_5_0.jpg"",""SV_PolicingMSA/NV_0/IMG_0_0.jpg"",""SV_PolicingMSA/NV_0/IMG_4_0.jpg"",""SV_PolicingMSA/NV_0/IMG_12_0.jpg"",""SV_PolicingMSA/NV_0/IMG_13_0.jpg"",""SV_PolicingMSA/NV_0/IMG_7_0.jpg"",""SV_PolicingMSA/NV_0/IMG_11_0.jpg"",""SV_PolicingMSA/NV_0/IMG_14_0.jpg""]","1",NA,NA,NA,NA,NA,0,NA,4,"[""./rc_img/cop_condGroup_7_CommunitySafety_autoscaled.png"",""./rc_img/cop_condGroup_7_SafeStreets_autoscaled.png""]",1,NA,NA,"NV_0/IM","NV_0IM",0,1,2,4,2,3,1,"NV_0IM",0,1,1,1,2,2,"NV_0IM",0,2,3,3,0,0,3,"30","male","man","","01602","Thank you for the study, I answered honestly and to the best of my abilities."
"21","sliderTrial","html-slider-response",74,652063,"0.0-74.0",NA,"656776a7904ae00d6b91d1dd","6568ad05c66989571b2bc25a",9,NA,NA,NA,NA,NA,NA,NA,NA,NA,NA,NA,"3183","[""SV_PolicingMSA/NV_0/IMG_5_0.jpg"",""SV_PolicingMSA/NV_0/IMG_0_0.jpg"",""SV_PolicingMSA/NV_0/IMG_4_0.jpg"",""SV_PolicingMSA/NV_0/IMG_12_0.jpg"",""SV_PolicingMSA/NV_0/IMG_13_0.jpg"",""SV_PolicingMSA/NV_0/IMG_7_0.jpg"",""SV_PolicingMSA/NV_0/IMG_11_0.jpg"",""SV_PolicingMSA/NV_0/IMG_14_0.jpg""]","7",NA,NA,NA,NA,NA,0,NA,4,"[""./rc_img/cop_condGroup_4_SafeStreets_autoscaled.png"",""./rc_img/cop_condGroup_4_CommunitySafety_autoscaled.png""]",1,NA,NA,"NV_0/IM","NV_0IM",0,1,2,4,2,3,1,"NV_0IM",0,1,1,1,2,2,"NV_0IM",0,2,3,3,0,0,3,"30","male","man","","01602","Thank you for the study, I answered honestly and to the best of my abilities."
"22","sliderTrial","html-slider-response",88,776399,"0.0-88.0",NA,"656776a7904ae00d6b91d1dd","6568ad05c66989571b2bc25a",9,NA,NA,NA,NA,NA,NA,NA,NA,NA,NA,NA,"3849","[""SV_PolicingMSA/NV_189/IMG_9_189.jpg"",""SV_PolicingMSA/NV_189/IMG_5_189.jpg"",""SV_PolicingMSA/NV_189/IMG_7_189.jpg"",""SV_PolicingMSA/NV_189/IMG_8_189.jpg"",""SV_PolicingMSA/NV_189/IMG_4_189.jpg"",""SV_PolicingMSA/NV_189/IMG_11_189.jpg"",""SV_PolicingMSA/NV_189/IMG_10_189.jpg"",""SV_PolicingMSA/NV_189/IMG_6_189.jpg""]","7",NA,NA,NA,NA,NA,1,NA,4,"[""./rc_img/cop_condGroup_6_CommunitySafety_autoscaled.png"",""./rc_img/cop_condGroup_6_SafeStreets_autoscaled.png""]",7,NA,NA,"NV_189/","NV_189",1,1,2,4,1,2,2,"NV_189",1,2,2,2,1,2,"NV_189",1,1,3,1,0,0,0,"30","male","man","","01602","Thank you for the study, I answered honestly and to the best of my abilities."
"23","sliderTrial","html-slider-response",89,779400,"0.0-89.0",NA,"656776a7904ae00d6b91d1dd","6568ad05c66989571b2bc25a",9,NA,NA,NA,NA,NA,NA,NA,NA,NA,NA,NA,"2999","[""SV_PolicingMSA/NV_189/IMG_9_189.jpg"",""SV_PolicingMSA/NV_189/IMG_5_189.jpg"",""SV_PolicingMSA/NV_189/IMG_7_189.jpg"",""SV_PolicingMSA/NV_189/IMG_8_189.jpg"",""SV_PolicingMSA/NV_189/IMG_4_189.jpg"",""SV_PolicingMSA/NV_189/IMG_11_189.jpg"",""SV_PolicingMSA/NV_189/IMG_10_189.jpg"",""SV_PolicingMSA/NV_189/IMG_6_189.jpg""]","7",NA,NA,NA,NA,NA,1,NA,4,"[""./rc_img/cop_condGroup_8_CommunitySafety_autoscaled.png"",""./rc_img/cop_condGroup_8_SafeStreets_autoscaled.png""]",7,NA,NA,"NV_189/","NV_189",1,1,2,4,1,2,2,"NV_189",1,2,2,2,1,2,"NV_189",1,1,3,1,0,0,0,"30","male","man","","01602","Thank you for the study, I answered honestly and to the best of my abilities."
"24","sliderTrial","html-slider-response",90,784231,"0.0-90.0",NA,"656776a7904ae00d6b91d1dd","6568ad05c66989571b2bc25a",9,NA,NA,NA,NA,NA,NA,NA,NA,NA,NA,NA,"4830","[""SV_PolicingMSA/NV_189/IMG_9_189.jpg"",""SV_PolicingMSA/NV_189/IMG_5_189.jpg"",""SV_PolicingMSA/NV_189/IMG_7_189.jpg"",""SV_PolicingMSA/NV_189/IMG_8_189.jpg"",""SV_PolicingMSA/NV_189/IMG_4_189.jpg"",""SV_PolicingMSA/NV_189/IMG_11_189.jpg"",""SV_PolicingMSA/NV_189/IMG_10_189.jpg"",""SV_PolicingMSA/NV_189/IMG_6_189.jpg""]","7",NA,NA,NA,NA,NA,1,NA,4,"[""./rc_img/cop_condGroup_3_CommunitySafety_autoscaled.png"",""./rc_img/cop_condGroup_3_SafeStreets_autoscaled.png""]",7,NA,NA,"NV_189/","NV_189",1,1,2,4,1,2,2,"NV_189",1,2,2,2,1,2,"NV_189",1,1,3,1,0,0,0,"30","male","man","","01602","Thank you for the study, I answered honestly and to the best of my abilities."
"25","sliderTrial","html-slider-response",91,787063,"0.0-91.0",NA,"656776a7904ae00d6b91d1dd","6568ad05c66989571b2bc25a",9,NA,NA,NA,NA,NA,NA,NA,NA,NA,NA,NA,"2830","[""SV_PolicingMSA/NV_189/IMG_9_189.jpg"",""SV_PolicingMSA/NV_189/IMG_5_189.jpg"",""SV_PolicingMSA/NV_189/IMG_7_189.jpg"",""SV_PolicingMSA/NV_189/IMG_8_189.jpg"",""SV_PolicingMSA/NV_189/IMG_4_189.jpg"",""SV_PolicingMSA/NV_189/IMG_11_189.jpg"",""SV_PolicingMSA/NV_189/IMG_10_189.jpg"",""SV_PolicingMSA/NV_189/IMG_6_189.jpg""]","1",NA,NA,NA,NA,NA,1,NA,4,"[""./rc_img/cop_condGroup_11_SafeStreets_autoscaled.png"",""./rc_img/cop_condGroup_11_CommunitySafety_autoscaled.png""]",7,NA,NA,"NV_189/","NV_189",1,1,2,4,1,2,2,"NV_189",1,2,2,2,1,2,"NV_189",1,1,3,1,0,0,0,"30","male","man","","01602","Thank you for the study, I answered honestly and to the best of my abilities."
"26","sliderTrial_attention","html-slider-response",92,797580,"0.0-92.0",NA,"656776a7904ae00d6b91d1dd","6568ad05c66989571b2bc25a",9,NA,NA,NA,NA,NA,NA,NA,NA,NA,NA,NA,"null","[""SV_PolicingMSA/NV_189/IMG_9_189.jpg"",""SV_PolicingMSA/NV_189/IMG_5_189.jpg"",""SV_PolicingMSA/NV_189/IMG_7_189.jpg"",""SV_PolicingMSA/NV_189/IMG_8_189.jpg"",""SV_PolicingMSA/NV_189/IMG_4_189.jpg"",""SV_PolicingMSA/NV_189/IMG_11_189.jpg"",""SV_PolicingMSA/NV_189/IMG_10_189.jpg"",""SV_PolicingMSA/NV_189/IMG_6_189.jpg""]","null",NA,NA,NA,NA,NA,1,NA,4,"[""./assets/img/attnchk.png"",""./assets/img/attnchk.png""]",NA,TRUE,NA,"NV_189/","NV_189",1,1,2,4,1,2,2,"NV_189",1,2,2,2,1,2,"NV_189",1,1,3,1,0,0,0,"30","male","man","","01602","Thank you for the study, I answered honestly and to the best of my abilities."
"27","sliderTrial","html-slider-response",93,804135,"0.0-93.0",NA,"656776a7904ae00d6b91d1dd","6568ad05c66989571b2bc25a",9,NA,NA,NA,NA,NA,NA,NA,NA,NA,NA,NA,"6552","[""SV_PolicingMSA/NV_189/IMG_9_189.jpg"",""SV_PolicingMSA/NV_189/IMG_5_189.jpg"",""SV_PolicingMSA/NV_189/IMG_7_189.jpg"",""SV_PolicingMSA/NV_189/IMG_8_189.jpg"",""SV_PolicingMSA/NV_189/IMG_4_189.jpg"",""SV_PolicingMSA/NV_189/IMG_11_189.jpg"",""SV_PolicingMSA/NV_189/IMG_10_189.jpg"",""SV_PolicingMSA/NV_189/IMG_6_189.jpg""]","1",NA,NA,NA,NA,NA,1,NA,4,"[""./rc_img/cop_condGroup_9_SafeStreets_autoscaled.png"",""./rc_img/cop_condGroup_9_CommunitySafety_autoscaled.png""]",7,NA,NA,"NV_189/","NV_189",1,1,2,4,1,2,2,"NV_189",1,2,2,2,1,2,"NV_189",1,1,3,1,0,0,0,"30","male","man","","01602","Thank you for the study, I answered honestly and to the best of my abilities."
"28","sliderTrial","html-slider-response",106,886935,"0.0-106.0",NA,"656776a7904ae00d6b91d1dd","6568ad05c66989571b2bc25a",9,NA,NA,NA,NA,NA,NA,NA,NA,NA,NA,NA,"3607","[""SV_PolicingMSA/NV_173/IMG_7_173.jpg"",""SV_PolicingMSA/NV_173/IMG_4_173.jpg"",""SV_PolicingMSA/NV_173/IMG_6_173.jpg"",""SV_PolicingMSA/NV_173/IMG_14_173.jpg"",""SV_PolicingMSA/NV_173/IMG_10_173.jpg"",""SV_PolicingMSA/NV_173/IMG_8_173.jpg"",""SV_PolicingMSA/NV_173/IMG_13_173.jpg"",""SV_PolicingMSA/NV_173/IMG_0_173.jpg""]","1",NA,NA,NA,NA,NA,3,NA,4,"[""./rc_img/cop_condGroup_6_CommunitySafety_autoscaled.png"",""./rc_img/cop_condGroup_6_SafeStreets_autoscaled.png""]",1,NA,NA,"NV_173/","NV_173",3,2,3,4,4,2,6,"NV_173",3,1,1,2,2,2,"NV_173",3,3,1,4,0,2,3,"30","male","man","","01602","Thank you for the study, I answered honestly and to the best of my abilities."
"29","sliderTrial","html-slider-response",107,890039,"0.0-107.0",NA,"656776a7904ae00d6b91d1dd","6568ad05c66989571b2bc25a",9,NA,NA,NA,NA,NA,NA,NA,NA,NA,NA,NA,"3103","[""SV_PolicingMSA/NV_173/IMG_7_173.jpg"",""SV_PolicingMSA/NV_173/IMG_4_173.jpg"",""SV_PolicingMSA/NV_173/IMG_6_173.jpg"",""SV_PolicingMSA/NV_173/IMG_14_173.jpg"",""SV_PolicingMSA/NV_173/IMG_10_173.jpg"",""SV_PolicingMSA/NV_173/IMG_8_173.jpg"",""SV_PolicingMSA/NV_173/IMG_13_173.jpg"",""SV_PolicingMSA/NV_173/IMG_0_173.jpg""]","1",NA,NA,NA,NA,NA,3,NA,4,"[""./rc_img/cop_condGroup_8_CommunitySafety_autoscaled.png"",""./rc_img/cop_condGroup_8_SafeStreets_autoscaled.png""]",1,NA,NA,"NV_173/","NV_173",3,2,3,4,4,2,6,"NV_173",3,1,1,2,2,2,"NV_173",3,3,1,4,0,2,3,"30","male","man","","01602","Thank you for the study, I answered honestly and to the best of my abilities."
"30","sliderTrial","html-slider-response",108,892639,"0.0-108.0",NA,"656776a7904ae00d6b91d1dd","6568ad05c66989571b2bc25a",9,NA,NA,NA,NA,NA,NA,NA,NA,NA,NA,NA,"2598","[""SV_PolicingMSA/NV_173/IMG_7_173.jpg"",""SV_PolicingMSA/NV_173/IMG_4_173.jpg"",""SV_PolicingMSA/NV_173/IMG_6_173.jpg"",""SV_PolicingMSA/NV_173/IMG_14_173.jpg"",""SV_PolicingMSA/NV_173/IMG_10_173.jpg"",""SV_PolicingMSA/NV_173/IMG_8_173.jpg"",""SV_PolicingMSA/NV_173/IMG_13_173.jpg"",""SV_PolicingMSA/NV_173/IMG_0_173.jpg""]","1",NA,NA,NA,NA,NA,3,NA,4,"[""./rc_img/cop_condGroup_3_CommunitySafety_autoscaled.png"",""./rc_img/cop_condGroup_3_SafeStreets_autoscaled.png""]",1,NA,NA,"NV_173/","NV_173",3,2,3,4,4,2,6,"NV_173",3,1,1,2,2,2,"NV_173",3,3,1,4,0,2,3,"30","male","man","","01602","Thank you for the study, I answered honestly and to the best of my abilities."
"31","sliderTrial","html-slider-response",109,895767,"0.0-109.0",NA,"656776a7904ae00d6b91d1dd","6568ad05c66989571b2bc25a",9,NA,NA,NA,NA,NA,NA,NA,NA,NA,NA,NA,"3127","[""SV_PolicingMSA/NV_173/IMG_7_173.jpg"",""SV_PolicingMSA/NV_173/IMG_4_173.jpg"",""SV_PolicingMSA/NV_173/IMG_6_173.jpg"",""SV_PolicingMSA/NV_173/IMG_14_173.jpg"",""SV_PolicingMSA/NV_173/IMG_10_173.jpg"",""SV_PolicingMSA/NV_173/IMG_8_173.jpg"",""SV_PolicingMSA/NV_173/IMG_13_173.jpg"",""SV_PolicingMSA/NV_173/IMG_0_173.jpg""]","7",NA,NA,NA,NA,NA,3,NA,4,"[""./rc_img/cop_condGroup_11_SafeStreets_autoscaled.png"",""./rc_img/cop_condGroup_11_CommunitySafety_autoscaled.png""]",1,NA,NA,"NV_173/","NV_173",3,2,3,4,4,2,6,"NV_173",3,1,1,2,2,2,"NV_173",3,3,1,4,0,2,3,"30","male","man","","01602","Thank you for the study, I answered honestly and to the best of my abilities."
"32","sliderTrial","html-slider-response",110,899007,"0.0-110.0",NA,"656776a7904ae00d6b91d1dd","6568ad05c66989571b2bc25a",9,NA,NA,NA,NA,NA,NA,NA,NA,NA,NA,NA,"3238","[""SV_PolicingMSA/NV_173/IMG_7_173.jpg"",""SV_PolicingMSA/NV_173/IMG_4_173.jpg"",""SV_PolicingMSA/NV_173/IMG_6_173.jpg"",""SV_PolicingMSA/NV_173/IMG_14_173.jpg"",""SV_PolicingMSA/NV_173/IMG_10_173.jpg"",""SV_PolicingMSA/NV_173/IMG_8_173.jpg"",""SV_PolicingMSA/NV_173/IMG_13_173.jpg"",""SV_PolicingMSA/NV_173/IMG_0_173.jpg""]","7",NA,NA,NA,NA,NA,3,NA,4,"[""./rc_img/cop_condGroup_9_SafeStreets_autoscaled.png"",""./rc_img/cop_condGroup_9_CommunitySafety_autoscaled.png""]",1,NA,NA,"NV_173/","NV_173",3,2,3,4,4,2,6,"NV_173",3,1,1,2,2,2,"NV_173",3,3,1,4,0,2,3,"30","male","man","","01602","Thank you for the study, I answered honestly and to the best of my abilities."
"33","sliderTrial","html-slider-response",123,981000,"0.0-123.0",NA,"656776a7904ae00d6b91d1dd","6568ad05c66989571b2bc25a",9,NA,NA,NA,NA,NA,NA,NA,NA,NA,NA,NA,"3490","[""SV_PolicingMSA/NV_673/IMG_5_673.jpg"",""SV_PolicingMSA/NV_673/IMG_1_673.jpg"",""SV_PolicingMSA/NV_673/IMG_12_673.jpg"",""SV_PolicingMSA/NV_673/IMG_7_673.jpg"",""SV_PolicingMSA/NV_673/IMG_13_673.jpg"",""SV_PolicingMSA/NV_673/IMG_8_673.jpg"",""SV_PolicingMSA/NV_673/IMG_4_673.jpg"",""SV_PolicingMSA/NV_673/IMG_14_673.jpg""]","7",NA,NA,NA,NA,NA,5,NA,4,"[""./rc_img/cop_condGroup_16_SafeStreets_autoscaled.png"",""./rc_img/cop_condGroup_16_CommunitySafety_autoscaled.png""]",1,NA,NA,"NV_673/","NV_673",5,2,4,4,3,3,8,"NV_673",5,0,1,1,2,1,"NV_673",5,3,1,3,0,2,3,"30","male","man","","01602","Thank you for the study, I answered honestly and to the best of my abilities."
"34","sliderTrial","html-slider-response",124,984888,"0.0-124.0",NA,"656776a7904ae00d6b91d1dd","6568ad05c66989571b2bc25a",9,NA,NA,NA,NA,NA,NA,NA,NA,NA,NA,NA,"3887","[""SV_PolicingMSA/NV_673/IMG_5_673.jpg"",""SV_PolicingMSA/NV_673/IMG_1_673.jpg"",""SV_PolicingMSA/NV_673/IMG_12_673.jpg"",""SV_PolicingMSA/NV_673/IMG_7_673.jpg"",""SV_PolicingMSA/NV_673/IMG_13_673.jpg"",""SV_PolicingMSA/NV_673/IMG_8_673.jpg"",""SV_PolicingMSA/NV_673/IMG_4_673.jpg"",""SV_PolicingMSA/NV_673/IMG_14_673.jpg""]","1",NA,NA,NA,NA,NA,5,NA,4,"[""./rc_img/cop_condGroup_14_CommunitySafety_autoscaled.png"",""./rc_img/cop_condGroup_14_SafeStreets_autoscaled.png""]",1,NA,NA,"NV_673/","NV_673",5,2,4,4,3,3,8,"NV_673",5,0,1,1,2,1,"NV_673",5,3,1,3,0,2,3,"30","male","man","","01602","Thank you for the study, I answered honestly and to the best of my abilities."
"35","sliderTrial","html-slider-response",125,988159,"0.0-125.0",NA,"656776a7904ae00d6b91d1dd","6568ad05c66989571b2bc25a",9,NA,NA,NA,NA,NA,NA,NA,NA,NA,NA,NA,"3270","[""SV_PolicingMSA/NV_673/IMG_5_673.jpg"",""SV_PolicingMSA/NV_673/IMG_1_673.jpg"",""SV_PolicingMSA/NV_673/IMG_12_673.jpg"",""SV_PolicingMSA/NV_673/IMG_7_673.jpg"",""SV_PolicingMSA/NV_673/IMG_13_673.jpg"",""SV_PolicingMSA/NV_673/IMG_8_673.jpg"",""SV_PolicingMSA/NV_673/IMG_4_673.jpg"",""SV_PolicingMSA/NV_673/IMG_14_673.jpg""]","7",NA,NA,NA,NA,NA,5,NA,4,"[""./rc_img/cop_condGroup_18_SafeStreets_autoscaled.png"",""./rc_img/cop_condGroup_18_CommunitySafety_autoscaled.png""]",1,NA,NA,"NV_673/","NV_673",5,2,4,4,3,3,8,"NV_673",5,0,1,1,2,1,"NV_673",5,3,1,3,0,2,3,"30","male","man","","01602","Thank you for the study, I answered honestly and to the best of my abilities."
"36","sliderTrial","html-slider-response",126,992432,"0.0-126.0",NA,"656776a7904ae00d6b91d1dd","6568ad05c66989571b2bc25a",9,NA,NA,NA,NA,NA,NA,NA,NA,NA,NA,NA,"4270","[""SV_PolicingMSA/NV_673/IMG_5_673.jpg"",""SV_PolicingMSA/NV_673/IMG_1_673.jpg"",""SV_PolicingMSA/NV_673/IMG_12_673.jpg"",""SV_PolicingMSA/NV_673/IMG_7_673.jpg"",""SV_PolicingMSA/NV_673/IMG_13_673.jpg"",""SV_PolicingMSA/NV_673/IMG_8_673.jpg"",""SV_PolicingMSA/NV_673/IMG_4_673.jpg"",""SV_PolicingMSA/NV_673/IMG_14_673.jpg""]","1",NA,NA,NA,NA,NA,5,NA,4,"[""./rc_img/cop_condGroup_19_CommunitySafety_autoscaled.png"",""./rc_img/cop_condGroup_19_SafeStreets_autoscaled.png""]",1,NA,NA,"NV_673/","NV_673",5,2,4,4,3,3,8,"NV_673",5,0,1,1,2,1,"NV_673",5,3,1,3,0,2,3,"30","male","man","","01602","Thank you for the study, I answered honestly and to the best of my abilities."
"37","sliderTrial","html-slider-response",127,995143,"0.0-127.0",NA,"656776a7904ae00d6b91d1dd","6568ad05c66989571b2bc25a",9,NA,NA,NA,NA,NA,NA,NA,NA,NA,NA,NA,"2712","[""SV_PolicingMSA/NV_673/IMG_5_673.jpg"",""SV_PolicingMSA/NV_673/IMG_1_673.jpg"",""SV_PolicingMSA/NV_673/IMG_12_673.jpg"",""SV_PolicingMSA/NV_673/IMG_7_673.jpg"",""SV_PolicingMSA/NV_673/IMG_13_673.jpg"",""SV_PolicingMSA/NV_673/IMG_8_673.jpg"",""SV_PolicingMSA/NV_673/IMG_4_673.jpg"",""SV_PolicingMSA/NV_673/IMG_14_673.jpg""]","7",NA,NA,NA,NA,NA,5,NA,4,"[""./rc_img/cop_condGroup_20_SafeStreets_autoscaled.png"",""./rc_img/cop_condGroup_20_CommunitySafety_autoscaled.png""]",1,NA,NA,"NV_673/","NV_673",5,2,4,4,3,3,8,"NV_673",5,0,1,1,2,1,"NV_673",5,3,1,3,0,2,3,"30","male","man","","01602","Thank you for the study, I answered honestly and to the best of my abilities."
"38","sliderTrial","html-slider-response",140,1061351,"0.0-140.0",NA,"656776a7904ae00d6b91d1dd","6568ad05c66989571b2bc25a",9,NA,NA,NA,NA,NA,NA,NA,NA,NA,NA,NA,"4128","[""SV_PolicingMSA/NV_754/IMG_4_754.jpg"",""SV_PolicingMSA/NV_754/IMG_1_754.jpg"",""SV_PolicingMSA/NV_754/IMG_6_754.jpg"",""SV_PolicingMSA/NV_754/IMG_2_754.jpg"",""SV_PolicingMSA/NV_754/IMG_10_754.jpg"",""SV_PolicingMSA/NV_754/IMG_8_754.jpg"",""SV_PolicingMSA/NV_754/IMG_14_754.jpg"",""SV_PolicingMSA/NV_754/IMG_0_754.jpg""]","7",NA,NA,NA,NA,NA,4,NA,4,"[""./rc_img/cop_condGroup_12_SafeStreets_autoscaled.png"",""./rc_img/cop_condGroup_12_CommunitySafety_autoscaled.png""]",1,NA,NA,"NV_754/","NV_754",4,2,4,4,4,3,7,"NV_754",4,0,0,1,3,2,"NV_754",4,3,1,4,1,2,3,"30","male","man","","01602","Thank you for the study, I answered honestly and to the best of my abilities."
"39","sliderTrial","html-slider-response",141,1064047,"0.0-141.0",NA,"656776a7904ae00d6b91d1dd","6568ad05c66989571b2bc25a",9,NA,NA,NA,NA,NA,NA,NA,NA,NA,NA,NA,"2695","[""SV_PolicingMSA/NV_754/IMG_4_754.jpg"",""SV_PolicingMSA/NV_754/IMG_1_754.jpg"",""SV_PolicingMSA/NV_754/IMG_6_754.jpg"",""SV_PolicingMSA/NV_754/IMG_2_754.jpg"",""SV_PolicingMSA/NV_754/IMG_10_754.jpg"",""SV_PolicingMSA/NV_754/IMG_8_754.jpg"",""SV_PolicingMSA/NV_754/IMG_14_754.jpg"",""SV_PolicingMSA/NV_754/IMG_0_754.jpg""]","1",NA,NA,NA,NA,NA,4,NA,4,"[""./rc_img/cop_condGroup_13_CommunitySafety_autoscaled.png"",""./rc_img/cop_condGroup_13_SafeStreets_autoscaled.png""]",1,NA,NA,"NV_754/","NV_754",4,2,4,4,4,3,7,"NV_754",4,0,0,1,3,2,"NV_754",4,3,1,4,1,2,3,"30","male","man","","01602","Thank you for the study, I answered honestly and to the best of my abilities."
"40","sliderTrial","html-slider-response",142,1067695,"0.0-142.0",NA,"656776a7904ae00d6b91d1dd","6568ad05c66989571b2bc25a",9,NA,NA,NA,NA,NA,NA,NA,NA,NA,NA,NA,"3647","[""SV_PolicingMSA/NV_754/IMG_4_754.jpg"",""SV_PolicingMSA/NV_754/IMG_1_754.jpg"",""SV_PolicingMSA/NV_754/IMG_6_754.jpg"",""SV_PolicingMSA/NV_754/IMG_2_754.jpg"",""SV_PolicingMSA/NV_754/IMG_10_754.jpg"",""SV_PolicingMSA/NV_754/IMG_8_754.jpg"",""SV_PolicingMSA/NV_754/IMG_14_754.jpg"",""SV_PolicingMSA/NV_754/IMG_0_754.jpg""]","1",NA,NA,NA,NA,NA,4,NA,4,"[""./rc_img/cop_condGroup_10_CommunitySafety_autoscaled.png"",""./rc_img/cop_condGroup_10_SafeStreets_autoscaled.png""]",1,NA,NA,"NV_754/","NV_754",4,2,4,4,4,3,7,"NV_754",4,0,0,1,3,2,"NV_754",4,3,1,4,1,2,3,"30","male","man","","01602","Thank you for the study, I answered honestly and to the best of my abilities."
"41","sliderTrial","html-slider-response",143,1071567,"0.0-143.0",NA,"656776a7904ae00d6b91d1dd","6568ad05c66989571b2bc25a",9,NA,NA,NA,NA,NA,NA,NA,NA,NA,NA,NA,"3871","[""SV_PolicingMSA/NV_754/IMG_4_754.jpg"",""SV_PolicingMSA/NV_754/IMG_1_754.jpg"",""SV_PolicingMSA/NV_754/IMG_6_754.jpg"",""SV_PolicingMSA/NV_754/IMG_2_754.jpg"",""SV_PolicingMSA/NV_754/IMG_10_754.jpg"",""SV_PolicingMSA/NV_754/IMG_8_754.jpg"",""SV_PolicingMSA/NV_754/IMG_14_754.jpg"",""SV_PolicingMSA/NV_754/IMG_0_754.jpg""]","1",NA,NA,NA,NA,NA,4,NA,4,"[""./rc_img/cop_condGroup_15_CommunitySafety_autoscaled.png"",""./rc_img/cop_condGroup_15_SafeStreets_autoscaled.png""]",1,NA,NA,"NV_754/","NV_754",4,2,4,4,4,3,7,"NV_754",4,0,0,1,3,2,"NV_754",4,3,1,4,1,2,3,"30","male","man","","01602","Thank you for the study, I answered honestly and to the best of my abilities."
"42","sliderTrial","html-slider-response",144,1075088,"0.0-144.0",NA,"656776a7904ae00d6b91d1dd","6568ad05c66989571b2bc25a",9,NA,NA,NA,NA,NA,NA,NA,NA,NA,NA,NA,"3519","[""SV_PolicingMSA/NV_754/IMG_4_754.jpg"",""SV_PolicingMSA/NV_754/IMG_1_754.jpg"",""SV_PolicingMSA/NV_754/IMG_6_754.jpg"",""SV_PolicingMSA/NV_754/IMG_2_754.jpg"",""SV_PolicingMSA/NV_754/IMG_10_754.jpg"",""SV_PolicingMSA/NV_754/IMG_8_754.jpg"",""SV_PolicingMSA/NV_754/IMG_14_754.jpg"",""SV_PolicingMSA/NV_754/IMG_0_754.jpg""]","1",NA,NA,NA,NA,NA,4,NA,4,"[""./rc_img/cop_condGroup_17_CommunitySafety_autoscaled.png"",""./rc_img/cop_condGroup_17_SafeStreets_autoscaled.png""]",1,NA,NA,"NV_754/","NV_754",4,2,4,4,4,3,7,"NV_754",4,0,0,1,3,2,"NV_754",4,3,1,4,1,2,3,"30","male","man","","01602","Thank you for the study, I answered honestly and to the best of my abilities."
