"","task","trial_type","trial_index","time_elapsed","internal_node_id","subject_id","study_id","session_id","section","width","height","webaudio","browser","browser_version","mobile","os","fullscreen","vsync_rate","webcam","microphone","rt","stimulus","response","success","timeout","failed_images","failed_audio","failed_video","block.x.x","accuracy","slider_start","choices","standardized_response","correct","num_attention_checks_correct","stim_tract","stim_tractT","block.x","P0_Q1.wealthy","P0_Q1.safe","P0_Q1.walkable","P0_Q1.traditional","P0_Q1.diverse","block_fixed","stim_tractT.x","block.y","P0_Q1.violence","P0_Q1.crime","P0_Q1.drug","P0_Q1.schools","P0_Q1.opportunities","stim_tractT.y","block.y.y","P0_Q1.movein","P0_Q1.moveout","P0_Q1.shopping","P0_Q1.walk","P0_Q1.park","P0_Q1.school","age","sex","gender","gender-self-describe","zipcode","surveyComments"
"1","sliderTrial","html-slider-response",18,104138,"0.0-18.0",NA,"656776a7904ae00d6b91d1dd","6568ad6677e50c0d89c7a320",8,NA,NA,NA,NA,NA,NA,NA,NA,NA,NA,NA,"18552","[""SV_PolicingMSA/TX_109/IMG_7_109.jpg"",""SV_PolicingMSA/TX_109/IMG_3_109.jpg"",""SV_PolicingMSA/TX_109/IMG_10_109.jpg"",""SV_PolicingMSA/TX_109/IMG_0_109.jpg"",""SV_PolicingMSA/TX_109/IMG_4_109.jpg"",""SV_PolicingMSA/TX_109/IMG_13_109.jpg"",""SV_PolicingMSA/TX_109/IMG_6_109.jpg"",""SV_PolicingMSA/TX_109/IMG_14_109.jpg""]","6",NA,NA,NA,NA,NA,3,NA,4,"[""./rc_img/cop_condGroup_6_CommunitySafety_autoscaled.png"",""./rc_img/cop_condGroup_6_SafeStreets_autoscaled.png""]",6,NA,NA,"TX_109/","TX_109",3,1,1,0,2,1,5,"TX_109",3,3,3,4,0,0,"TX_109",3,0,4,1,0,0,0,"31","male","man","","22180",""
"2","sliderTrial","html-slider-response",19,119218,"0.0-19.0",NA,"656776a7904ae00d6b91d1dd","6568ad6677e50c0d89c7a320",8,NA,NA,NA,NA,NA,NA,NA,NA,NA,NA,NA,"15077","[""SV_PolicingMSA/TX_109/IMG_7_109.jpg"",""SV_PolicingMSA/TX_109/IMG_3_109.jpg"",""SV_PolicingMSA/TX_109/IMG_10_109.jpg"",""SV_PolicingMSA/TX_109/IMG_0_109.jpg"",""SV_PolicingMSA/TX_109/IMG_4_109.jpg"",""SV_PolicingMSA/TX_109/IMG_13_109.jpg"",""SV_PolicingMSA/TX_109/IMG_6_109.jpg"",""SV_PolicingMSA/TX_109/IMG_14_109.jpg""]","2",NA,NA,NA,NA,NA,3,NA,4,"[""./rc_img/cop_condGroup_5_SafeStreets_autoscaled.png"",""./rc_img/cop_condGroup_5_CommunitySafety_autoscaled.png""]",6,NA,NA,"TX_109/","TX_109",3,1,1,0,2,1,5,"TX_109",3,3,3,4,0,0,"TX_109",3,0,4,1,0,0,0,"31","male","man","","22180",""
"3","sliderTrial","html-slider-response",20,123295,"0.0-20.0",NA,"656776a7904ae00d6b91d1dd","6568ad6677e50c0d89c7a320",8,NA,NA,NA,NA,NA,NA,NA,NA,NA,NA,NA,"4074","[""SV_PolicingMSA/TX_109/IMG_7_109.jpg"",""SV_PolicingMSA/TX_109/IMG_3_109.jpg"",""SV_PolicingMSA/TX_109/IMG_10_109.jpg"",""SV_PolicingMSA/TX_109/IMG_0_109.jpg"",""SV_PolicingMSA/TX_109/IMG_4_109.jpg"",""SV_PolicingMSA/TX_109/IMG_13_109.jpg"",""SV_PolicingMSA/TX_109/IMG_6_109.jpg"",""SV_PolicingMSA/TX_109/IMG_14_109.jpg""]","4",NA,NA,NA,NA,NA,3,NA,4,"[""./rc_img/cop_condGroup_19_CommunitySafety_autoscaled.png"",""./rc_img/cop_condGroup_19_SafeStreets_autoscaled.png""]",4,NA,NA,"TX_109/","TX_109",3,1,1,0,2,1,5,"TX_109",3,3,3,4,0,0,"TX_109",3,0,4,1,0,0,0,"31","male","man","","22180",""
"4","sliderTrial","html-slider-response",21,125937,"0.0-21.0",NA,"656776a7904ae00d6b91d1dd","6568ad6677e50c0d89c7a320",8,NA,NA,NA,NA,NA,NA,NA,NA,NA,NA,NA,"2641","[""SV_PolicingMSA/TX_109/IMG_7_109.jpg"",""SV_PolicingMSA/TX_109/IMG_3_109.jpg"",""SV_PolicingMSA/TX_109/IMG_10_109.jpg"",""SV_PolicingMSA/TX_109/IMG_0_109.jpg"",""SV_PolicingMSA/TX_109/IMG_4_109.jpg"",""SV_PolicingMSA/TX_109/IMG_13_109.jpg"",""SV_PolicingMSA/TX_109/IMG_6_109.jpg"",""SV_PolicingMSA/TX_109/IMG_14_109.jpg""]","4",NA,NA,NA,NA,NA,3,NA,4,"[""./rc_img/cop_condGroup_13_CommunitySafety_autoscaled.png"",""./rc_img/cop_condGroup_13_SafeStreets_autoscaled.png""]",4,NA,NA,"TX_109/","TX_109",3,1,1,0,2,1,5,"TX_109",3,3,3,4,0,0,"TX_109",3,0,4,1,0,0,0,"31","male","man","","22180",""
"5","sliderTrial","html-slider-response",22,128012,"0.0-22.0",NA,"656776a7904ae00d6b91d1dd","6568ad6677e50c0d89c7a320",8,NA,NA,NA,NA,NA,NA,NA,NA,NA,NA,NA,"2073","[""SV_PolicingMSA/TX_109/IMG_7_109.jpg"",""SV_PolicingMSA/TX_109/IMG_3_109.jpg"",""SV_PolicingMSA/TX_109/IMG_10_109.jpg"",""SV_PolicingMSA/TX_109/IMG_0_109.jpg"",""SV_PolicingMSA/TX_109/IMG_4_109.jpg"",""SV_PolicingMSA/TX_109/IMG_13_109.jpg"",""SV_PolicingMSA/TX_109/IMG_6_109.jpg"",""SV_PolicingMSA/TX_109/IMG_14_109.jpg""]","4",NA,NA,NA,NA,NA,3,NA,4,"[""./rc_img/cop_condGroup_11_SafeStreets_autoscaled.png"",""./rc_img/cop_condGroup_11_CommunitySafety_autoscaled.png""]",4,NA,NA,"TX_109/","TX_109",3,1,1,0,2,1,5,"TX_109",3,3,3,4,0,0,"TX_109",3,0,4,1,0,0,0,"31","male","man","","22180",""
"6","sliderTrial","html-slider-response",35,184079,"0.0-35.0",NA,"656776a7904ae00d6b91d1dd","6568ad6677e50c0d89c7a320",8,NA,NA,NA,NA,NA,NA,NA,NA,NA,NA,NA,"4316","[""SV_PolicingMSA/TX_134/IMG_11_134.jpg"",""SV_PolicingMSA/TX_134/IMG_5_134.jpg"",""SV_PolicingMSA/TX_134/IMG_8_134.jpg"",""SV_PolicingMSA/TX_134/IMG_4_134.jpg"",""SV_PolicingMSA/TX_134/IMG_3_134.jpg"",""SV_PolicingMSA/TX_134/IMG_2_134.jpg"",""SV_PolicingMSA/TX_134/IMG_0_134.jpg"",""SV_PolicingMSA/TX_134/IMG_13_134.jpg""]","4",NA,NA,NA,NA,NA,2,NA,4,"[""./rc_img/cop_condGroup_7_CommunitySafety_autoscaled.png"",""./rc_img/cop_condGroup_7_SafeStreets_autoscaled.png""]",4,NA,NA,"TX_134/","TX_134",2,2,2,1,2,2,3,"TX_134",2,2,2,2,1,1,"TX_134",2,1,4,1,0,1,0,"31","male","man","","22180",""
"7","sliderTrial","html-slider-response",36,185594,"0.0-36.0",NA,"656776a7904ae00d6b91d1dd","6568ad6677e50c0d89c7a320",8,NA,NA,NA,NA,NA,NA,NA,NA,NA,NA,NA,"1513","[""SV_PolicingMSA/TX_134/IMG_11_134.jpg"",""SV_PolicingMSA/TX_134/IMG_5_134.jpg"",""SV_PolicingMSA/TX_134/IMG_8_134.jpg"",""SV_PolicingMSA/TX_134/IMG_4_134.jpg"",""SV_PolicingMSA/TX_134/IMG_3_134.jpg"",""SV_PolicingMSA/TX_134/IMG_2_134.jpg"",""SV_PolicingMSA/TX_134/IMG_0_134.jpg"",""SV_PolicingMSA/TX_134/IMG_13_134.jpg""]","4",NA,NA,NA,NA,NA,2,NA,4,"[""./rc_img/cop_condGroup_20_SafeStreets_autoscaled.png"",""./rc_img/cop_condGroup_20_CommunitySafety_autoscaled.png""]",4,NA,NA,"TX_134/","TX_134",2,2,2,1,2,2,3,"TX_134",2,2,2,2,1,1,"TX_134",2,1,4,1,0,1,0,"31","male","man","","22180",""
"8","sliderTrial","html-slider-response",37,186852,"0.0-37.0",NA,"656776a7904ae00d6b91d1dd","6568ad6677e50c0d89c7a320",8,NA,NA,NA,NA,NA,NA,NA,NA,NA,NA,NA,"1256","[""SV_PolicingMSA/TX_134/IMG_11_134.jpg"",""SV_PolicingMSA/TX_134/IMG_5_134.jpg"",""SV_PolicingMSA/TX_134/IMG_8_134.jpg"",""SV_PolicingMSA/TX_134/IMG_4_134.jpg"",""SV_PolicingMSA/TX_134/IMG_3_134.jpg"",""SV_PolicingMSA/TX_134/IMG_2_134.jpg"",""SV_PolicingMSA/TX_134/IMG_0_134.jpg"",""SV_PolicingMSA/TX_134/IMG_13_134.jpg""]","4",NA,NA,NA,NA,NA,2,NA,4,"[""./rc_img/cop_condGroup_15_SafeStreets_autoscaled.png"",""./rc_img/cop_condGroup_15_CommunitySafety_autoscaled.png""]",4,NA,NA,"TX_134/","TX_134",2,2,2,1,2,2,3,"TX_134",2,2,2,2,1,1,"TX_134",2,1,4,1,0,1,0,"31","male","man","","22180",""
"9","sliderTrial","html-slider-response",38,190595,"0.0-38.0",NA,"656776a7904ae00d6b91d1dd","6568ad6677e50c0d89c7a320",8,NA,NA,NA,NA,NA,NA,NA,NA,NA,NA,NA,"3741","[""SV_PolicingMSA/TX_134/IMG_11_134.jpg"",""SV_PolicingMSA/TX_134/IMG_5_134.jpg"",""SV_PolicingMSA/TX_134/IMG_8_134.jpg"",""SV_PolicingMSA/TX_134/IMG_4_134.jpg"",""SV_PolicingMSA/TX_134/IMG_3_134.jpg"",""SV_PolicingMSA/TX_134/IMG_2_134.jpg"",""SV_PolicingMSA/TX_134/IMG_0_134.jpg"",""SV_PolicingMSA/TX_134/IMG_13_134.jpg""]","6",NA,NA,NA,NA,NA,2,NA,4,"[""./rc_img/cop_condGroup_4_SafeStreets_autoscaled.png"",""./rc_img/cop_condGroup_4_CommunitySafety_autoscaled.png""]",2,NA,NA,"TX_134/","TX_134",2,2,2,1,2,2,3,"TX_134",2,2,2,2,1,1,"TX_134",2,1,4,1,0,1,0,"31","male","man","","22180",""
"10","sliderTrial","html-slider-response",39,194150,"0.0-39.0",NA,"656776a7904ae00d6b91d1dd","6568ad6677e50c0d89c7a320",8,NA,NA,NA,NA,NA,NA,NA,NA,NA,NA,NA,"3553","[""SV_PolicingMSA/TX_134/IMG_11_134.jpg"",""SV_PolicingMSA/TX_134/IMG_5_134.jpg"",""SV_PolicingMSA/TX_134/IMG_8_134.jpg"",""SV_PolicingMSA/TX_134/IMG_4_134.jpg"",""SV_PolicingMSA/TX_134/IMG_3_134.jpg"",""SV_PolicingMSA/TX_134/IMG_2_134.jpg"",""SV_PolicingMSA/TX_134/IMG_0_134.jpg"",""SV_PolicingMSA/TX_134/IMG_13_134.jpg""]","2",NA,NA,NA,NA,NA,2,NA,4,"[""./rc_img/cop_condGroup_3_CommunitySafety_autoscaled.png"",""./rc_img/cop_condGroup_3_SafeStreets_autoscaled.png""]",2,NA,NA,"TX_134/","TX_134",2,2,2,1,2,2,3,"TX_134",2,2,2,2,1,1,"TX_134",2,1,4,1,0,1,0,"31","male","man","","22180",""
"11","sliderTrial","html-slider-response",52,242840,"0.0-52.0",NA,"656776a7904ae00d6b91d1dd","6568ad6677e50c0d89c7a320",8,NA,NA,NA,NA,NA,NA,NA,NA,NA,NA,NA,"5081","[""SV_PolicingMSA/TX_348/IMG_3_348.jpg"",""SV_PolicingMSA/TX_348/IMG_2_348.jpg"",""SV_PolicingMSA/TX_348/IMG_11_348.jpg"",""SV_PolicingMSA/TX_348/IMG_1_348.jpg"",""SV_PolicingMSA/TX_348/IMG_6_348.jpg"",""SV_PolicingMSA/TX_348/IMG_13_348.jpg"",""SV_PolicingMSA/TX_348/IMG_5_348.jpg"",""SV_PolicingMSA/TX_348/IMG_4_348.jpg""]","4",NA,NA,NA,NA,NA,1,NA,4,"[""./rc_img/cop_condGroup_8_SafeStreets_autoscaled.png"",""./rc_img/cop_condGroup_8_CommunitySafety_autoscaled.png""]",4,NA,NA,"TX_348/","TX_348",1,2,1,1,2,2,2,"TX_348",1,2,2,2,2,2,"TX_348",1,1,3,1,0,1,1,"31","male","man","","22180",""
"12","sliderTrial","html-slider-response",53,245259,"0.0-53.0",NA,"656776a7904ae00d6b91d1dd","6568ad6677e50c0d89c7a320",8,NA,NA,NA,NA,NA,NA,NA,NA,NA,NA,NA,"2417","[""SV_PolicingMSA/TX_348/IMG_3_348.jpg"",""SV_PolicingMSA/TX_348/IMG_2_348.jpg"",""SV_PolicingMSA/TX_348/IMG_11_348.jpg"",""SV_PolicingMSA/TX_348/IMG_1_348.jpg"",""SV_PolicingMSA/TX_348/IMG_6_348.jpg"",""SV_PolicingMSA/TX_348/IMG_13_348.jpg"",""SV_PolicingMSA/TX_348/IMG_5_348.jpg"",""SV_PolicingMSA/TX_348/IMG_4_348.jpg""]","6",NA,NA,NA,NA,NA,1,NA,4,"[""./rc_img/cop_condGroup_10_SafeStreets_autoscaled.png"",""./rc_img/cop_condGroup_10_CommunitySafety_autoscaled.png""]",2,NA,NA,"TX_348/","TX_348",1,2,1,1,2,2,2,"TX_348",1,2,2,2,2,2,"TX_348",1,1,3,1,0,1,1,"31","male","man","","22180",""
"13","sliderTrial_attention","html-slider-response",54,255262,"0.0-54.0",NA,"656776a7904ae00d6b91d1dd","6568ad6677e50c0d89c7a320",8,NA,NA,NA,NA,NA,NA,NA,NA,NA,NA,NA,"null","[""SV_PolicingMSA/TX_348/IMG_3_348.jpg"",""SV_PolicingMSA/TX_348/IMG_2_348.jpg"",""SV_PolicingMSA/TX_348/IMG_11_348.jpg"",""SV_PolicingMSA/TX_348/IMG_1_348.jpg"",""SV_PolicingMSA/TX_348/IMG_6_348.jpg"",""SV_PolicingMSA/TX_348/IMG_13_348.jpg"",""SV_PolicingMSA/TX_348/IMG_5_348.jpg"",""SV_PolicingMSA/TX_348/IMG_4_348.jpg""]","null",NA,NA,NA,NA,NA,1,NA,4,"[""./assets/img/attnchk.png"",""./assets/img/attnchk.png""]",NA,TRUE,NA,"TX_348/","TX_348",1,2,1,1,2,2,2,"TX_348",1,2,2,2,2,2,"TX_348",1,1,3,1,0,1,1,"31","male","man","","22180",""
"14","sliderTrial","html-slider-response",55,264470,"0.0-55.0",NA,"656776a7904ae00d6b91d1dd","6568ad6677e50c0d89c7a320",8,NA,NA,NA,NA,NA,NA,NA,NA,NA,NA,NA,"9206","[""SV_PolicingMSA/TX_348/IMG_3_348.jpg"",""SV_PolicingMSA/TX_348/IMG_2_348.jpg"",""SV_PolicingMSA/TX_348/IMG_11_348.jpg"",""SV_PolicingMSA/TX_348/IMG_1_348.jpg"",""SV_PolicingMSA/TX_348/IMG_6_348.jpg"",""SV_PolicingMSA/TX_348/IMG_13_348.jpg"",""SV_PolicingMSA/TX_348/IMG_5_348.jpg"",""SV_PolicingMSA/TX_348/IMG_4_348.jpg""]","6",NA,NA,NA,NA,NA,1,NA,4,"[""./rc_img/cop_condGroup_2_SafeStreets_autoscaled.png"",""./rc_img/cop_condGroup_2_CommunitySafety_autoscaled.png""]",2,NA,NA,"TX_348/","TX_348",1,2,1,1,2,2,2,"TX_348",1,2,2,2,2,2,"TX_348",1,1,3,1,0,1,1,"31","male","man","","22180",""
"15","sliderTrial","html-slider-response",56,268034,"0.0-56.0",NA,"656776a7904ae00d6b91d1dd","6568ad6677e50c0d89c7a320",8,NA,NA,NA,NA,NA,NA,NA,NA,NA,NA,NA,"3559","[""SV_PolicingMSA/TX_348/IMG_3_348.jpg"",""SV_PolicingMSA/TX_348/IMG_2_348.jpg"",""SV_PolicingMSA/TX_348/IMG_11_348.jpg"",""SV_PolicingMSA/TX_348/IMG_1_348.jpg"",""SV_PolicingMSA/TX_348/IMG_6_348.jpg"",""SV_PolicingMSA/TX_348/IMG_13_348.jpg"",""SV_PolicingMSA/TX_348/IMG_5_348.jpg"",""SV_PolicingMSA/TX_348/IMG_4_348.jpg""]","6",NA,NA,NA,NA,NA,1,NA,4,"[""./rc_img/cop_condGroup_18_SafeStreets_autoscaled.png"",""./rc_img/cop_condGroup_18_CommunitySafety_autoscaled.png""]",2,NA,NA,"TX_348/","TX_348",1,2,1,1,2,2,2,"TX_348",1,2,2,2,2,2,"TX_348",1,1,3,1,0,1,1,"31","male","man","","22180",""
"16","sliderTrial","html-slider-response",57,270836,"0.0-57.0",NA,"656776a7904ae00d6b91d1dd","6568ad6677e50c0d89c7a320",8,NA,NA,NA,NA,NA,NA,NA,NA,NA,NA,NA,"2799","[""SV_PolicingMSA/TX_348/IMG_3_348.jpg"",""SV_PolicingMSA/TX_348/IMG_2_348.jpg"",""SV_PolicingMSA/TX_348/IMG_11_348.jpg"",""SV_PolicingMSA/TX_348/IMG_1_348.jpg"",""SV_PolicingMSA/TX_348/IMG_6_348.jpg"",""SV_PolicingMSA/TX_348/IMG_13_348.jpg"",""SV_PolicingMSA/TX_348/IMG_5_348.jpg"",""SV_PolicingMSA/TX_348/IMG_4_348.jpg""]","2",NA,NA,NA,NA,NA,1,NA,4,"[""./rc_img/cop_condGroup_12_CommunitySafety_autoscaled.png"",""./rc_img/cop_condGroup_12_SafeStreets_autoscaled.png""]",2,NA,NA,"TX_348/","TX_348",1,2,1,1,2,2,2,"TX_348",1,2,2,2,2,2,"TX_348",1,1,3,1,0,1,1,"31","male","man","","22180",""
"17","sliderTrial","html-slider-response",70,334552,"0.0-70.0",NA,"656776a7904ae00d6b91d1dd","6568ad6677e50c0d89c7a320",8,NA,NA,NA,NA,NA,NA,NA,NA,NA,NA,NA,"6847","[""SV_PolicingMSA/TX_4061/IMG_5_4061.jpg"",""SV_PolicingMSA/TX_4061/IMG_12_4061.jpg"",""SV_PolicingMSA/TX_4061/IMG_1_4061.jpg"",""SV_PolicingMSA/TX_4061/IMG_3_4061.jpg"",""SV_PolicingMSA/TX_4061/IMG_14_4061.jpg"",""SV_PolicingMSA/TX_4061/IMG_8_4061.jpg"",""SV_PolicingMSA/TX_4061/IMG_4_4061.jpg"",""SV_PolicingMSA/TX_4061/IMG_13_4061.jpg""]","2",NA,NA,NA,NA,NA,5,NA,4,"[""./rc_img/cop_condGroup_6_CommunitySafety_autoscaled.png"",""./rc_img/cop_condGroup_6_SafeStreets_autoscaled.png""]",2,NA,NA,"TX_4061","TX_4061",5,3,3,2,2,2,8,"TX_4061",5,3,2,2,2,2,"TX_4061",5,1,3,2,1,1,2,"31","male","man","","22180",""
"18","sliderTrial","html-slider-response",71,336842,"0.0-71.0",NA,"656776a7904ae00d6b91d1dd","6568ad6677e50c0d89c7a320",8,NA,NA,NA,NA,NA,NA,NA,NA,NA,NA,NA,"2289","[""SV_PolicingMSA/TX_4061/IMG_5_4061.jpg"",""SV_PolicingMSA/TX_4061/IMG_12_4061.jpg"",""SV_PolicingMSA/TX_4061/IMG_1_4061.jpg"",""SV_PolicingMSA/TX_4061/IMG_3_4061.jpg"",""SV_PolicingMSA/TX_4061/IMG_14_4061.jpg"",""SV_PolicingMSA/TX_4061/IMG_8_4061.jpg"",""SV_PolicingMSA/TX_4061/IMG_4_4061.jpg"",""SV_PolicingMSA/TX_4061/IMG_13_4061.jpg""]","6",NA,NA,NA,NA,NA,5,NA,4,"[""./rc_img/cop_condGroup_5_SafeStreets_autoscaled.png"",""./rc_img/cop_condGroup_5_CommunitySafety_autoscaled.png""]",2,NA,NA,"TX_4061","TX_4061",5,3,3,2,2,2,8,"TX_4061",5,3,2,2,2,2,"TX_4061",5,1,3,2,1,1,2,"31","male","man","","22180",""
"19","sliderTrial","html-slider-response",72,339341,"0.0-72.0",NA,"656776a7904ae00d6b91d1dd","6568ad6677e50c0d89c7a320",8,NA,NA,NA,NA,NA,NA,NA,NA,NA,NA,NA,"2497","[""SV_PolicingMSA/TX_4061/IMG_5_4061.jpg"",""SV_PolicingMSA/TX_4061/IMG_12_4061.jpg"",""SV_PolicingMSA/TX_4061/IMG_1_4061.jpg"",""SV_PolicingMSA/TX_4061/IMG_3_4061.jpg"",""SV_PolicingMSA/TX_4061/IMG_14_4061.jpg"",""SV_PolicingMSA/TX_4061/IMG_8_4061.jpg"",""SV_PolicingMSA/TX_4061/IMG_4_4061.jpg"",""SV_PolicingMSA/TX_4061/IMG_13_4061.jpg""]","2",NA,NA,NA,NA,NA,5,NA,4,"[""./rc_img/cop_condGroup_19_CommunitySafety_autoscaled.png"",""./rc_img/cop_condGroup_19_SafeStreets_autoscaled.png""]",2,NA,NA,"TX_4061","TX_4061",5,3,3,2,2,2,8,"TX_4061",5,3,2,2,2,2,"TX_4061",5,1,3,2,1,1,2,"31","male","man","","22180",""
"20","sliderTrial","html-slider-response",73,342123,"0.0-73.0",NA,"656776a7904ae00d6b91d1dd","6568ad6677e50c0d89c7a320",8,NA,NA,NA,NA,NA,NA,NA,NA,NA,NA,NA,"2780","[""SV_PolicingMSA/TX_4061/IMG_5_4061.jpg"",""SV_PolicingMSA/TX_4061/IMG_12_4061.jpg"",""SV_PolicingMSA/TX_4061/IMG_1_4061.jpg"",""SV_PolicingMSA/TX_4061/IMG_3_4061.jpg"",""SV_PolicingMSA/TX_4061/IMG_14_4061.jpg"",""SV_PolicingMSA/TX_4061/IMG_8_4061.jpg"",""SV_PolicingMSA/TX_4061/IMG_4_4061.jpg"",""SV_PolicingMSA/TX_4061/IMG_13_4061.jpg""]","2",NA,NA,NA,NA,NA,5,NA,4,"[""./rc_img/cop_condGroup_13_CommunitySafety_autoscaled.png"",""./rc_img/cop_condGroup_13_SafeStreets_autoscaled.png""]",2,NA,NA,"TX_4061","TX_4061",5,3,3,2,2,2,8,"TX_4061",5,3,2,2,2,2,"TX_4061",5,1,3,2,1,1,2,"31","male","man","","22180",""
"21","sliderTrial","html-slider-response",74,344235,"0.0-74.0",NA,"656776a7904ae00d6b91d1dd","6568ad6677e50c0d89c7a320",8,NA,NA,NA,NA,NA,NA,NA,NA,NA,NA,NA,"2110","[""SV_PolicingMSA/TX_4061/IMG_5_4061.jpg"",""SV_PolicingMSA/TX_4061/IMG_12_4061.jpg"",""SV_PolicingMSA/TX_4061/IMG_1_4061.jpg"",""SV_PolicingMSA/TX_4061/IMG_3_4061.jpg"",""SV_PolicingMSA/TX_4061/IMG_14_4061.jpg"",""SV_PolicingMSA/TX_4061/IMG_8_4061.jpg"",""SV_PolicingMSA/TX_4061/IMG_4_4061.jpg"",""SV_PolicingMSA/TX_4061/IMG_13_4061.jpg""]","6",NA,NA,NA,NA,NA,5,NA,4,"[""./rc_img/cop_condGroup_11_SafeStreets_autoscaled.png"",""./rc_img/cop_condGroup_11_CommunitySafety_autoscaled.png""]",2,NA,NA,"TX_4061","TX_4061",5,3,3,2,2,2,8,"TX_4061",5,3,2,2,2,2,"TX_4061",5,1,3,2,1,1,2,"31","male","man","","22180",""
"22","sliderTrial","html-slider-response",88,407290,"0.0-88.0",NA,"656776a7904ae00d6b91d1dd","6568ad6677e50c0d89c7a320",8,NA,NA,NA,NA,NA,NA,NA,NA,NA,NA,NA,"4215","[""SV_PolicingMSA/TX_575/IMG_3_575.jpg"",""SV_PolicingMSA/TX_575/IMG_12_575.jpg"",""SV_PolicingMSA/TX_575/IMG_10_575.jpg"",""SV_PolicingMSA/TX_575/IMG_5_575.jpg"",""SV_PolicingMSA/TX_575/IMG_14_575.jpg"",""SV_PolicingMSA/TX_575/IMG_9_575.jpg"",""SV_PolicingMSA/TX_575/IMG_6_575.jpg"",""SV_PolicingMSA/TX_575/IMG_4_575.jpg""]","6",NA,NA,NA,NA,NA,3,NA,4,"[""./rc_img/cop_condGroup_8_SafeStreets_autoscaled.png"",""./rc_img/cop_condGroup_8_CommunitySafety_autoscaled.png""]",2,NA,NA,"TX_575/","TX_575",3,3,2,1,2,2,6,"TX_575",3,2,2,2,2,2,"TX_575",3,2,2,2,1,2,2,"31","male","man","","22180",""
"23","sliderTrial","html-slider-response",89,409694,"0.0-89.0",NA,"656776a7904ae00d6b91d1dd","6568ad6677e50c0d89c7a320",8,NA,NA,NA,NA,NA,NA,NA,NA,NA,NA,NA,"2401","[""SV_PolicingMSA/TX_575/IMG_3_575.jpg"",""SV_PolicingMSA/TX_575/IMG_12_575.jpg"",""SV_PolicingMSA/TX_575/IMG_10_575.jpg"",""SV_PolicingMSA/TX_575/IMG_5_575.jpg"",""SV_PolicingMSA/TX_575/IMG_14_575.jpg"",""SV_PolicingMSA/TX_575/IMG_9_575.jpg"",""SV_PolicingMSA/TX_575/IMG_6_575.jpg"",""SV_PolicingMSA/TX_575/IMG_4_575.jpg""]","6",NA,NA,NA,NA,NA,3,NA,4,"[""./rc_img/cop_condGroup_10_SafeStreets_autoscaled.png"",""./rc_img/cop_condGroup_10_CommunitySafety_autoscaled.png""]",2,NA,NA,"TX_575/","TX_575",3,3,2,1,2,2,6,"TX_575",3,2,2,2,2,2,"TX_575",3,2,2,2,1,2,2,"31","male","man","","22180",""
"24","sliderTrial","html-slider-response",90,412527,"0.0-90.0",NA,"656776a7904ae00d6b91d1dd","6568ad6677e50c0d89c7a320",8,NA,NA,NA,NA,NA,NA,NA,NA,NA,NA,NA,"2832","[""SV_PolicingMSA/TX_575/IMG_3_575.jpg"",""SV_PolicingMSA/TX_575/IMG_12_575.jpg"",""SV_PolicingMSA/TX_575/IMG_10_575.jpg"",""SV_PolicingMSA/TX_575/IMG_5_575.jpg"",""SV_PolicingMSA/TX_575/IMG_14_575.jpg"",""SV_PolicingMSA/TX_575/IMG_9_575.jpg"",""SV_PolicingMSA/TX_575/IMG_6_575.jpg"",""SV_PolicingMSA/TX_575/IMG_4_575.jpg""]","6",NA,NA,NA,NA,NA,3,NA,4,"[""./rc_img/cop_condGroup_2_SafeStreets_autoscaled.png"",""./rc_img/cop_condGroup_2_CommunitySafety_autoscaled.png""]",2,NA,NA,"TX_575/","TX_575",3,3,2,1,2,2,6,"TX_575",3,2,2,2,2,2,"TX_575",3,2,2,2,1,2,2,"31","male","man","","22180",""
"25","sliderTrial","html-slider-response",91,414781,"0.0-91.0",NA,"656776a7904ae00d6b91d1dd","6568ad6677e50c0d89c7a320",8,NA,NA,NA,NA,NA,NA,NA,NA,NA,NA,NA,"2253","[""SV_PolicingMSA/TX_575/IMG_3_575.jpg"",""SV_PolicingMSA/TX_575/IMG_12_575.jpg"",""SV_PolicingMSA/TX_575/IMG_10_575.jpg"",""SV_PolicingMSA/TX_575/IMG_5_575.jpg"",""SV_PolicingMSA/TX_575/IMG_14_575.jpg"",""SV_PolicingMSA/TX_575/IMG_9_575.jpg"",""SV_PolicingMSA/TX_575/IMG_6_575.jpg"",""SV_PolicingMSA/TX_575/IMG_4_575.jpg""]","6",NA,NA,NA,NA,NA,3,NA,4,"[""./rc_img/cop_condGroup_18_SafeStreets_autoscaled.png"",""./rc_img/cop_condGroup_18_CommunitySafety_autoscaled.png""]",2,NA,NA,"TX_575/","TX_575",3,3,2,1,2,2,6,"TX_575",3,2,2,2,2,2,"TX_575",3,2,2,2,1,2,2,"31","male","man","","22180",""
"26","sliderTrial","html-slider-response",92,417925,"0.0-92.0",NA,"656776a7904ae00d6b91d1dd","6568ad6677e50c0d89c7a320",8,NA,NA,NA,NA,NA,NA,NA,NA,NA,NA,NA,"3143","[""SV_PolicingMSA/TX_575/IMG_3_575.jpg"",""SV_PolicingMSA/TX_575/IMG_12_575.jpg"",""SV_PolicingMSA/TX_575/IMG_10_575.jpg"",""SV_PolicingMSA/TX_575/IMG_5_575.jpg"",""SV_PolicingMSA/TX_575/IMG_14_575.jpg"",""SV_PolicingMSA/TX_575/IMG_9_575.jpg"",""SV_PolicingMSA/TX_575/IMG_6_575.jpg"",""SV_PolicingMSA/TX_575/IMG_4_575.jpg""]","2",NA,NA,NA,NA,NA,3,NA,4,"[""./rc_img/cop_condGroup_12_CommunitySafety_autoscaled.png"",""./rc_img/cop_condGroup_12_SafeStreets_autoscaled.png""]",2,NA,NA,"TX_575/","TX_575",3,3,2,1,2,2,6,"TX_575",3,2,2,2,2,2,"TX_575",3,2,2,2,1,2,2,"31","male","man","","22180",""
"27","sliderTrial","html-slider-response",105,457522,"0.0-105.0",NA,"656776a7904ae00d6b91d1dd","6568ad6677e50c0d89c7a320",8,NA,NA,NA,NA,NA,NA,NA,NA,NA,NA,NA,"2589","[""SV_PolicingMSA/TX_130/IMG_14_130.jpg"",""SV_PolicingMSA/TX_130/IMG_13_130.jpg"",""SV_PolicingMSA/TX_130/IMG_12_130.jpg"",""SV_PolicingMSA/TX_130/IMG_8_130.jpg"",""SV_PolicingMSA/TX_130/IMG_4_130.jpg"",""SV_PolicingMSA/TX_130/IMG_10_130.jpg"",""SV_PolicingMSA/TX_130/IMG_0_130.jpg"",""SV_PolicingMSA/TX_130/IMG_7_130.jpg""]","2",NA,NA,NA,NA,NA,0,NA,4,"[""./rc_img/cop_condGroup_9_CommunitySafety_autoscaled.png"",""./rc_img/cop_condGroup_9_SafeStreets_autoscaled.png""]",2,NA,NA,"TX_130/","TX_130",0,2,2,1,2,2,1,"TX_130",0,2,2,2,2,2,"TX_130",0,1,3,2,1,1,1,"31","male","man","","22180",""
"28","sliderTrial","html-slider-response",106,460025,"0.0-106.0",NA,"656776a7904ae00d6b91d1dd","6568ad6677e50c0d89c7a320",8,NA,NA,NA,NA,NA,NA,NA,NA,NA,NA,NA,"2502","[""SV_PolicingMSA/TX_130/IMG_14_130.jpg"",""SV_PolicingMSA/TX_130/IMG_13_130.jpg"",""SV_PolicingMSA/TX_130/IMG_12_130.jpg"",""SV_PolicingMSA/TX_130/IMG_8_130.jpg"",""SV_PolicingMSA/TX_130/IMG_4_130.jpg"",""SV_PolicingMSA/TX_130/IMG_10_130.jpg"",""SV_PolicingMSA/TX_130/IMG_0_130.jpg"",""SV_PolicingMSA/TX_130/IMG_7_130.jpg""]","2",NA,NA,NA,NA,NA,0,NA,4,"[""./rc_img/cop_condGroup_14_CommunitySafety_autoscaled.png"",""./rc_img/cop_condGroup_14_SafeStreets_autoscaled.png""]",2,NA,NA,"TX_130/","TX_130",0,2,2,1,2,2,1,"TX_130",0,2,2,2,2,2,"TX_130",0,1,3,2,1,1,1,"31","male","man","","22180",""
"29","sliderTrial_attention","html-slider-response",107,470039,"0.0-107.0",NA,"656776a7904ae00d6b91d1dd","6568ad6677e50c0d89c7a320",8,NA,NA,NA,NA,NA,NA,NA,NA,NA,NA,NA,"null","[""SV_PolicingMSA/TX_130/IMG_14_130.jpg"",""SV_PolicingMSA/TX_130/IMG_13_130.jpg"",""SV_PolicingMSA/TX_130/IMG_12_130.jpg"",""SV_PolicingMSA/TX_130/IMG_8_130.jpg"",""SV_PolicingMSA/TX_130/IMG_4_130.jpg"",""SV_PolicingMSA/TX_130/IMG_10_130.jpg"",""SV_PolicingMSA/TX_130/IMG_0_130.jpg"",""SV_PolicingMSA/TX_130/IMG_7_130.jpg""]","null",NA,NA,NA,NA,NA,0,NA,4,"[""./assets/img/attnchk.png"",""./assets/img/attnchk.png""]",NA,TRUE,NA,"TX_130/","TX_130",0,2,2,1,2,2,1,"TX_130",0,2,2,2,2,2,"TX_130",0,1,3,2,1,1,1,"31","male","man","","22180",""
"30","sliderTrial","html-slider-response",108,481754,"0.0-108.0",NA,"656776a7904ae00d6b91d1dd","6568ad6677e50c0d89c7a320",8,NA,NA,NA,NA,NA,NA,NA,NA,NA,NA,NA,"11712","[""SV_PolicingMSA/TX_130/IMG_14_130.jpg"",""SV_PolicingMSA/TX_130/IMG_13_130.jpg"",""SV_PolicingMSA/TX_130/IMG_12_130.jpg"",""SV_PolicingMSA/TX_130/IMG_8_130.jpg"",""SV_PolicingMSA/TX_130/IMG_4_130.jpg"",""SV_PolicingMSA/TX_130/IMG_10_130.jpg"",""SV_PolicingMSA/TX_130/IMG_0_130.jpg"",""SV_PolicingMSA/TX_130/IMG_7_130.jpg""]","2",NA,NA,NA,NA,NA,0,NA,4,"[""./rc_img/cop_condGroup_17_CommunitySafety_autoscaled.png"",""./rc_img/cop_condGroup_17_SafeStreets_autoscaled.png""]",2,NA,NA,"TX_130/","TX_130",0,2,2,1,2,2,1,"TX_130",0,2,2,2,2,2,"TX_130",0,1,3,2,1,1,1,"31","male","man","","22180",""
"31","sliderTrial","html-slider-response",109,484681,"0.0-109.0",NA,"656776a7904ae00d6b91d1dd","6568ad6677e50c0d89c7a320",8,NA,NA,NA,NA,NA,NA,NA,NA,NA,NA,NA,"2925","[""SV_PolicingMSA/TX_130/IMG_14_130.jpg"",""SV_PolicingMSA/TX_130/IMG_13_130.jpg"",""SV_PolicingMSA/TX_130/IMG_12_130.jpg"",""SV_PolicingMSA/TX_130/IMG_8_130.jpg"",""SV_PolicingMSA/TX_130/IMG_4_130.jpg"",""SV_PolicingMSA/TX_130/IMG_10_130.jpg"",""SV_PolicingMSA/TX_130/IMG_0_130.jpg"",""SV_PolicingMSA/TX_130/IMG_7_130.jpg""]","6",NA,NA,NA,NA,NA,0,NA,4,"[""./rc_img/cop_condGroup_1_SafeStreets_autoscaled.png"",""./rc_img/cop_condGroup_1_CommunitySafety_autoscaled.png""]",2,NA,NA,"TX_130/","TX_130",0,2,2,1,2,2,1,"TX_130",0,2,2,2,2,2,"TX_130",0,1,3,2,1,1,1,"31","male","man","","22180",""
"32","sliderTrial","html-slider-response",110,487333,"0.0-110.0",NA,"656776a7904ae00d6b91d1dd","6568ad6677e50c0d89c7a320",8,NA,NA,NA,NA,NA,NA,NA,NA,NA,NA,NA,"2651","[""SV_PolicingMSA/TX_130/IMG_14_130.jpg"",""SV_PolicingMSA/TX_130/IMG_13_130.jpg"",""SV_PolicingMSA/TX_130/IMG_12_130.jpg"",""SV_PolicingMSA/TX_130/IMG_8_130.jpg"",""SV_PolicingMSA/TX_130/IMG_4_130.jpg"",""SV_PolicingMSA/TX_130/IMG_10_130.jpg"",""SV_PolicingMSA/TX_130/IMG_0_130.jpg"",""SV_PolicingMSA/TX_130/IMG_7_130.jpg""]","2",NA,NA,NA,NA,NA,0,NA,4,"[""./rc_img/cop_condGroup_16_CommunitySafety_autoscaled.png"",""./rc_img/cop_condGroup_16_SafeStreets_autoscaled.png""]",2,NA,NA,"TX_130/","TX_130",0,2,2,1,2,2,1,"TX_130",0,2,2,2,2,2,"TX_130",0,1,3,2,1,1,1,"31","male","man","","22180",""
"33","sliderTrial","html-slider-response",123,532901,"0.0-123.0",NA,"656776a7904ae00d6b91d1dd","6568ad6677e50c0d89c7a320",8,NA,NA,NA,NA,NA,NA,NA,NA,NA,NA,NA,"2921","[""SV_PolicingMSA/TX_298/IMG_0_298.jpg"",""SV_PolicingMSA/TX_298/IMG_2_298.jpg"",""SV_PolicingMSA/TX_298/IMG_13_298.jpg"",""SV_PolicingMSA/TX_298/IMG_6_298.jpg"",""SV_PolicingMSA/TX_298/IMG_8_298.jpg"",""SV_PolicingMSA/TX_298/IMG_3_298.jpg"",""SV_PolicingMSA/TX_298/IMG_11_298.jpg"",""SV_PolicingMSA/TX_298/IMG_7_298.jpg""]","2",NA,NA,NA,NA,NA,4,NA,4,"[""./rc_img/cop_condGroup_7_CommunitySafety_autoscaled.png"",""./rc_img/cop_condGroup_7_SafeStreets_autoscaled.png""]",2,NA,NA,"TX_298/","TX_298",4,3,3,1,2,2,7,"TX_298",4,2,2,2,3,3,"TX_298",4,2,3,2,1,2,1,"31","male","man","","22180",""
"34","sliderTrial","html-slider-response",124,535573,"0.0-124.0",NA,"656776a7904ae00d6b91d1dd","6568ad6677e50c0d89c7a320",8,NA,NA,NA,NA,NA,NA,NA,NA,NA,NA,NA,"2669","[""SV_PolicingMSA/TX_298/IMG_0_298.jpg"",""SV_PolicingMSA/TX_298/IMG_2_298.jpg"",""SV_PolicingMSA/TX_298/IMG_13_298.jpg"",""SV_PolicingMSA/TX_298/IMG_6_298.jpg"",""SV_PolicingMSA/TX_298/IMG_8_298.jpg"",""SV_PolicingMSA/TX_298/IMG_3_298.jpg"",""SV_PolicingMSA/TX_298/IMG_11_298.jpg"",""SV_PolicingMSA/TX_298/IMG_7_298.jpg""]","6",NA,NA,NA,NA,NA,4,NA,4,"[""./rc_img/cop_condGroup_20_SafeStreets_autoscaled.png"",""./rc_img/cop_condGroup_20_CommunitySafety_autoscaled.png""]",2,NA,NA,"TX_298/","TX_298",4,3,3,1,2,2,7,"TX_298",4,2,2,2,3,3,"TX_298",4,2,3,2,1,2,1,"31","male","man","","22180",""
"35","sliderTrial","html-slider-response",125,540555,"0.0-125.0",NA,"656776a7904ae00d6b91d1dd","6568ad6677e50c0d89c7a320",8,NA,NA,NA,NA,NA,NA,NA,NA,NA,NA,NA,"4981","[""SV_PolicingMSA/TX_298/IMG_0_298.jpg"",""SV_PolicingMSA/TX_298/IMG_2_298.jpg"",""SV_PolicingMSA/TX_298/IMG_13_298.jpg"",""SV_PolicingMSA/TX_298/IMG_6_298.jpg"",""SV_PolicingMSA/TX_298/IMG_8_298.jpg"",""SV_PolicingMSA/TX_298/IMG_3_298.jpg"",""SV_PolicingMSA/TX_298/IMG_11_298.jpg"",""SV_PolicingMSA/TX_298/IMG_7_298.jpg""]","6",NA,NA,NA,NA,NA,4,NA,4,"[""./rc_img/cop_condGroup_15_SafeStreets_autoscaled.png"",""./rc_img/cop_condGroup_15_CommunitySafety_autoscaled.png""]",2,NA,NA,"TX_298/","TX_298",4,3,3,1,2,2,7,"TX_298",4,2,2,2,3,3,"TX_298",4,2,3,2,1,2,1,"31","male","man","","22180",""
"36","sliderTrial","html-slider-response",126,544097,"0.0-126.0",NA,"656776a7904ae00d6b91d1dd","6568ad6677e50c0d89c7a320",8,NA,NA,NA,NA,NA,NA,NA,NA,NA,NA,NA,"3540","[""SV_PolicingMSA/TX_298/IMG_0_298.jpg"",""SV_PolicingMSA/TX_298/IMG_2_298.jpg"",""SV_PolicingMSA/TX_298/IMG_13_298.jpg"",""SV_PolicingMSA/TX_298/IMG_6_298.jpg"",""SV_PolicingMSA/TX_298/IMG_8_298.jpg"",""SV_PolicingMSA/TX_298/IMG_3_298.jpg"",""SV_PolicingMSA/TX_298/IMG_11_298.jpg"",""SV_PolicingMSA/TX_298/IMG_7_298.jpg""]","6",NA,NA,NA,NA,NA,4,NA,4,"[""./rc_img/cop_condGroup_4_SafeStreets_autoscaled.png"",""./rc_img/cop_condGroup_4_CommunitySafety_autoscaled.png""]",2,NA,NA,"TX_298/","TX_298",4,3,3,1,2,2,7,"TX_298",4,2,2,2,3,3,"TX_298",4,2,3,2,1,2,1,"31","male","man","","22180",""
"37","sliderTrial","html-slider-response",127,546450,"0.0-127.0",NA,"656776a7904ae00d6b91d1dd","6568ad6677e50c0d89c7a320",8,NA,NA,NA,NA,NA,NA,NA,NA,NA,NA,NA,"2352","[""SV_PolicingMSA/TX_298/IMG_0_298.jpg"",""SV_PolicingMSA/TX_298/IMG_2_298.jpg"",""SV_PolicingMSA/TX_298/IMG_13_298.jpg"",""SV_PolicingMSA/TX_298/IMG_6_298.jpg"",""SV_PolicingMSA/TX_298/IMG_8_298.jpg"",""SV_PolicingMSA/TX_298/IMG_3_298.jpg"",""SV_PolicingMSA/TX_298/IMG_11_298.jpg"",""SV_PolicingMSA/TX_298/IMG_7_298.jpg""]","2",NA,NA,NA,NA,NA,4,NA,4,"[""./rc_img/cop_condGroup_3_CommunitySafety_autoscaled.png"",""./rc_img/cop_condGroup_3_SafeStreets_autoscaled.png""]",2,NA,NA,"TX_298/","TX_298",4,3,3,1,2,2,7,"TX_298",4,2,2,2,3,3,"TX_298",4,2,3,2,1,2,1,"31","male","man","","22180",""
"38","sliderTrial","html-slider-response",140,594290,"0.0-140.0",NA,"656776a7904ae00d6b91d1dd","6568ad6677e50c0d89c7a320",8,NA,NA,NA,NA,NA,NA,NA,NA,NA,NA,NA,"3023","[""SV_PolicingMSA/TX_576/IMG_10_576.jpg"",""SV_PolicingMSA/TX_576/IMG_0_576.jpg"",""SV_PolicingMSA/TX_576/IMG_7_576.jpg"",""SV_PolicingMSA/TX_576/IMG_6_576.jpg"",""SV_PolicingMSA/TX_576/IMG_5_576.jpg"",""SV_PolicingMSA/TX_576/IMG_13_576.jpg"",""SV_PolicingMSA/TX_576/IMG_1_576.jpg"",""SV_PolicingMSA/TX_576/IMG_11_576.jpg""]","2",NA,NA,NA,NA,NA,2,NA,4,"[""./rc_img/cop_condGroup_9_CommunitySafety_autoscaled.png"",""./rc_img/cop_condGroup_9_SafeStreets_autoscaled.png""]",2,NA,NA,"TX_576/","TX_576",2,3,2,0,2,1,4,"TX_576",2,1,1,1,2,2,"TX_576",2,2,3,3,1,2,2,"31","male","man","","22180",""
"39","sliderTrial","html-slider-response",141,596430,"0.0-141.0",NA,"656776a7904ae00d6b91d1dd","6568ad6677e50c0d89c7a320",8,NA,NA,NA,NA,NA,NA,NA,NA,NA,NA,NA,"2137","[""SV_PolicingMSA/TX_576/IMG_10_576.jpg"",""SV_PolicingMSA/TX_576/IMG_0_576.jpg"",""SV_PolicingMSA/TX_576/IMG_7_576.jpg"",""SV_PolicingMSA/TX_576/IMG_6_576.jpg"",""SV_PolicingMSA/TX_576/IMG_5_576.jpg"",""SV_PolicingMSA/TX_576/IMG_13_576.jpg"",""SV_PolicingMSA/TX_576/IMG_1_576.jpg"",""SV_PolicingMSA/TX_576/IMG_11_576.jpg""]","2",NA,NA,NA,NA,NA,2,NA,4,"[""./rc_img/cop_condGroup_14_CommunitySafety_autoscaled.png"",""./rc_img/cop_condGroup_14_SafeStreets_autoscaled.png""]",2,NA,NA,"TX_576/","TX_576",2,3,2,0,2,1,4,"TX_576",2,1,1,1,2,2,"TX_576",2,2,3,3,1,2,2,"31","male","man","","22180",""
"40","sliderTrial","html-slider-response",142,599285,"0.0-142.0",NA,"656776a7904ae00d6b91d1dd","6568ad6677e50c0d89c7a320",8,NA,NA,NA,NA,NA,NA,NA,NA,NA,NA,NA,"2854","[""SV_PolicingMSA/TX_576/IMG_10_576.jpg"",""SV_PolicingMSA/TX_576/IMG_0_576.jpg"",""SV_PolicingMSA/TX_576/IMG_7_576.jpg"",""SV_PolicingMSA/TX_576/IMG_6_576.jpg"",""SV_PolicingMSA/TX_576/IMG_5_576.jpg"",""SV_PolicingMSA/TX_576/IMG_13_576.jpg"",""SV_PolicingMSA/TX_576/IMG_1_576.jpg"",""SV_PolicingMSA/TX_576/IMG_11_576.jpg""]","2",NA,NA,NA,NA,NA,2,NA,4,"[""./rc_img/cop_condGroup_17_CommunitySafety_autoscaled.png"",""./rc_img/cop_condGroup_17_SafeStreets_autoscaled.png""]",2,NA,NA,"TX_576/","TX_576",2,3,2,0,2,1,4,"TX_576",2,1,1,1,2,2,"TX_576",2,2,3,3,1,2,2,"31","male","man","","22180",""
"41","sliderTrial","html-slider-response",143,602403,"0.0-143.0",NA,"656776a7904ae00d6b91d1dd","6568ad6677e50c0d89c7a320",8,NA,NA,NA,NA,NA,NA,NA,NA,NA,NA,NA,"3117","[""SV_PolicingMSA/TX_576/IMG_10_576.jpg"",""SV_PolicingMSA/TX_576/IMG_0_576.jpg"",""SV_PolicingMSA/TX_576/IMG_7_576.jpg"",""SV_PolicingMSA/TX_576/IMG_6_576.jpg"",""SV_PolicingMSA/TX_576/IMG_5_576.jpg"",""SV_PolicingMSA/TX_576/IMG_13_576.jpg"",""SV_PolicingMSA/TX_576/IMG_1_576.jpg"",""SV_PolicingMSA/TX_576/IMG_11_576.jpg""]","6",NA,NA,NA,NA,NA,2,NA,4,"[""./rc_img/cop_condGroup_1_SafeStreets_autoscaled.png"",""./rc_img/cop_condGroup_1_CommunitySafety_autoscaled.png""]",2,NA,NA,"TX_576/","TX_576",2,3,2,0,2,1,4,"TX_576",2,1,1,1,2,2,"TX_576",2,2,3,3,1,2,2,"31","male","man","","22180",""
"42","sliderTrial","html-slider-response",144,606233,"0.0-144.0",NA,"656776a7904ae00d6b91d1dd","6568ad6677e50c0d89c7a320",8,NA,NA,NA,NA,NA,NA,NA,NA,NA,NA,NA,"3829","[""SV_PolicingMSA/TX_576/IMG_10_576.jpg"",""SV_PolicingMSA/TX_576/IMG_0_576.jpg"",""SV_PolicingMSA/TX_576/IMG_7_576.jpg"",""SV_PolicingMSA/TX_576/IMG_6_576.jpg"",""SV_PolicingMSA/TX_576/IMG_5_576.jpg"",""SV_PolicingMSA/TX_576/IMG_13_576.jpg"",""SV_PolicingMSA/TX_576/IMG_1_576.jpg"",""SV_PolicingMSA/TX_576/IMG_11_576.jpg""]","2",NA,NA,NA,NA,NA,2,NA,4,"[""./rc_img/cop_condGroup_16_CommunitySafety_autoscaled.png"",""./rc_img/cop_condGroup_16_SafeStreets_autoscaled.png""]",2,NA,NA,"TX_576/","TX_576",2,3,2,0,2,1,4,"TX_576",2,1,1,1,2,2,"TX_576",2,2,3,3,1,2,2,"31","male","man","","22180",""
