"","path","task","trial_type","trial_index","time_elapsed","internal_node_id","subject_id","study_id","session_id","section","width","height","webaudio","browser","browser_version","mobile","os","fullscreen","vsync_rate","webcam","microphone","rt","stimulus","response","success","timeout","failed_images","failed_audio","failed_video","block.x.x","accuracy","slider_start","choices","standardized_response","correct","num_attention_checks_correct","stim_tract","stim_tractT","block.x","P0_Q1.wealthy","P0_Q1.safe","P0_Q1.walkable","P0_Q1.traditional","P0_Q1.diverse","block_fixed","stim_tractT.x","block.y","P0_Q1.violence","P0_Q1.crime","P0_Q1.drug","P0_Q1.schools","P0_Q1.opportunities","stim_tractT.y","block.y.y","P0_Q1.movein","P0_Q1.moveout","P0_Q1.shopping","P0_Q1.walk","P0_Q1.park","P0_Q1.school","age","sex","gender","gender-self-describe","zipcode","surveyComments"
"1","/Users/arajo/Documents/01. Project/repsPoliceCICompare/data/repsPoliceCICompare_s-1_p-undefined_s-6568abf80701421fc3443fda_SESSION_2023-11-30_11h00.17.632.csv","sliderTrial","html-slider-response",18,140251,"0.0-18.0",NA,"656776a7904ae00d6b91d1dd","6568abf80701421fc3443fda",1,NA,NA,NA,NA,NA,NA,NA,NA,NA,NA,NA,"10079","[""SV_PolicingMSA/CA_2009/IMG_8_2009.jpg"",""SV_PolicingMSA/CA_2009/IMG_9_2009.jpg"",""SV_PolicingMSA/CA_2009/IMG_1_2009.jpg"",""SV_PolicingMSA/CA_2009/IMG_6_2009.jpg"",""SV_PolicingMSA/CA_2009/IMG_5_2009.jpg"",""SV_PolicingMSA/CA_2009/IMG_2_2009.jpg"",""SV_PolicingMSA/CA_2009/IMG_0_2009.jpg"",""SV_PolicingMSA/CA_2009/IMG_3_2009.jpg""]","3",NA,NA,NA,NA,NA,1,NA,4,"[""./rc_img/cop_condGroup_5_CommunitySafety_autoscaled.png"",""./rc_img/cop_condGroup_5_SafeStreets_autoscaled.png""]",3,NA,NA,"CA_2009","CA_2009",1,0,2,1,1,2,2,"CA_2009",1,3,3,4,0,0,"CA_2009",1,4,4,1,2,2,2,"48","male","nonbinary","Man and nonbinary","49120","Nothing, thanks!"
"2","/Users/arajo/Documents/01. Project/repsPoliceCICompare/data/repsPoliceCICompare_s-1_p-undefined_s-6568abf80701421fc3443fda_SESSION_2023-11-30_11h00.17.632.csv","sliderTrial","html-slider-response",19,145718,"0.0-19.0",NA,"656776a7904ae00d6b91d1dd","6568abf80701421fc3443fda",1,NA,NA,NA,NA,NA,NA,NA,NA,NA,NA,NA,"5465","[""SV_PolicingMSA/CA_2009/IMG_8_2009.jpg"",""SV_PolicingMSA/CA_2009/IMG_9_2009.jpg"",""SV_PolicingMSA/CA_2009/IMG_1_2009.jpg"",""SV_PolicingMSA/CA_2009/IMG_6_2009.jpg"",""SV_PolicingMSA/CA_2009/IMG_5_2009.jpg"",""SV_PolicingMSA/CA_2009/IMG_2_2009.jpg"",""SV_PolicingMSA/CA_2009/IMG_0_2009.jpg"",""SV_PolicingMSA/CA_2009/IMG_3_2009.jpg""]","5",NA,NA,NA,NA,NA,1,NA,4,"[""./rc_img/cop_condGroup_9_SafeStreets_autoscaled.png"",""./rc_img/cop_condGroup_9_CommunitySafety_autoscaled.png""]",3,NA,NA,"CA_2009","CA_2009",1,0,2,1,1,2,2,"CA_2009",1,3,3,4,0,0,"CA_2009",1,4,4,1,2,2,2,"48","male","nonbinary","Man and nonbinary","49120","Nothing, thanks!"
"3","/Users/arajo/Documents/01. Project/repsPoliceCICompare/data/repsPoliceCICompare_s-1_p-undefined_s-6568abf80701421fc3443fda_SESSION_2023-11-30_11h00.17.632.csv","sliderTrial","html-slider-response",20,150277,"0.0-20.0",NA,"656776a7904ae00d6b91d1dd","6568abf80701421fc3443fda",1,NA,NA,NA,NA,NA,NA,NA,NA,NA,NA,NA,"4558","[""SV_PolicingMSA/CA_2009/IMG_8_2009.jpg"",""SV_PolicingMSA/CA_2009/IMG_9_2009.jpg"",""SV_PolicingMSA/CA_2009/IMG_1_2009.jpg"",""SV_PolicingMSA/CA_2009/IMG_6_2009.jpg"",""SV_PolicingMSA/CA_2009/IMG_5_2009.jpg"",""SV_PolicingMSA/CA_2009/IMG_2_2009.jpg"",""SV_PolicingMSA/CA_2009/IMG_0_2009.jpg"",""SV_PolicingMSA/CA_2009/IMG_3_2009.jpg""]","3",NA,NA,NA,NA,NA,1,NA,4,"[""./rc_img/cop_condGroup_6_CommunitySafety_autoscaled.png"",""./rc_img/cop_condGroup_6_SafeStreets_autoscaled.png""]",3,NA,NA,"CA_2009","CA_2009",1,0,2,1,1,2,2,"CA_2009",1,3,3,4,0,0,"CA_2009",1,4,4,1,2,2,2,"48","male","nonbinary","Man and nonbinary","49120","Nothing, thanks!"
"4","/Users/arajo/Documents/01. Project/repsPoliceCICompare/data/repsPoliceCICompare_s-1_p-undefined_s-6568abf80701421fc3443fda_SESSION_2023-11-30_11h00.17.632.csv","sliderTrial_attention","html-slider-response",21,160288,"0.0-21.0",NA,"656776a7904ae00d6b91d1dd","6568abf80701421fc3443fda",1,NA,NA,NA,NA,NA,NA,NA,NA,NA,NA,NA,"null","[""SV_PolicingMSA/CA_2009/IMG_8_2009.jpg"",""SV_PolicingMSA/CA_2009/IMG_9_2009.jpg"",""SV_PolicingMSA/CA_2009/IMG_1_2009.jpg"",""SV_PolicingMSA/CA_2009/IMG_6_2009.jpg"",""SV_PolicingMSA/CA_2009/IMG_5_2009.jpg"",""SV_PolicingMSA/CA_2009/IMG_2_2009.jpg"",""SV_PolicingMSA/CA_2009/IMG_0_2009.jpg"",""SV_PolicingMSA/CA_2009/IMG_3_2009.jpg""]","null",NA,NA,NA,NA,NA,1,NA,4,"[""./assets/img/attnchk.png"",""./assets/img/attnchk.png""]",NA,TRUE,NA,"CA_2009","CA_2009",1,0,2,1,1,2,2,"CA_2009",1,3,3,4,0,0,"CA_2009",1,4,4,1,2,2,2,"48","male","nonbinary","Man and nonbinary","49120","Nothing, thanks!"
"5","/Users/arajo/Documents/01. Project/repsPoliceCICompare/data/repsPoliceCICompare_s-1_p-undefined_s-6568abf80701421fc3443fda_SESSION_2023-11-30_11h00.17.632.csv","sliderTrial","html-slider-response",22,164504,"0.0-22.0",NA,"656776a7904ae00d6b91d1dd","6568abf80701421fc3443fda",1,NA,NA,NA,NA,NA,NA,NA,NA,NA,NA,NA,"4213","[""SV_PolicingMSA/CA_2009/IMG_8_2009.jpg"",""SV_PolicingMSA/CA_2009/IMG_9_2009.jpg"",""SV_PolicingMSA/CA_2009/IMG_1_2009.jpg"",""SV_PolicingMSA/CA_2009/IMG_6_2009.jpg"",""SV_PolicingMSA/CA_2009/IMG_5_2009.jpg"",""SV_PolicingMSA/CA_2009/IMG_2_2009.jpg"",""SV_PolicingMSA/CA_2009/IMG_0_2009.jpg"",""SV_PolicingMSA/CA_2009/IMG_3_2009.jpg""]","5",NA,NA,NA,NA,NA,1,NA,4,"[""./rc_img/cop_condGroup_12_SafeStreets_autoscaled.png"",""./rc_img/cop_condGroup_12_CommunitySafety_autoscaled.png""]",3,NA,NA,"CA_2009","CA_2009",1,0,2,1,1,2,2,"CA_2009",1,3,3,4,0,0,"CA_2009",1,4,4,1,2,2,2,"48","male","nonbinary","Man and nonbinary","49120","Nothing, thanks!"
"6","/Users/arajo/Documents/01. Project/repsPoliceCICompare/data/repsPoliceCICompare_s-1_p-undefined_s-6568abf80701421fc3443fda_SESSION_2023-11-30_11h00.17.632.csv","sliderTrial","html-slider-response",23,167536,"0.0-23.0",NA,"656776a7904ae00d6b91d1dd","6568abf80701421fc3443fda",1,NA,NA,NA,NA,NA,NA,NA,NA,NA,NA,NA,"3032","[""SV_PolicingMSA/CA_2009/IMG_8_2009.jpg"",""SV_PolicingMSA/CA_2009/IMG_9_2009.jpg"",""SV_PolicingMSA/CA_2009/IMG_1_2009.jpg"",""SV_PolicingMSA/CA_2009/IMG_6_2009.jpg"",""SV_PolicingMSA/CA_2009/IMG_5_2009.jpg"",""SV_PolicingMSA/CA_2009/IMG_2_2009.jpg"",""SV_PolicingMSA/CA_2009/IMG_0_2009.jpg"",""SV_PolicingMSA/CA_2009/IMG_3_2009.jpg""]","3",NA,NA,NA,NA,NA,1,NA,4,"[""./rc_img/cop_condGroup_10_CommunitySafety_autoscaled.png"",""./rc_img/cop_condGroup_10_SafeStreets_autoscaled.png""]",3,NA,NA,"CA_2009","CA_2009",1,0,2,1,1,2,2,"CA_2009",1,3,3,4,0,0,"CA_2009",1,4,4,1,2,2,2,"48","male","nonbinary","Man and nonbinary","49120","Nothing, thanks!"
"7","/Users/arajo/Documents/01. Project/repsPoliceCICompare/data/repsPoliceCICompare_s-1_p-undefined_s-6568abf80701421fc3443fda_SESSION_2023-11-30_11h00.17.632.csv","sliderTrial","html-slider-response",36,250331,"0.0-36.0",NA,"656776a7904ae00d6b91d1dd","6568abf80701421fc3443fda",1,NA,NA,NA,NA,NA,NA,NA,NA,NA,NA,NA,"4840","[""SV_PolicingMSA/CA_8565/IMG_3_8565.jpg"",""SV_PolicingMSA/CA_8565/IMG_12_8565.jpg"",""SV_PolicingMSA/CA_8565/IMG_5_8565.jpg"",""SV_PolicingMSA/CA_8565/IMG_7_8565.jpg"",""SV_PolicingMSA/CA_8565/IMG_1_8565.jpg"",""SV_PolicingMSA/CA_8565/IMG_2_8565.jpg"",""SV_PolicingMSA/CA_8565/IMG_8_8565.jpg"",""SV_PolicingMSA/CA_8565/IMG_6_8565.jpg""]","3",NA,NA,NA,NA,NA,4,NA,4,"[""./rc_img/cop_condGroup_16_CommunitySafety_autoscaled.png"",""./rc_img/cop_condGroup_16_SafeStreets_autoscaled.png""]",3,NA,NA,"CA_8565","CA_8565",4,3,2,1,3,2,7,"CA_8565",4,1,1,2,3,3,"CA_8565",4,3,2,2,2,2,2,"48","male","nonbinary","Man and nonbinary","49120","Nothing, thanks!"
"8","/Users/arajo/Documents/01. Project/repsPoliceCICompare/data/repsPoliceCICompare_s-1_p-undefined_s-6568abf80701421fc3443fda_SESSION_2023-11-30_11h00.17.632.csv","sliderTrial","html-slider-response",37,252952,"0.0-37.0",NA,"656776a7904ae00d6b91d1dd","6568abf80701421fc3443fda",1,NA,NA,NA,NA,NA,NA,NA,NA,NA,NA,NA,"2620","[""SV_PolicingMSA/CA_8565/IMG_3_8565.jpg"",""SV_PolicingMSA/CA_8565/IMG_12_8565.jpg"",""SV_PolicingMSA/CA_8565/IMG_5_8565.jpg"",""SV_PolicingMSA/CA_8565/IMG_7_8565.jpg"",""SV_PolicingMSA/CA_8565/IMG_1_8565.jpg"",""SV_PolicingMSA/CA_8565/IMG_2_8565.jpg"",""SV_PolicingMSA/CA_8565/IMG_8_8565.jpg"",""SV_PolicingMSA/CA_8565/IMG_6_8565.jpg""]","5",NA,NA,NA,NA,NA,4,NA,4,"[""./rc_img/cop_condGroup_11_SafeStreets_autoscaled.png"",""./rc_img/cop_condGroup_11_CommunitySafety_autoscaled.png""]",3,NA,NA,"CA_8565","CA_8565",4,3,2,1,3,2,7,"CA_8565",4,1,1,2,3,3,"CA_8565",4,3,2,2,2,2,2,"48","male","nonbinary","Man and nonbinary","49120","Nothing, thanks!"
"9","/Users/arajo/Documents/01. Project/repsPoliceCICompare/data/repsPoliceCICompare_s-1_p-undefined_s-6568abf80701421fc3443fda_SESSION_2023-11-30_11h00.17.632.csv","sliderTrial","html-slider-response",38,255507,"0.0-38.0",NA,"656776a7904ae00d6b91d1dd","6568abf80701421fc3443fda",1,NA,NA,NA,NA,NA,NA,NA,NA,NA,NA,NA,"2554","[""SV_PolicingMSA/CA_8565/IMG_3_8565.jpg"",""SV_PolicingMSA/CA_8565/IMG_12_8565.jpg"",""SV_PolicingMSA/CA_8565/IMG_5_8565.jpg"",""SV_PolicingMSA/CA_8565/IMG_7_8565.jpg"",""SV_PolicingMSA/CA_8565/IMG_1_8565.jpg"",""SV_PolicingMSA/CA_8565/IMG_2_8565.jpg"",""SV_PolicingMSA/CA_8565/IMG_8_8565.jpg"",""SV_PolicingMSA/CA_8565/IMG_6_8565.jpg""]","3",NA,NA,NA,NA,NA,4,NA,4,"[""./rc_img/cop_condGroup_7_CommunitySafety_autoscaled.png"",""./rc_img/cop_condGroup_7_SafeStreets_autoscaled.png""]",3,NA,NA,"CA_8565","CA_8565",4,3,2,1,3,2,7,"CA_8565",4,1,1,2,3,3,"CA_8565",4,3,2,2,2,2,2,"48","male","nonbinary","Man and nonbinary","49120","Nothing, thanks!"
"10","/Users/arajo/Documents/01. Project/repsPoliceCICompare/data/repsPoliceCICompare_s-1_p-undefined_s-6568abf80701421fc3443fda_SESSION_2023-11-30_11h00.17.632.csv","sliderTrial","html-slider-response",39,258140,"0.0-39.0",NA,"656776a7904ae00d6b91d1dd","6568abf80701421fc3443fda",1,NA,NA,NA,NA,NA,NA,NA,NA,NA,NA,NA,"2631","[""SV_PolicingMSA/CA_8565/IMG_3_8565.jpg"",""SV_PolicingMSA/CA_8565/IMG_12_8565.jpg"",""SV_PolicingMSA/CA_8565/IMG_5_8565.jpg"",""SV_PolicingMSA/CA_8565/IMG_7_8565.jpg"",""SV_PolicingMSA/CA_8565/IMG_1_8565.jpg"",""SV_PolicingMSA/CA_8565/IMG_2_8565.jpg"",""SV_PolicingMSA/CA_8565/IMG_8_8565.jpg"",""SV_PolicingMSA/CA_8565/IMG_6_8565.jpg""]","3",NA,NA,NA,NA,NA,4,NA,4,"[""./rc_img/cop_condGroup_15_CommunitySafety_autoscaled.png"",""./rc_img/cop_condGroup_15_SafeStreets_autoscaled.png""]",3,NA,NA,"CA_8565","CA_8565",4,3,2,1,3,2,7,"CA_8565",4,1,1,2,3,3,"CA_8565",4,3,2,2,2,2,2,"48","male","nonbinary","Man and nonbinary","49120","Nothing, thanks!"
"11","/Users/arajo/Documents/01. Project/repsPoliceCICompare/data/repsPoliceCICompare_s-1_p-undefined_s-6568abf80701421fc3443fda_SESSION_2023-11-30_11h00.17.632.csv","sliderTrial","html-slider-response",40,260421,"0.0-40.0",NA,"656776a7904ae00d6b91d1dd","6568abf80701421fc3443fda",1,NA,NA,NA,NA,NA,NA,NA,NA,NA,NA,NA,"2281","[""SV_PolicingMSA/CA_8565/IMG_3_8565.jpg"",""SV_PolicingMSA/CA_8565/IMG_12_8565.jpg"",""SV_PolicingMSA/CA_8565/IMG_5_8565.jpg"",""SV_PolicingMSA/CA_8565/IMG_7_8565.jpg"",""SV_PolicingMSA/CA_8565/IMG_1_8565.jpg"",""SV_PolicingMSA/CA_8565/IMG_2_8565.jpg"",""SV_PolicingMSA/CA_8565/IMG_8_8565.jpg"",""SV_PolicingMSA/CA_8565/IMG_6_8565.jpg""]","3",NA,NA,NA,NA,NA,4,NA,4,"[""./rc_img/cop_condGroup_13_CommunitySafety_autoscaled.png"",""./rc_img/cop_condGroup_13_SafeStreets_autoscaled.png""]",3,NA,NA,"CA_8565","CA_8565",4,3,2,1,3,2,7,"CA_8565",4,1,1,2,3,3,"CA_8565",4,3,2,2,2,2,2,"48","male","nonbinary","Man and nonbinary","49120","Nothing, thanks!"
"12","/Users/arajo/Documents/01. Project/repsPoliceCICompare/data/repsPoliceCICompare_s-1_p-undefined_s-6568abf80701421fc3443fda_SESSION_2023-11-30_11h00.17.632.csv","sliderTrial","html-slider-response",53,325283,"0.0-53.0",NA,"656776a7904ae00d6b91d1dd","6568abf80701421fc3443fda",1,NA,NA,NA,NA,NA,NA,NA,NA,NA,NA,NA,"3181","[""SV_PolicingMSA/CA_8990/IMG_8_8990.jpg"",""SV_PolicingMSA/CA_8990/IMG_9_8990.jpg"",""SV_PolicingMSA/CA_8990/IMG_13_8990.jpg"",""SV_PolicingMSA/CA_8990/IMG_5_8990.jpg"",""SV_PolicingMSA/CA_8990/IMG_2_8990.jpg"",""SV_PolicingMSA/CA_8990/IMG_14_8990.jpg"",""SV_PolicingMSA/CA_8990/IMG_12_8990.jpg"",""SV_PolicingMSA/CA_8990/IMG_10_8990.jpg""]","3",NA,NA,NA,NA,NA,3,NA,4,"[""./rc_img/cop_condGroup_14_CommunitySafety_autoscaled.png"",""./rc_img/cop_condGroup_14_SafeStreets_autoscaled.png""]",3,NA,NA,"CA_8990","CA_8990",3,0,1,2,1,1,5,"CA_8990",3,3,3,4,0,0,"CA_8990",3,1,3,2,1,2,2,"48","male","nonbinary","Man and nonbinary","49120","Nothing, thanks!"
"13","/Users/arajo/Documents/01. Project/repsPoliceCICompare/data/repsPoliceCICompare_s-1_p-undefined_s-6568abf80701421fc3443fda_SESSION_2023-11-30_11h00.17.632.csv","sliderTrial","html-slider-response",54,327359,"0.0-54.0",NA,"656776a7904ae00d6b91d1dd","6568abf80701421fc3443fda",1,NA,NA,NA,NA,NA,NA,NA,NA,NA,NA,NA,"2075","[""SV_PolicingMSA/CA_8990/IMG_8_8990.jpg"",""SV_PolicingMSA/CA_8990/IMG_9_8990.jpg"",""SV_PolicingMSA/CA_8990/IMG_13_8990.jpg"",""SV_PolicingMSA/CA_8990/IMG_5_8990.jpg"",""SV_PolicingMSA/CA_8990/IMG_2_8990.jpg"",""SV_PolicingMSA/CA_8990/IMG_14_8990.jpg"",""SV_PolicingMSA/CA_8990/IMG_12_8990.jpg"",""SV_PolicingMSA/CA_8990/IMG_10_8990.jpg""]","5",NA,NA,NA,NA,NA,3,NA,4,"[""./rc_img/cop_condGroup_18_SafeStreets_autoscaled.png"",""./rc_img/cop_condGroup_18_CommunitySafety_autoscaled.png""]",3,NA,NA,"CA_8990","CA_8990",3,0,1,2,1,1,5,"CA_8990",3,3,3,4,0,0,"CA_8990",3,1,3,2,1,2,2,"48","male","nonbinary","Man and nonbinary","49120","Nothing, thanks!"
"14","/Users/arajo/Documents/01. Project/repsPoliceCICompare/data/repsPoliceCICompare_s-1_p-undefined_s-6568abf80701421fc3443fda_SESSION_2023-11-30_11h00.17.632.csv","sliderTrial","html-slider-response",55,329650,"0.0-55.0",NA,"656776a7904ae00d6b91d1dd","6568abf80701421fc3443fda",1,NA,NA,NA,NA,NA,NA,NA,NA,NA,NA,NA,"2290","[""SV_PolicingMSA/CA_8990/IMG_8_8990.jpg"",""SV_PolicingMSA/CA_8990/IMG_9_8990.jpg"",""SV_PolicingMSA/CA_8990/IMG_13_8990.jpg"",""SV_PolicingMSA/CA_8990/IMG_5_8990.jpg"",""SV_PolicingMSA/CA_8990/IMG_2_8990.jpg"",""SV_PolicingMSA/CA_8990/IMG_14_8990.jpg"",""SV_PolicingMSA/CA_8990/IMG_12_8990.jpg"",""SV_PolicingMSA/CA_8990/IMG_10_8990.jpg""]","3",NA,NA,NA,NA,NA,3,NA,4,"[""./rc_img/cop_condGroup_19_CommunitySafety_autoscaled.png"",""./rc_img/cop_condGroup_19_SafeStreets_autoscaled.png""]",3,NA,NA,"CA_8990","CA_8990",3,0,1,2,1,1,5,"CA_8990",3,3,3,4,0,0,"CA_8990",3,1,3,2,1,2,2,"48","male","nonbinary","Man and nonbinary","49120","Nothing, thanks!"
"15","/Users/arajo/Documents/01. Project/repsPoliceCICompare/data/repsPoliceCICompare_s-1_p-undefined_s-6568abf80701421fc3443fda_SESSION_2023-11-30_11h00.17.632.csv","sliderTrial","html-slider-response",56,335040,"0.0-56.0",NA,"656776a7904ae00d6b91d1dd","6568abf80701421fc3443fda",1,NA,NA,NA,NA,NA,NA,NA,NA,NA,NA,NA,"5390","[""SV_PolicingMSA/CA_8990/IMG_8_8990.jpg"",""SV_PolicingMSA/CA_8990/IMG_9_8990.jpg"",""SV_PolicingMSA/CA_8990/IMG_13_8990.jpg"",""SV_PolicingMSA/CA_8990/IMG_5_8990.jpg"",""SV_PolicingMSA/CA_8990/IMG_2_8990.jpg"",""SV_PolicingMSA/CA_8990/IMG_14_8990.jpg"",""SV_PolicingMSA/CA_8990/IMG_12_8990.jpg"",""SV_PolicingMSA/CA_8990/IMG_10_8990.jpg""]","3",NA,NA,NA,NA,NA,3,NA,4,"[""./rc_img/cop_condGroup_17_CommunitySafety_autoscaled.png"",""./rc_img/cop_condGroup_17_SafeStreets_autoscaled.png""]",3,NA,NA,"CA_8990","CA_8990",3,0,1,2,1,1,5,"CA_8990",3,3,3,4,0,0,"CA_8990",3,1,3,2,1,2,2,"48","male","nonbinary","Man and nonbinary","49120","Nothing, thanks!"
"16","/Users/arajo/Documents/01. Project/repsPoliceCICompare/data/repsPoliceCICompare_s-1_p-undefined_s-6568abf80701421fc3443fda_SESSION_2023-11-30_11h00.17.632.csv","sliderTrial","html-slider-response",57,337885,"0.0-57.0",NA,"656776a7904ae00d6b91d1dd","6568abf80701421fc3443fda",1,NA,NA,NA,NA,NA,NA,NA,NA,NA,NA,NA,"2845","[""SV_PolicingMSA/CA_8990/IMG_8_8990.jpg"",""SV_PolicingMSA/CA_8990/IMG_9_8990.jpg"",""SV_PolicingMSA/CA_8990/IMG_13_8990.jpg"",""SV_PolicingMSA/CA_8990/IMG_5_8990.jpg"",""SV_PolicingMSA/CA_8990/IMG_2_8990.jpg"",""SV_PolicingMSA/CA_8990/IMG_14_8990.jpg"",""SV_PolicingMSA/CA_8990/IMG_12_8990.jpg"",""SV_PolicingMSA/CA_8990/IMG_10_8990.jpg""]","3",NA,NA,NA,NA,NA,3,NA,4,"[""./rc_img/cop_condGroup_20_CommunitySafety_autoscaled.png"",""./rc_img/cop_condGroup_20_SafeStreets_autoscaled.png""]",3,NA,NA,"CA_8990","CA_8990",3,0,1,2,1,1,5,"CA_8990",3,3,3,4,0,0,"CA_8990",3,1,3,2,1,2,2,"48","male","nonbinary","Man and nonbinary","49120","Nothing, thanks!"
"17","/Users/arajo/Documents/01. Project/repsPoliceCICompare/data/repsPoliceCICompare_s-1_p-undefined_s-6568abf80701421fc3443fda_SESSION_2023-11-30_11h00.17.632.csv","sliderTrial","html-slider-response",70,394497,"0.0-70.0",NA,"656776a7904ae00d6b91d1dd","6568abf80701421fc3443fda",1,NA,NA,NA,NA,NA,NA,NA,NA,NA,NA,NA,"2992","[""SV_PolicingMSA/CA_2011/IMG_0_2011.jpg"",""SV_PolicingMSA/CA_2011/IMG_1_2011.jpg"",""SV_PolicingMSA/CA_2011/IMG_6_2011.jpg"",""SV_PolicingMSA/CA_2011/IMG_14_2011.jpg"",""SV_PolicingMSA/CA_2011/IMG_9_2011.jpg"",""SV_PolicingMSA/CA_2011/IMG_13_2011.jpg"",""SV_PolicingMSA/CA_2011/IMG_11_2011.jpg"",""SV_PolicingMSA/CA_2011/IMG_5_2011.jpg""]","3",NA,NA,NA,NA,NA,2,NA,4,"[""./rc_img/cop_condGroup_16_CommunitySafety_autoscaled.png"",""./rc_img/cop_condGroup_16_SafeStreets_autoscaled.png""]",3,NA,NA,"CA_2011","CA_2011",2,0,1,1,2,1,3,"CA_2011",2,3,3,4,0,0,"CA_2011",2,1,3,2,2,2,2,"48","male","nonbinary","Man and nonbinary","49120","Nothing, thanks!"
"18","/Users/arajo/Documents/01. Project/repsPoliceCICompare/data/repsPoliceCICompare_s-1_p-undefined_s-6568abf80701421fc3443fda_SESSION_2023-11-30_11h00.17.632.csv","sliderTrial","html-slider-response",71,396467,"0.0-71.0",NA,"656776a7904ae00d6b91d1dd","6568abf80701421fc3443fda",1,NA,NA,NA,NA,NA,NA,NA,NA,NA,NA,NA,"1970","[""SV_PolicingMSA/CA_2011/IMG_0_2011.jpg"",""SV_PolicingMSA/CA_2011/IMG_1_2011.jpg"",""SV_PolicingMSA/CA_2011/IMG_6_2011.jpg"",""SV_PolicingMSA/CA_2011/IMG_14_2011.jpg"",""SV_PolicingMSA/CA_2011/IMG_9_2011.jpg"",""SV_PolicingMSA/CA_2011/IMG_13_2011.jpg"",""SV_PolicingMSA/CA_2011/IMG_11_2011.jpg"",""SV_PolicingMSA/CA_2011/IMG_5_2011.jpg""]","5",NA,NA,NA,NA,NA,2,NA,4,"[""./rc_img/cop_condGroup_11_SafeStreets_autoscaled.png"",""./rc_img/cop_condGroup_11_CommunitySafety_autoscaled.png""]",3,NA,NA,"CA_2011","CA_2011",2,0,1,1,2,1,3,"CA_2011",2,3,3,4,0,0,"CA_2011",2,1,3,2,2,2,2,"48","male","nonbinary","Man and nonbinary","49120","Nothing, thanks!"
"19","/Users/arajo/Documents/01. Project/repsPoliceCICompare/data/repsPoliceCICompare_s-1_p-undefined_s-6568abf80701421fc3443fda_SESSION_2023-11-30_11h00.17.632.csv","sliderTrial","html-slider-response",72,400875,"0.0-72.0",NA,"656776a7904ae00d6b91d1dd","6568abf80701421fc3443fda",1,NA,NA,NA,NA,NA,NA,NA,NA,NA,NA,NA,"4406","[""SV_PolicingMSA/CA_2011/IMG_0_2011.jpg"",""SV_PolicingMSA/CA_2011/IMG_1_2011.jpg"",""SV_PolicingMSA/CA_2011/IMG_6_2011.jpg"",""SV_PolicingMSA/CA_2011/IMG_14_2011.jpg"",""SV_PolicingMSA/CA_2011/IMG_9_2011.jpg"",""SV_PolicingMSA/CA_2011/IMG_13_2011.jpg"",""SV_PolicingMSA/CA_2011/IMG_11_2011.jpg"",""SV_PolicingMSA/CA_2011/IMG_5_2011.jpg""]","3",NA,NA,NA,NA,NA,2,NA,4,"[""./rc_img/cop_condGroup_7_CommunitySafety_autoscaled.png"",""./rc_img/cop_condGroup_7_SafeStreets_autoscaled.png""]",3,NA,NA,"CA_2011","CA_2011",2,0,1,1,2,1,3,"CA_2011",2,3,3,4,0,0,"CA_2011",2,1,3,2,2,2,2,"48","male","nonbinary","Man and nonbinary","49120","Nothing, thanks!"
"20","/Users/arajo/Documents/01. Project/repsPoliceCICompare/data/repsPoliceCICompare_s-1_p-undefined_s-6568abf80701421fc3443fda_SESSION_2023-11-30_11h00.17.632.csv","sliderTrial","html-slider-response",73,403967,"0.0-73.0",NA,"656776a7904ae00d6b91d1dd","6568abf80701421fc3443fda",1,NA,NA,NA,NA,NA,NA,NA,NA,NA,NA,NA,"3092","[""SV_PolicingMSA/CA_2011/IMG_0_2011.jpg"",""SV_PolicingMSA/CA_2011/IMG_1_2011.jpg"",""SV_PolicingMSA/CA_2011/IMG_6_2011.jpg"",""SV_PolicingMSA/CA_2011/IMG_14_2011.jpg"",""SV_PolicingMSA/CA_2011/IMG_9_2011.jpg"",""SV_PolicingMSA/CA_2011/IMG_13_2011.jpg"",""SV_PolicingMSA/CA_2011/IMG_11_2011.jpg"",""SV_PolicingMSA/CA_2011/IMG_5_2011.jpg""]","3",NA,NA,NA,NA,NA,2,NA,4,"[""./rc_img/cop_condGroup_15_CommunitySafety_autoscaled.png"",""./rc_img/cop_condGroup_15_SafeStreets_autoscaled.png""]",3,NA,NA,"CA_2011","CA_2011",2,0,1,1,2,1,3,"CA_2011",2,3,3,4,0,0,"CA_2011",2,1,3,2,2,2,2,"48","male","nonbinary","Man and nonbinary","49120","Nothing, thanks!"
"21","/Users/arajo/Documents/01. Project/repsPoliceCICompare/data/repsPoliceCICompare_s-1_p-undefined_s-6568abf80701421fc3443fda_SESSION_2023-11-30_11h00.17.632.csv","sliderTrial","html-slider-response",74,406639,"0.0-74.0",NA,"656776a7904ae00d6b91d1dd","6568abf80701421fc3443fda",1,NA,NA,NA,NA,NA,NA,NA,NA,NA,NA,NA,"2670","[""SV_PolicingMSA/CA_2011/IMG_0_2011.jpg"",""SV_PolicingMSA/CA_2011/IMG_1_2011.jpg"",""SV_PolicingMSA/CA_2011/IMG_6_2011.jpg"",""SV_PolicingMSA/CA_2011/IMG_14_2011.jpg"",""SV_PolicingMSA/CA_2011/IMG_9_2011.jpg"",""SV_PolicingMSA/CA_2011/IMG_13_2011.jpg"",""SV_PolicingMSA/CA_2011/IMG_11_2011.jpg"",""SV_PolicingMSA/CA_2011/IMG_5_2011.jpg""]","3",NA,NA,NA,NA,NA,2,NA,4,"[""./rc_img/cop_condGroup_13_CommunitySafety_autoscaled.png"",""./rc_img/cop_condGroup_13_SafeStreets_autoscaled.png""]",3,NA,NA,"CA_2011","CA_2011",2,0,1,1,2,1,3,"CA_2011",2,3,3,4,0,0,"CA_2011",2,1,3,2,2,2,2,"48","male","nonbinary","Man and nonbinary","49120","Nothing, thanks!"
"22","/Users/arajo/Documents/01. Project/repsPoliceCICompare/data/repsPoliceCICompare_s-1_p-undefined_s-6568abf80701421fc3443fda_SESSION_2023-11-30_11h00.17.632.csv","sliderTrial","html-slider-response",88,534680,"0.0-88.0",NA,"656776a7904ae00d6b91d1dd","6568abf80701421fc3443fda",1,NA,NA,NA,NA,NA,NA,NA,NA,NA,NA,NA,"3072","[""SV_PolicingMSA/CA_2534/IMG_14_2534.jpg"",""SV_PolicingMSA/CA_2534/IMG_5_2534.jpg"",""SV_PolicingMSA/CA_2534/IMG_1_2534.jpg"",""SV_PolicingMSA/CA_2534/IMG_11_2534.jpg"",""SV_PolicingMSA/CA_2534/IMG_8_2534.jpg"",""SV_PolicingMSA/CA_2534/IMG_10_2534.jpg"",""SV_PolicingMSA/CA_2534/IMG_4_2534.jpg"",""SV_PolicingMSA/CA_2534/IMG_6_2534.jpg""]","3",NA,NA,NA,NA,NA,0,NA,4,"[""./rc_img/cop_condGroup_1_CommunitySafety_autoscaled.png"",""./rc_img/cop_condGroup_1_SafeStreets_autoscaled.png""]",3,NA,NA,"CA_2534","CA_2534",0,0,1,1,1,1,1,"CA_2534",0,3,3,4,0,0,"CA_2534",0,0,3,2,1,2,2,"48","male","nonbinary","Man and nonbinary","49120","Nothing, thanks!"
"23","/Users/arajo/Documents/01. Project/repsPoliceCICompare/data/repsPoliceCICompare_s-1_p-undefined_s-6568abf80701421fc3443fda_SESSION_2023-11-30_11h00.17.632.csv","sliderTrial","html-slider-response",89,536823,"0.0-89.0",NA,"656776a7904ae00d6b91d1dd","6568abf80701421fc3443fda",1,NA,NA,NA,NA,NA,NA,NA,NA,NA,NA,NA,"2143","[""SV_PolicingMSA/CA_2534/IMG_14_2534.jpg"",""SV_PolicingMSA/CA_2534/IMG_5_2534.jpg"",""SV_PolicingMSA/CA_2534/IMG_1_2534.jpg"",""SV_PolicingMSA/CA_2534/IMG_11_2534.jpg"",""SV_PolicingMSA/CA_2534/IMG_8_2534.jpg"",""SV_PolicingMSA/CA_2534/IMG_10_2534.jpg"",""SV_PolicingMSA/CA_2534/IMG_4_2534.jpg"",""SV_PolicingMSA/CA_2534/IMG_6_2534.jpg""]","3",NA,NA,NA,NA,NA,0,NA,4,"[""./rc_img/cop_condGroup_4_CommunitySafety_autoscaled.png"",""./rc_img/cop_condGroup_4_SafeStreets_autoscaled.png""]",3,NA,NA,"CA_2534","CA_2534",0,0,1,1,1,1,1,"CA_2534",0,3,3,4,0,0,"CA_2534",0,0,3,2,1,2,2,"48","male","nonbinary","Man and nonbinary","49120","Nothing, thanks!"
"24","/Users/arajo/Documents/01. Project/repsPoliceCICompare/data/repsPoliceCICompare_s-1_p-undefined_s-6568abf80701421fc3443fda_SESSION_2023-11-30_11h00.17.632.csv","sliderTrial_attention","html-slider-response",90,546829,"0.0-90.0",NA,"656776a7904ae00d6b91d1dd","6568abf80701421fc3443fda",1,NA,NA,NA,NA,NA,NA,NA,NA,NA,NA,NA,"null","[""SV_PolicingMSA/CA_2534/IMG_14_2534.jpg"",""SV_PolicingMSA/CA_2534/IMG_5_2534.jpg"",""SV_PolicingMSA/CA_2534/IMG_1_2534.jpg"",""SV_PolicingMSA/CA_2534/IMG_11_2534.jpg"",""SV_PolicingMSA/CA_2534/IMG_8_2534.jpg"",""SV_PolicingMSA/CA_2534/IMG_10_2534.jpg"",""SV_PolicingMSA/CA_2534/IMG_4_2534.jpg"",""SV_PolicingMSA/CA_2534/IMG_6_2534.jpg""]","null",NA,NA,NA,NA,NA,0,NA,4,"[""./assets/img/attnchk.png"",""./assets/img/attnchk.png""]",NA,TRUE,NA,"CA_2534","CA_2534",0,0,1,1,1,1,1,"CA_2534",0,3,3,4,0,0,"CA_2534",0,0,3,2,1,2,2,"48","male","nonbinary","Man and nonbinary","49120","Nothing, thanks!"
"25","/Users/arajo/Documents/01. Project/repsPoliceCICompare/data/repsPoliceCICompare_s-1_p-undefined_s-6568abf80701421fc3443fda_SESSION_2023-11-30_11h00.17.632.csv","sliderTrial","html-slider-response",91,550288,"0.0-91.0",NA,"656776a7904ae00d6b91d1dd","6568abf80701421fc3443fda",1,NA,NA,NA,NA,NA,NA,NA,NA,NA,NA,NA,"3455","[""SV_PolicingMSA/CA_2534/IMG_14_2534.jpg"",""SV_PolicingMSA/CA_2534/IMG_5_2534.jpg"",""SV_PolicingMSA/CA_2534/IMG_1_2534.jpg"",""SV_PolicingMSA/CA_2534/IMG_11_2534.jpg"",""SV_PolicingMSA/CA_2534/IMG_8_2534.jpg"",""SV_PolicingMSA/CA_2534/IMG_10_2534.jpg"",""SV_PolicingMSA/CA_2534/IMG_4_2534.jpg"",""SV_PolicingMSA/CA_2534/IMG_6_2534.jpg""]","3",NA,NA,NA,NA,NA,0,NA,4,"[""./rc_img/cop_condGroup_3_CommunitySafety_autoscaled.png"",""./rc_img/cop_condGroup_3_SafeStreets_autoscaled.png""]",3,NA,NA,"CA_2534","CA_2534",0,0,1,1,1,1,1,"CA_2534",0,3,3,4,0,0,"CA_2534",0,0,3,2,1,2,2,"48","male","nonbinary","Man and nonbinary","49120","Nothing, thanks!"
"26","/Users/arajo/Documents/01. Project/repsPoliceCICompare/data/repsPoliceCICompare_s-1_p-undefined_s-6568abf80701421fc3443fda_SESSION_2023-11-30_11h00.17.632.csv","sliderTrial","html-slider-response",92,552841,"0.0-92.0",NA,"656776a7904ae00d6b91d1dd","6568abf80701421fc3443fda",1,NA,NA,NA,NA,NA,NA,NA,NA,NA,NA,NA,"2552","[""SV_PolicingMSA/CA_2534/IMG_14_2534.jpg"",""SV_PolicingMSA/CA_2534/IMG_5_2534.jpg"",""SV_PolicingMSA/CA_2534/IMG_1_2534.jpg"",""SV_PolicingMSA/CA_2534/IMG_11_2534.jpg"",""SV_PolicingMSA/CA_2534/IMG_8_2534.jpg"",""SV_PolicingMSA/CA_2534/IMG_10_2534.jpg"",""SV_PolicingMSA/CA_2534/IMG_4_2534.jpg"",""SV_PolicingMSA/CA_2534/IMG_6_2534.jpg""]","3",NA,NA,NA,NA,NA,0,NA,4,"[""./rc_img/cop_condGroup_2_CommunitySafety_autoscaled.png"",""./rc_img/cop_condGroup_2_SafeStreets_autoscaled.png""]",3,NA,NA,"CA_2534","CA_2534",0,0,1,1,1,1,1,"CA_2534",0,3,3,4,0,0,"CA_2534",0,0,3,2,1,2,2,"48","male","nonbinary","Man and nonbinary","49120","Nothing, thanks!"
"27","/Users/arajo/Documents/01. Project/repsPoliceCICompare/data/repsPoliceCICompare_s-1_p-undefined_s-6568abf80701421fc3443fda_SESSION_2023-11-30_11h00.17.632.csv","sliderTrial","html-slider-response",93,555455,"0.0-93.0",NA,"656776a7904ae00d6b91d1dd","6568abf80701421fc3443fda",1,NA,NA,NA,NA,NA,NA,NA,NA,NA,NA,NA,"2613","[""SV_PolicingMSA/CA_2534/IMG_14_2534.jpg"",""SV_PolicingMSA/CA_2534/IMG_5_2534.jpg"",""SV_PolicingMSA/CA_2534/IMG_1_2534.jpg"",""SV_PolicingMSA/CA_2534/IMG_11_2534.jpg"",""SV_PolicingMSA/CA_2534/IMG_8_2534.jpg"",""SV_PolicingMSA/CA_2534/IMG_10_2534.jpg"",""SV_PolicingMSA/CA_2534/IMG_4_2534.jpg"",""SV_PolicingMSA/CA_2534/IMG_6_2534.jpg""]","5",NA,NA,NA,NA,NA,0,NA,4,"[""./rc_img/cop_condGroup_8_SafeStreets_autoscaled.png"",""./rc_img/cop_condGroup_8_CommunitySafety_autoscaled.png""]",3,NA,NA,"CA_2534","CA_2534",0,0,1,1,1,1,1,"CA_2534",0,3,3,4,0,0,"CA_2534",0,0,3,2,1,2,2,"48","male","nonbinary","Man and nonbinary","49120","Nothing, thanks!"
"28","/Users/arajo/Documents/01. Project/repsPoliceCICompare/data/repsPoliceCICompare_s-1_p-undefined_s-6568abf80701421fc3443fda_SESSION_2023-11-30_11h00.17.632.csv","sliderTrial","html-slider-response",106,607661,"0.0-106.0",NA,"656776a7904ae00d6b91d1dd","6568abf80701421fc3443fda",1,NA,NA,NA,NA,NA,NA,NA,NA,NA,NA,NA,"2854","[""SV_PolicingMSA/CA_2537/IMG_10_2537.jpg"",""SV_PolicingMSA/CA_2537/IMG_4_2537.jpg"",""SV_PolicingMSA/CA_2537/IMG_9_2537.jpg"",""SV_PolicingMSA/CA_2537/IMG_8_2537.jpg"",""SV_PolicingMSA/CA_2537/IMG_6_2537.jpg"",""SV_PolicingMSA/CA_2537/IMG_7_2537.jpg"",""SV_PolicingMSA/CA_2537/IMG_12_2537.jpg"",""SV_PolicingMSA/CA_2537/IMG_2_2537.jpg""]","3",NA,NA,NA,NA,NA,2,NA,4,"[""./rc_img/cop_condGroup_1_CommunitySafety_autoscaled.png"",""./rc_img/cop_condGroup_1_SafeStreets_autoscaled.png""]",3,NA,NA,"CA_2537","CA_2537",2,1,2,2,2,2,4,"CA_2537",2,3,3,3,1,1,"CA_2537",2,2,3,3,2,2,2,"48","male","nonbinary","Man and nonbinary","49120","Nothing, thanks!"
"29","/Users/arajo/Documents/01. Project/repsPoliceCICompare/data/repsPoliceCICompare_s-1_p-undefined_s-6568abf80701421fc3443fda_SESSION_2023-11-30_11h00.17.632.csv","sliderTrial","html-slider-response",107,609715,"0.0-107.0",NA,"656776a7904ae00d6b91d1dd","6568abf80701421fc3443fda",1,NA,NA,NA,NA,NA,NA,NA,NA,NA,NA,NA,"2052","[""SV_PolicingMSA/CA_2537/IMG_10_2537.jpg"",""SV_PolicingMSA/CA_2537/IMG_4_2537.jpg"",""SV_PolicingMSA/CA_2537/IMG_9_2537.jpg"",""SV_PolicingMSA/CA_2537/IMG_8_2537.jpg"",""SV_PolicingMSA/CA_2537/IMG_6_2537.jpg"",""SV_PolicingMSA/CA_2537/IMG_7_2537.jpg"",""SV_PolicingMSA/CA_2537/IMG_12_2537.jpg"",""SV_PolicingMSA/CA_2537/IMG_2_2537.jpg""]","3",NA,NA,NA,NA,NA,2,NA,4,"[""./rc_img/cop_condGroup_4_CommunitySafety_autoscaled.png"",""./rc_img/cop_condGroup_4_SafeStreets_autoscaled.png""]",3,NA,NA,"CA_2537","CA_2537",2,1,2,2,2,2,4,"CA_2537",2,3,3,3,1,1,"CA_2537",2,2,3,3,2,2,2,"48","male","nonbinary","Man and nonbinary","49120","Nothing, thanks!"
"30","/Users/arajo/Documents/01. Project/repsPoliceCICompare/data/repsPoliceCICompare_s-1_p-undefined_s-6568abf80701421fc3443fda_SESSION_2023-11-30_11h00.17.632.csv","sliderTrial","html-slider-response",108,611676,"0.0-108.0",NA,"656776a7904ae00d6b91d1dd","6568abf80701421fc3443fda",1,NA,NA,NA,NA,NA,NA,NA,NA,NA,NA,NA,"1961","[""SV_PolicingMSA/CA_2537/IMG_10_2537.jpg"",""SV_PolicingMSA/CA_2537/IMG_4_2537.jpg"",""SV_PolicingMSA/CA_2537/IMG_9_2537.jpg"",""SV_PolicingMSA/CA_2537/IMG_8_2537.jpg"",""SV_PolicingMSA/CA_2537/IMG_6_2537.jpg"",""SV_PolicingMSA/CA_2537/IMG_7_2537.jpg"",""SV_PolicingMSA/CA_2537/IMG_12_2537.jpg"",""SV_PolicingMSA/CA_2537/IMG_2_2537.jpg""]","3",NA,NA,NA,NA,NA,2,NA,4,"[""./rc_img/cop_condGroup_3_CommunitySafety_autoscaled.png"",""./rc_img/cop_condGroup_3_SafeStreets_autoscaled.png""]",3,NA,NA,"CA_2537","CA_2537",2,1,2,2,2,2,4,"CA_2537",2,3,3,3,1,1,"CA_2537",2,2,3,3,2,2,2,"48","male","nonbinary","Man and nonbinary","49120","Nothing, thanks!"
"31","/Users/arajo/Documents/01. Project/repsPoliceCICompare/data/repsPoliceCICompare_s-1_p-undefined_s-6568abf80701421fc3443fda_SESSION_2023-11-30_11h00.17.632.csv","sliderTrial","html-slider-response",109,613541,"0.0-109.0",NA,"656776a7904ae00d6b91d1dd","6568abf80701421fc3443fda",1,NA,NA,NA,NA,NA,NA,NA,NA,NA,NA,NA,"1864","[""SV_PolicingMSA/CA_2537/IMG_10_2537.jpg"",""SV_PolicingMSA/CA_2537/IMG_4_2537.jpg"",""SV_PolicingMSA/CA_2537/IMG_9_2537.jpg"",""SV_PolicingMSA/CA_2537/IMG_8_2537.jpg"",""SV_PolicingMSA/CA_2537/IMG_6_2537.jpg"",""SV_PolicingMSA/CA_2537/IMG_7_2537.jpg"",""SV_PolicingMSA/CA_2537/IMG_12_2537.jpg"",""SV_PolicingMSA/CA_2537/IMG_2_2537.jpg""]","3",NA,NA,NA,NA,NA,2,NA,4,"[""./rc_img/cop_condGroup_2_CommunitySafety_autoscaled.png"",""./rc_img/cop_condGroup_2_SafeStreets_autoscaled.png""]",3,NA,NA,"CA_2537","CA_2537",2,1,2,2,2,2,4,"CA_2537",2,3,3,3,1,1,"CA_2537",2,2,3,3,2,2,2,"48","male","nonbinary","Man and nonbinary","49120","Nothing, thanks!"
"32","/Users/arajo/Documents/01. Project/repsPoliceCICompare/data/repsPoliceCICompare_s-1_p-undefined_s-6568abf80701421fc3443fda_SESSION_2023-11-30_11h00.17.632.csv","sliderTrial","html-slider-response",110,615488,"0.0-110.0",NA,"656776a7904ae00d6b91d1dd","6568abf80701421fc3443fda",1,NA,NA,NA,NA,NA,NA,NA,NA,NA,NA,NA,"1946","[""SV_PolicingMSA/CA_2537/IMG_10_2537.jpg"",""SV_PolicingMSA/CA_2537/IMG_4_2537.jpg"",""SV_PolicingMSA/CA_2537/IMG_9_2537.jpg"",""SV_PolicingMSA/CA_2537/IMG_8_2537.jpg"",""SV_PolicingMSA/CA_2537/IMG_6_2537.jpg"",""SV_PolicingMSA/CA_2537/IMG_7_2537.jpg"",""SV_PolicingMSA/CA_2537/IMG_12_2537.jpg"",""SV_PolicingMSA/CA_2537/IMG_2_2537.jpg""]","5",NA,NA,NA,NA,NA,2,NA,4,"[""./rc_img/cop_condGroup_8_SafeStreets_autoscaled.png"",""./rc_img/cop_condGroup_8_CommunitySafety_autoscaled.png""]",3,NA,NA,"CA_2537","CA_2537",2,1,2,2,2,2,4,"CA_2537",2,3,3,3,1,1,"CA_2537",2,2,3,3,2,2,2,"48","male","nonbinary","Man and nonbinary","49120","Nothing, thanks!"
"33","/Users/arajo/Documents/01. Project/repsPoliceCICompare/data/repsPoliceCICompare_s-1_p-undefined_s-6568abf80701421fc3443fda_SESSION_2023-11-30_11h00.17.632.csv","sliderTrial","html-slider-response",123,686203,"0.0-123.0",NA,"656776a7904ae00d6b91d1dd","6568abf80701421fc3443fda",1,NA,NA,NA,NA,NA,NA,NA,NA,NA,NA,NA,"4490","[""SV_PolicingMSA/CA_2555/IMG_8_2555.jpg"",""SV_PolicingMSA/CA_2555/IMG_13_2555.jpg"",""SV_PolicingMSA/CA_2555/IMG_3_2555.jpg"",""SV_PolicingMSA/CA_2555/IMG_14_2555.jpg"",""SV_PolicingMSA/CA_2555/IMG_9_2555.jpg"",""SV_PolicingMSA/CA_2555/IMG_6_2555.jpg"",""SV_PolicingMSA/CA_2555/IMG_2_2555.jpg"",""SV_PolicingMSA/CA_2555/IMG_7_2555.jpg""]","3",NA,NA,NA,NA,NA,3,NA,4,"[""./rc_img/cop_condGroup_5_CommunitySafety_autoscaled.png"",""./rc_img/cop_condGroup_5_SafeStreets_autoscaled.png""]",3,NA,NA,"CA_2555","CA_2555",3,3,3,0,3,1,6,"CA_2555",3,0,0,2,3,3,"CA_2555",3,2,3,3,3,3,3,"48","male","nonbinary","Man and nonbinary","49120","Nothing, thanks!"
"34","/Users/arajo/Documents/01. Project/repsPoliceCICompare/data/repsPoliceCICompare_s-1_p-undefined_s-6568abf80701421fc3443fda_SESSION_2023-11-30_11h00.17.632.csv","sliderTrial","html-slider-response",124,690015,"0.0-124.0",NA,"656776a7904ae00d6b91d1dd","6568abf80701421fc3443fda",1,NA,NA,NA,NA,NA,NA,NA,NA,NA,NA,NA,"3810","[""SV_PolicingMSA/CA_2555/IMG_8_2555.jpg"",""SV_PolicingMSA/CA_2555/IMG_13_2555.jpg"",""SV_PolicingMSA/CA_2555/IMG_3_2555.jpg"",""SV_PolicingMSA/CA_2555/IMG_14_2555.jpg"",""SV_PolicingMSA/CA_2555/IMG_9_2555.jpg"",""SV_PolicingMSA/CA_2555/IMG_6_2555.jpg"",""SV_PolicingMSA/CA_2555/IMG_2_2555.jpg"",""SV_PolicingMSA/CA_2555/IMG_7_2555.jpg""]","5",NA,NA,NA,NA,NA,3,NA,4,"[""./rc_img/cop_condGroup_9_SafeStreets_autoscaled.png"",""./rc_img/cop_condGroup_9_CommunitySafety_autoscaled.png""]",3,NA,NA,"CA_2555","CA_2555",3,3,3,0,3,1,6,"CA_2555",3,0,0,2,3,3,"CA_2555",3,2,3,3,3,3,3,"48","male","nonbinary","Man and nonbinary","49120","Nothing, thanks!"
"35","/Users/arajo/Documents/01. Project/repsPoliceCICompare/data/repsPoliceCICompare_s-1_p-undefined_s-6568abf80701421fc3443fda_SESSION_2023-11-30_11h00.17.632.csv","sliderTrial","html-slider-response",125,693781,"0.0-125.0",NA,"656776a7904ae00d6b91d1dd","6568abf80701421fc3443fda",1,NA,NA,NA,NA,NA,NA,NA,NA,NA,NA,NA,"3765","[""SV_PolicingMSA/CA_2555/IMG_8_2555.jpg"",""SV_PolicingMSA/CA_2555/IMG_13_2555.jpg"",""SV_PolicingMSA/CA_2555/IMG_3_2555.jpg"",""SV_PolicingMSA/CA_2555/IMG_14_2555.jpg"",""SV_PolicingMSA/CA_2555/IMG_9_2555.jpg"",""SV_PolicingMSA/CA_2555/IMG_6_2555.jpg"",""SV_PolicingMSA/CA_2555/IMG_2_2555.jpg"",""SV_PolicingMSA/CA_2555/IMG_7_2555.jpg""]","3",NA,NA,NA,NA,NA,3,NA,4,"[""./rc_img/cop_condGroup_6_CommunitySafety_autoscaled.png"",""./rc_img/cop_condGroup_6_SafeStreets_autoscaled.png""]",3,NA,NA,"CA_2555","CA_2555",3,3,3,0,3,1,6,"CA_2555",3,0,0,2,3,3,"CA_2555",3,2,3,3,3,3,3,"48","male","nonbinary","Man and nonbinary","49120","Nothing, thanks!"
"36","/Users/arajo/Documents/01. Project/repsPoliceCICompare/data/repsPoliceCICompare_s-1_p-undefined_s-6568abf80701421fc3443fda_SESSION_2023-11-30_11h00.17.632.csv","sliderTrial","html-slider-response",126,696365,"0.0-126.0",NA,"656776a7904ae00d6b91d1dd","6568abf80701421fc3443fda",1,NA,NA,NA,NA,NA,NA,NA,NA,NA,NA,NA,"2583","[""SV_PolicingMSA/CA_2555/IMG_8_2555.jpg"",""SV_PolicingMSA/CA_2555/IMG_13_2555.jpg"",""SV_PolicingMSA/CA_2555/IMG_3_2555.jpg"",""SV_PolicingMSA/CA_2555/IMG_14_2555.jpg"",""SV_PolicingMSA/CA_2555/IMG_9_2555.jpg"",""SV_PolicingMSA/CA_2555/IMG_6_2555.jpg"",""SV_PolicingMSA/CA_2555/IMG_2_2555.jpg"",""SV_PolicingMSA/CA_2555/IMG_7_2555.jpg""]","5",NA,NA,NA,NA,NA,3,NA,4,"[""./rc_img/cop_condGroup_12_SafeStreets_autoscaled.png"",""./rc_img/cop_condGroup_12_CommunitySafety_autoscaled.png""]",3,NA,NA,"CA_2555","CA_2555",3,3,3,0,3,1,6,"CA_2555",3,0,0,2,3,3,"CA_2555",3,2,3,3,3,3,3,"48","male","nonbinary","Man and nonbinary","49120","Nothing, thanks!"
"37","/Users/arajo/Documents/01. Project/repsPoliceCICompare/data/repsPoliceCICompare_s-1_p-undefined_s-6568abf80701421fc3443fda_SESSION_2023-11-30_11h00.17.632.csv","sliderTrial","html-slider-response",127,699387,"0.0-127.0",NA,"656776a7904ae00d6b91d1dd","6568abf80701421fc3443fda",1,NA,NA,NA,NA,NA,NA,NA,NA,NA,NA,NA,"3022","[""SV_PolicingMSA/CA_2555/IMG_8_2555.jpg"",""SV_PolicingMSA/CA_2555/IMG_13_2555.jpg"",""SV_PolicingMSA/CA_2555/IMG_3_2555.jpg"",""SV_PolicingMSA/CA_2555/IMG_14_2555.jpg"",""SV_PolicingMSA/CA_2555/IMG_9_2555.jpg"",""SV_PolicingMSA/CA_2555/IMG_6_2555.jpg"",""SV_PolicingMSA/CA_2555/IMG_2_2555.jpg"",""SV_PolicingMSA/CA_2555/IMG_7_2555.jpg""]","3",NA,NA,NA,NA,NA,3,NA,4,"[""./rc_img/cop_condGroup_10_CommunitySafety_autoscaled.png"",""./rc_img/cop_condGroup_10_SafeStreets_autoscaled.png""]",3,NA,NA,"CA_2555","CA_2555",3,3,3,0,3,1,6,"CA_2555",3,0,0,2,3,3,"CA_2555",3,2,3,3,3,3,3,"48","male","nonbinary","Man and nonbinary","49120","Nothing, thanks!"
"38","/Users/arajo/Documents/01. Project/repsPoliceCICompare/data/repsPoliceCICompare_s-1_p-undefined_s-6568abf80701421fc3443fda_SESSION_2023-11-30_11h00.17.632.csv","sliderTrial","html-slider-response",140,757945,"0.0-140.0",NA,"656776a7904ae00d6b91d1dd","6568abf80701421fc3443fda",1,NA,NA,NA,NA,NA,NA,NA,NA,NA,NA,NA,"3109","[""SV_PolicingMSA/CA_5098/IMG_5_5098.jpg"",""SV_PolicingMSA/CA_5098/IMG_2_5098.jpg"",""SV_PolicingMSA/CA_5098/IMG_0_5098.jpg"",""SV_PolicingMSA/CA_5098/IMG_14_5098.jpg"",""SV_PolicingMSA/CA_5098/IMG_7_5098.jpg"",""SV_PolicingMSA/CA_5098/IMG_4_5098.jpg"",""SV_PolicingMSA/CA_5098/IMG_11_5098.jpg"",""SV_PolicingMSA/CA_5098/IMG_13_5098.jpg""]","3",NA,NA,NA,NA,NA,5,NA,4,"[""./rc_img/cop_condGroup_14_CommunitySafety_autoscaled.png"",""./rc_img/cop_condGroup_14_SafeStreets_autoscaled.png""]",3,NA,NA,"CA_5098","CA_5098",5,2,3,1,2,1,8,"CA_5098",5,1,1,2,2,2,"CA_5098",5,2,3,3,3,3,3,"48","male","nonbinary","Man and nonbinary","49120","Nothing, thanks!"
"39","/Users/arajo/Documents/01. Project/repsPoliceCICompare/data/repsPoliceCICompare_s-1_p-undefined_s-6568abf80701421fc3443fda_SESSION_2023-11-30_11h00.17.632.csv","sliderTrial","html-slider-response",141,760388,"0.0-141.0",NA,"656776a7904ae00d6b91d1dd","6568abf80701421fc3443fda",1,NA,NA,NA,NA,NA,NA,NA,NA,NA,NA,NA,"2441","[""SV_PolicingMSA/CA_5098/IMG_5_5098.jpg"",""SV_PolicingMSA/CA_5098/IMG_2_5098.jpg"",""SV_PolicingMSA/CA_5098/IMG_0_5098.jpg"",""SV_PolicingMSA/CA_5098/IMG_14_5098.jpg"",""SV_PolicingMSA/CA_5098/IMG_7_5098.jpg"",""SV_PolicingMSA/CA_5098/IMG_4_5098.jpg"",""SV_PolicingMSA/CA_5098/IMG_11_5098.jpg"",""SV_PolicingMSA/CA_5098/IMG_13_5098.jpg""]","5",NA,NA,NA,NA,NA,5,NA,4,"[""./rc_img/cop_condGroup_18_SafeStreets_autoscaled.png"",""./rc_img/cop_condGroup_18_CommunitySafety_autoscaled.png""]",3,NA,NA,"CA_5098","CA_5098",5,2,3,1,2,1,8,"CA_5098",5,1,1,2,2,2,"CA_5098",5,2,3,3,3,3,3,"48","male","nonbinary","Man and nonbinary","49120","Nothing, thanks!"
"40","/Users/arajo/Documents/01. Project/repsPoliceCICompare/data/repsPoliceCICompare_s-1_p-undefined_s-6568abf80701421fc3443fda_SESSION_2023-11-30_11h00.17.632.csv","sliderTrial","html-slider-response",142,763053,"0.0-142.0",NA,"656776a7904ae00d6b91d1dd","6568abf80701421fc3443fda",1,NA,NA,NA,NA,NA,NA,NA,NA,NA,NA,NA,"2663","[""SV_PolicingMSA/CA_5098/IMG_5_5098.jpg"",""SV_PolicingMSA/CA_5098/IMG_2_5098.jpg"",""SV_PolicingMSA/CA_5098/IMG_0_5098.jpg"",""SV_PolicingMSA/CA_5098/IMG_14_5098.jpg"",""SV_PolicingMSA/CA_5098/IMG_7_5098.jpg"",""SV_PolicingMSA/CA_5098/IMG_4_5098.jpg"",""SV_PolicingMSA/CA_5098/IMG_11_5098.jpg"",""SV_PolicingMSA/CA_5098/IMG_13_5098.jpg""]","3",NA,NA,NA,NA,NA,5,NA,4,"[""./rc_img/cop_condGroup_19_CommunitySafety_autoscaled.png"",""./rc_img/cop_condGroup_19_SafeStreets_autoscaled.png""]",3,NA,NA,"CA_5098","CA_5098",5,2,3,1,2,1,8,"CA_5098",5,1,1,2,2,2,"CA_5098",5,2,3,3,3,3,3,"48","male","nonbinary","Man and nonbinary","49120","Nothing, thanks!"
"41","/Users/arajo/Documents/01. Project/repsPoliceCICompare/data/repsPoliceCICompare_s-1_p-undefined_s-6568abf80701421fc3443fda_SESSION_2023-11-30_11h00.17.632.csv","sliderTrial","html-slider-response",143,765756,"0.0-143.0",NA,"656776a7904ae00d6b91d1dd","6568abf80701421fc3443fda",1,NA,NA,NA,NA,NA,NA,NA,NA,NA,NA,NA,"2701","[""SV_PolicingMSA/CA_5098/IMG_5_5098.jpg"",""SV_PolicingMSA/CA_5098/IMG_2_5098.jpg"",""SV_PolicingMSA/CA_5098/IMG_0_5098.jpg"",""SV_PolicingMSA/CA_5098/IMG_14_5098.jpg"",""SV_PolicingMSA/CA_5098/IMG_7_5098.jpg"",""SV_PolicingMSA/CA_5098/IMG_4_5098.jpg"",""SV_PolicingMSA/CA_5098/IMG_11_5098.jpg"",""SV_PolicingMSA/CA_5098/IMG_13_5098.jpg""]","3",NA,NA,NA,NA,NA,5,NA,4,"[""./rc_img/cop_condGroup_17_CommunitySafety_autoscaled.png"",""./rc_img/cop_condGroup_17_SafeStreets_autoscaled.png""]",3,NA,NA,"CA_5098","CA_5098",5,2,3,1,2,1,8,"CA_5098",5,1,1,2,2,2,"CA_5098",5,2,3,3,3,3,3,"48","male","nonbinary","Man and nonbinary","49120","Nothing, thanks!"
"42","/Users/arajo/Documents/01. Project/repsPoliceCICompare/data/repsPoliceCICompare_s-1_p-undefined_s-6568abf80701421fc3443fda_SESSION_2023-11-30_11h00.17.632.csv","sliderTrial","html-slider-response",144,769295,"0.0-144.0",NA,"656776a7904ae00d6b91d1dd","6568abf80701421fc3443fda",1,NA,NA,NA,NA,NA,NA,NA,NA,NA,NA,NA,"3539","[""SV_PolicingMSA/CA_5098/IMG_5_5098.jpg"",""SV_PolicingMSA/CA_5098/IMG_2_5098.jpg"",""SV_PolicingMSA/CA_5098/IMG_0_5098.jpg"",""SV_PolicingMSA/CA_5098/IMG_14_5098.jpg"",""SV_PolicingMSA/CA_5098/IMG_7_5098.jpg"",""SV_PolicingMSA/CA_5098/IMG_4_5098.jpg"",""SV_PolicingMSA/CA_5098/IMG_11_5098.jpg"",""SV_PolicingMSA/CA_5098/IMG_13_5098.jpg""]","3",NA,NA,NA,NA,NA,5,NA,4,"[""./rc_img/cop_condGroup_20_CommunitySafety_autoscaled.png"",""./rc_img/cop_condGroup_20_SafeStreets_autoscaled.png""]",3,NA,NA,"CA_5098","CA_5098",5,2,3,1,2,1,8,"CA_5098",5,1,1,2,2,2,"CA_5098",5,2,3,3,3,3,3,"48","male","nonbinary","Man and nonbinary","49120","Nothing, thanks!"
"43","/Users/arajo/Documents/01. Project/repsPoliceCICompare/data/repsPoliceCICompare_s-1_p-undefined_s-6568ac32da819028e0decbaa_SESSION_2023-11-30_08h32.37.128.csv","sliderTrial","html-slider-response",18,285690,"0.0-18.0",NA,"656776a7904ae00d6b91d1dd","6568ac32da819028e0decbaa",1,NA,NA,NA,NA,NA,NA,NA,NA,NA,NA,NA,"33057","[""SV_PolicingMSA/CA_2009/IMG_8_2009.jpg"",""SV_PolicingMSA/CA_2009/IMG_9_2009.jpg"",""SV_PolicingMSA/CA_2009/IMG_1_2009.jpg"",""SV_PolicingMSA/CA_2009/IMG_6_2009.jpg"",""SV_PolicingMSA/CA_2009/IMG_5_2009.jpg"",""SV_PolicingMSA/CA_2009/IMG_2_2009.jpg"",""SV_PolicingMSA/CA_2009/IMG_0_2009.jpg"",""SV_PolicingMSA/CA_2009/IMG_3_2009.jpg""]","4",NA,NA,NA,NA,NA,1,NA,4,"[""./rc_img/cop_condGroup_9_CommunitySafety_autoscaled.png"",""./rc_img/cop_condGroup_9_SafeStreets_autoscaled.png""]",4,NA,NA,"CA_2009","CA_2009",1,1,2,4,4,1,2,"CA_2009",1,1,0,1,1,1,"CA_2009",1,NA,NA,NA,NA,NA,NA,"30","male","man","","680910",""
"44","/Users/arajo/Documents/01. Project/repsPoliceCICompare/data/repsPoliceCICompare_s-1_p-undefined_s-6568ac32da819028e0decbaa_SESSION_2023-11-30_08h32.37.128.csv","sliderTrial","html-slider-response",19,289166,"0.0-19.0",NA,"656776a7904ae00d6b91d1dd","6568ac32da819028e0decbaa",1,NA,NA,NA,NA,NA,NA,NA,NA,NA,NA,NA,"3473","[""SV_PolicingMSA/CA_2009/IMG_8_2009.jpg"",""SV_PolicingMSA/CA_2009/IMG_9_2009.jpg"",""SV_PolicingMSA/CA_2009/IMG_1_2009.jpg"",""SV_PolicingMSA/CA_2009/IMG_6_2009.jpg"",""SV_PolicingMSA/CA_2009/IMG_5_2009.jpg"",""SV_PolicingMSA/CA_2009/IMG_2_2009.jpg"",""SV_PolicingMSA/CA_2009/IMG_0_2009.jpg"",""SV_PolicingMSA/CA_2009/IMG_3_2009.jpg""]","4",NA,NA,NA,NA,NA,1,NA,4,"[""./rc_img/cop_condGroup_14_SafeStreets_autoscaled.png"",""./rc_img/cop_condGroup_14_CommunitySafety_autoscaled.png""]",4,NA,NA,"CA_2009","CA_2009",1,1,2,4,4,1,2,"CA_2009",1,1,0,1,1,1,"CA_2009",1,NA,NA,NA,NA,NA,NA,"30","male","man","","680910",""
"45","/Users/arajo/Documents/01. Project/repsPoliceCICompare/data/repsPoliceCICompare_s-1_p-undefined_s-6568ac32da819028e0decbaa_SESSION_2023-11-30_08h32.37.128.csv","sliderTrial_attention","html-slider-response",20,299181,"0.0-20.0",NA,"656776a7904ae00d6b91d1dd","6568ac32da819028e0decbaa",1,NA,NA,NA,NA,NA,NA,NA,NA,NA,NA,NA,"null","[""SV_PolicingMSA/CA_2009/IMG_8_2009.jpg"",""SV_PolicingMSA/CA_2009/IMG_9_2009.jpg"",""SV_PolicingMSA/CA_2009/IMG_1_2009.jpg"",""SV_PolicingMSA/CA_2009/IMG_6_2009.jpg"",""SV_PolicingMSA/CA_2009/IMG_5_2009.jpg"",""SV_PolicingMSA/CA_2009/IMG_2_2009.jpg"",""SV_PolicingMSA/CA_2009/IMG_0_2009.jpg"",""SV_PolicingMSA/CA_2009/IMG_3_2009.jpg""]","null",NA,NA,NA,NA,NA,1,NA,4,"[""./assets/img/attnchk.png"",""./assets/img/attnchk.png""]",NA,TRUE,NA,"CA_2009","CA_2009",1,1,2,4,4,1,2,"CA_2009",1,1,0,1,1,1,"CA_2009",1,NA,NA,NA,NA,NA,NA,"30","male","man","","680910",""
"46","/Users/arajo/Documents/01. Project/repsPoliceCICompare/data/repsPoliceCICompare_s-1_p-undefined_s-6568ac32da819028e0decbaa_SESSION_2023-11-30_08h32.37.128.csv","sliderTrial","html-slider-response",21,340516,"0.0-21.0",NA,"656776a7904ae00d6b91d1dd","6568ac32da819028e0decbaa",1,NA,NA,NA,NA,NA,NA,NA,NA,NA,NA,NA,"41335","[""SV_PolicingMSA/CA_2009/IMG_8_2009.jpg"",""SV_PolicingMSA/CA_2009/IMG_9_2009.jpg"",""SV_PolicingMSA/CA_2009/IMG_1_2009.jpg"",""SV_PolicingMSA/CA_2009/IMG_6_2009.jpg"",""SV_PolicingMSA/CA_2009/IMG_5_2009.jpg"",""SV_PolicingMSA/CA_2009/IMG_2_2009.jpg"",""SV_PolicingMSA/CA_2009/IMG_0_2009.jpg"",""SV_PolicingMSA/CA_2009/IMG_3_2009.jpg""]","4",NA,NA,NA,NA,NA,1,NA,4,"[""./rc_img/cop_condGroup_20_SafeStreets_autoscaled.png"",""./rc_img/cop_condGroup_20_CommunitySafety_autoscaled.png""]",4,NA,NA,"CA_2009","CA_2009",1,1,2,4,4,1,2,"CA_2009",1,1,0,1,1,1,"CA_2009",1,NA,NA,NA,NA,NA,NA,"30","male","man","","680910",""
"47","/Users/arajo/Documents/01. Project/repsPoliceCICompare/data/repsPoliceCICompare_s-1_p-undefined_s-6568ac32da819028e0decbaa_SESSION_2023-11-30_08h32.37.128.csv","sliderTrial","html-slider-response",22,347032,"0.0-22.0",NA,"656776a7904ae00d6b91d1dd","6568ac32da819028e0decbaa",1,NA,NA,NA,NA,NA,NA,NA,NA,NA,NA,NA,"6514","[""SV_PolicingMSA/CA_2009/IMG_8_2009.jpg"",""SV_PolicingMSA/CA_2009/IMG_9_2009.jpg"",""SV_PolicingMSA/CA_2009/IMG_1_2009.jpg"",""SV_PolicingMSA/CA_2009/IMG_6_2009.jpg"",""SV_PolicingMSA/CA_2009/IMG_5_2009.jpg"",""SV_PolicingMSA/CA_2009/IMG_2_2009.jpg"",""SV_PolicingMSA/CA_2009/IMG_0_2009.jpg"",""SV_PolicingMSA/CA_2009/IMG_3_2009.jpg""]","1",NA,NA,NA,NA,NA,1,NA,4,"[""./rc_img/cop_condGroup_1_CommunitySafety_autoscaled.png"",""./rc_img/cop_condGroup_1_SafeStreets_autoscaled.png""]",1,NA,NA,"CA_2009","CA_2009",1,1,2,4,4,1,2,"CA_2009",1,1,0,1,1,1,"CA_2009",1,NA,NA,NA,NA,NA,NA,"30","male","man","","680910",""
"48","/Users/arajo/Documents/01. Project/repsPoliceCICompare/data/repsPoliceCICompare_s-1_p-undefined_s-6568ac32da819028e0decbaa_SESSION_2023-11-30_08h32.37.128.csv","sliderTrial","html-slider-response",23,351005,"0.0-23.0",NA,"656776a7904ae00d6b91d1dd","6568ac32da819028e0decbaa",1,NA,NA,NA,NA,NA,NA,NA,NA,NA,NA,NA,"3971","[""SV_PolicingMSA/CA_2009/IMG_8_2009.jpg"",""SV_PolicingMSA/CA_2009/IMG_9_2009.jpg"",""SV_PolicingMSA/CA_2009/IMG_1_2009.jpg"",""SV_PolicingMSA/CA_2009/IMG_6_2009.jpg"",""SV_PolicingMSA/CA_2009/IMG_5_2009.jpg"",""SV_PolicingMSA/CA_2009/IMG_2_2009.jpg"",""SV_PolicingMSA/CA_2009/IMG_0_2009.jpg"",""SV_PolicingMSA/CA_2009/IMG_3_2009.jpg""]","7",NA,NA,NA,NA,NA,1,NA,4,"[""./rc_img/cop_condGroup_8_SafeStreets_autoscaled.png"",""./rc_img/cop_condGroup_8_CommunitySafety_autoscaled.png""]",1,NA,NA,"CA_2009","CA_2009",1,1,2,4,4,1,2,"CA_2009",1,1,0,1,1,1,"CA_2009",1,NA,NA,NA,NA,NA,NA,"30","male","man","","680910",""
"49","/Users/arajo/Documents/01. Project/repsPoliceCICompare/data/repsPoliceCICompare_s-1_p-undefined_s-6568ac32da819028e0decbaa_SESSION_2023-11-30_08h32.37.128.csv","sliderTrial","html-slider-response",36,700507,"0.0-36.0",NA,"656776a7904ae00d6b91d1dd","6568ac32da819028e0decbaa",1,NA,NA,NA,NA,NA,NA,NA,NA,NA,NA,NA,"7124","[""SV_PolicingMSA/CA_2555/IMG_8_2555.jpg"",""SV_PolicingMSA/CA_2555/IMG_13_2555.jpg"",""SV_PolicingMSA/CA_2555/IMG_3_2555.jpg"",""SV_PolicingMSA/CA_2555/IMG_14_2555.jpg"",""SV_PolicingMSA/CA_2555/IMG_9_2555.jpg"",""SV_PolicingMSA/CA_2555/IMG_6_2555.jpg"",""SV_PolicingMSA/CA_2555/IMG_2_2555.jpg"",""SV_PolicingMSA/CA_2555/IMG_7_2555.jpg""]","1",NA,NA,NA,NA,NA,3,NA,4,"[""./rc_img/cop_condGroup_9_CommunitySafety_autoscaled.png"",""./rc_img/cop_condGroup_9_SafeStreets_autoscaled.png""]",1,NA,NA,"CA_2555","CA_2555",3,3,3,3,2,3,5,"CA_2555",3,1,1,1,3,3,"CA_2555",3,4,1,4,3,3,3,"30","male","man","","680910",""
"50","/Users/arajo/Documents/01. Project/repsPoliceCICompare/data/repsPoliceCICompare_s-1_p-undefined_s-6568ac32da819028e0decbaa_SESSION_2023-11-30_08h32.37.128.csv","sliderTrial","html-slider-response",37,704587,"0.0-37.0",NA,"656776a7904ae00d6b91d1dd","6568ac32da819028e0decbaa",1,NA,NA,NA,NA,NA,NA,NA,NA,NA,NA,NA,"4078","[""SV_PolicingMSA/CA_2555/IMG_8_2555.jpg"",""SV_PolicingMSA/CA_2555/IMG_13_2555.jpg"",""SV_PolicingMSA/CA_2555/IMG_3_2555.jpg"",""SV_PolicingMSA/CA_2555/IMG_14_2555.jpg"",""SV_PolicingMSA/CA_2555/IMG_9_2555.jpg"",""SV_PolicingMSA/CA_2555/IMG_6_2555.jpg"",""SV_PolicingMSA/CA_2555/IMG_2_2555.jpg"",""SV_PolicingMSA/CA_2555/IMG_7_2555.jpg""]","7",NA,NA,NA,NA,NA,3,NA,4,"[""./rc_img/cop_condGroup_14_SafeStreets_autoscaled.png"",""./rc_img/cop_condGroup_14_CommunitySafety_autoscaled.png""]",1,NA,NA,"CA_2555","CA_2555",3,3,3,3,2,3,5,"CA_2555",3,1,1,1,3,3,"CA_2555",3,4,1,4,3,3,3,"30","male","man","","680910",""
"51","/Users/arajo/Documents/01. Project/repsPoliceCICompare/data/repsPoliceCICompare_s-1_p-undefined_s-6568ac32da819028e0decbaa_SESSION_2023-11-30_08h32.37.128.csv","sliderTrial","html-slider-response",38,708283,"0.0-38.0",NA,"656776a7904ae00d6b91d1dd","6568ac32da819028e0decbaa",1,NA,NA,NA,NA,NA,NA,NA,NA,NA,NA,NA,"3693","[""SV_PolicingMSA/CA_2555/IMG_8_2555.jpg"",""SV_PolicingMSA/CA_2555/IMG_13_2555.jpg"",""SV_PolicingMSA/CA_2555/IMG_3_2555.jpg"",""SV_PolicingMSA/CA_2555/IMG_14_2555.jpg"",""SV_PolicingMSA/CA_2555/IMG_9_2555.jpg"",""SV_PolicingMSA/CA_2555/IMG_6_2555.jpg"",""SV_PolicingMSA/CA_2555/IMG_2_2555.jpg"",""SV_PolicingMSA/CA_2555/IMG_7_2555.jpg""]","7",NA,NA,NA,NA,NA,3,NA,4,"[""./rc_img/cop_condGroup_20_SafeStreets_autoscaled.png"",""./rc_img/cop_condGroup_20_CommunitySafety_autoscaled.png""]",1,NA,NA,"CA_2555","CA_2555",3,3,3,3,2,3,5,"CA_2555",3,1,1,1,3,3,"CA_2555",3,4,1,4,3,3,3,"30","male","man","","680910",""
"52","/Users/arajo/Documents/01. Project/repsPoliceCICompare/data/repsPoliceCICompare_s-1_p-undefined_s-6568ac32da819028e0decbaa_SESSION_2023-11-30_08h32.37.128.csv","sliderTrial","html-slider-response",39,716520,"0.0-39.0",NA,"656776a7904ae00d6b91d1dd","6568ac32da819028e0decbaa",1,NA,NA,NA,NA,NA,NA,NA,NA,NA,NA,NA,"8234","[""SV_PolicingMSA/CA_2555/IMG_8_2555.jpg"",""SV_PolicingMSA/CA_2555/IMG_13_2555.jpg"",""SV_PolicingMSA/CA_2555/IMG_3_2555.jpg"",""SV_PolicingMSA/CA_2555/IMG_14_2555.jpg"",""SV_PolicingMSA/CA_2555/IMG_9_2555.jpg"",""SV_PolicingMSA/CA_2555/IMG_6_2555.jpg"",""SV_PolicingMSA/CA_2555/IMG_2_2555.jpg"",""SV_PolicingMSA/CA_2555/IMG_7_2555.jpg""]","1",NA,NA,NA,NA,NA,3,NA,4,"[""./rc_img/cop_condGroup_1_CommunitySafety_autoscaled.png"",""./rc_img/cop_condGroup_1_SafeStreets_autoscaled.png""]",1,NA,NA,"CA_2555","CA_2555",3,3,3,3,2,3,5,"CA_2555",3,1,1,1,3,3,"CA_2555",3,4,1,4,3,3,3,"30","male","man","","680910",""
"53","/Users/arajo/Documents/01. Project/repsPoliceCICompare/data/repsPoliceCICompare_s-1_p-undefined_s-6568ac32da819028e0decbaa_SESSION_2023-11-30_08h32.37.128.csv","sliderTrial","html-slider-response",40,722501,"0.0-40.0",NA,"656776a7904ae00d6b91d1dd","6568ac32da819028e0decbaa",1,NA,NA,NA,NA,NA,NA,NA,NA,NA,NA,NA,"5979","[""SV_PolicingMSA/CA_2555/IMG_8_2555.jpg"",""SV_PolicingMSA/CA_2555/IMG_13_2555.jpg"",""SV_PolicingMSA/CA_2555/IMG_3_2555.jpg"",""SV_PolicingMSA/CA_2555/IMG_14_2555.jpg"",""SV_PolicingMSA/CA_2555/IMG_9_2555.jpg"",""SV_PolicingMSA/CA_2555/IMG_6_2555.jpg"",""SV_PolicingMSA/CA_2555/IMG_2_2555.jpg"",""SV_PolicingMSA/CA_2555/IMG_7_2555.jpg""]","7",NA,NA,NA,NA,NA,3,NA,4,"[""./rc_img/cop_condGroup_8_SafeStreets_autoscaled.png"",""./rc_img/cop_condGroup_8_CommunitySafety_autoscaled.png""]",1,NA,NA,"CA_2555","CA_2555",3,3,3,3,2,3,5,"CA_2555",3,1,1,1,3,3,"CA_2555",3,4,1,4,3,3,3,"30","male","man","","680910",""
"54","/Users/arajo/Documents/01. Project/repsPoliceCICompare/data/repsPoliceCICompare_s-1_p-undefined_s-6568ac32da819028e0decbaa_SESSION_2023-11-30_08h32.37.128.csv","sliderTrial","html-slider-response",53,1240693,"0.0-53.0",NA,"656776a7904ae00d6b91d1dd","6568ac32da819028e0decbaa",1,NA,NA,NA,NA,NA,NA,NA,NA,NA,NA,NA,"4915","[""SV_PolicingMSA/CA_8990/IMG_8_8990.jpg"",""SV_PolicingMSA/CA_8990/IMG_9_8990.jpg"",""SV_PolicingMSA/CA_8990/IMG_13_8990.jpg"",""SV_PolicingMSA/CA_8990/IMG_5_8990.jpg"",""SV_PolicingMSA/CA_8990/IMG_2_8990.jpg"",""SV_PolicingMSA/CA_8990/IMG_14_8990.jpg"",""SV_PolicingMSA/CA_8990/IMG_12_8990.jpg"",""SV_PolicingMSA/CA_8990/IMG_10_8990.jpg""]","7",NA,NA,NA,NA,NA,3,NA,4,"[""./rc_img/cop_condGroup_19_SafeStreets_autoscaled.png"",""./rc_img/cop_condGroup_19_CommunitySafety_autoscaled.png""]",1,NA,NA,"CA_8990","CA_8990",3,1,2,3,3,2,6,"CA_8990",3,1,1,1,2,2,"CA_8990",3,2,2,2,2,2,2,"30","male","man","","680910",""
"55","/Users/arajo/Documents/01. Project/repsPoliceCICompare/data/repsPoliceCICompare_s-1_p-undefined_s-6568ac32da819028e0decbaa_SESSION_2023-11-30_08h32.37.128.csv","sliderTrial","html-slider-response",54,1245938,"0.0-54.0",NA,"656776a7904ae00d6b91d1dd","6568ac32da819028e0decbaa",1,NA,NA,NA,NA,NA,NA,NA,NA,NA,NA,NA,"5243","[""SV_PolicingMSA/CA_8990/IMG_8_8990.jpg"",""SV_PolicingMSA/CA_8990/IMG_9_8990.jpg"",""SV_PolicingMSA/CA_8990/IMG_13_8990.jpg"",""SV_PolicingMSA/CA_8990/IMG_5_8990.jpg"",""SV_PolicingMSA/CA_8990/IMG_2_8990.jpg"",""SV_PolicingMSA/CA_8990/IMG_14_8990.jpg"",""SV_PolicingMSA/CA_8990/IMG_12_8990.jpg"",""SV_PolicingMSA/CA_8990/IMG_10_8990.jpg""]","7",NA,NA,NA,NA,NA,3,NA,4,"[""./rc_img/cop_condGroup_11_SafeStreets_autoscaled.png"",""./rc_img/cop_condGroup_11_CommunitySafety_autoscaled.png""]",1,NA,NA,"CA_8990","CA_8990",3,1,2,3,3,2,6,"CA_8990",3,1,1,1,2,2,"CA_8990",3,2,2,2,2,2,2,"30","male","man","","680910",""
"56","/Users/arajo/Documents/01. Project/repsPoliceCICompare/data/repsPoliceCICompare_s-1_p-undefined_s-6568ac32da819028e0decbaa_SESSION_2023-11-30_08h32.37.128.csv","sliderTrial","html-slider-response",55,1251977,"0.0-55.0",NA,"656776a7904ae00d6b91d1dd","6568ac32da819028e0decbaa",1,NA,NA,NA,NA,NA,NA,NA,NA,NA,NA,NA,"6036","[""SV_PolicingMSA/CA_8990/IMG_8_8990.jpg"",""SV_PolicingMSA/CA_8990/IMG_9_8990.jpg"",""SV_PolicingMSA/CA_8990/IMG_13_8990.jpg"",""SV_PolicingMSA/CA_8990/IMG_5_8990.jpg"",""SV_PolicingMSA/CA_8990/IMG_2_8990.jpg"",""SV_PolicingMSA/CA_8990/IMG_14_8990.jpg"",""SV_PolicingMSA/CA_8990/IMG_12_8990.jpg"",""SV_PolicingMSA/CA_8990/IMG_10_8990.jpg""]","6",NA,NA,NA,NA,NA,3,NA,4,"[""./rc_img/cop_condGroup_17_SafeStreets_autoscaled.png"",""./rc_img/cop_condGroup_17_CommunitySafety_autoscaled.png""]",2,NA,NA,"CA_8990","CA_8990",3,1,2,3,3,2,6,"CA_8990",3,1,1,1,2,2,"CA_8990",3,2,2,2,2,2,2,"30","male","man","","680910",""
"57","/Users/arajo/Documents/01. Project/repsPoliceCICompare/data/repsPoliceCICompare_s-1_p-undefined_s-6568ac32da819028e0decbaa_SESSION_2023-11-30_08h32.37.128.csv","sliderTrial","html-slider-response",56,1256563,"0.0-56.0",NA,"656776a7904ae00d6b91d1dd","6568ac32da819028e0decbaa",1,NA,NA,NA,NA,NA,NA,NA,NA,NA,NA,NA,"4584","[""SV_PolicingMSA/CA_8990/IMG_8_8990.jpg"",""SV_PolicingMSA/CA_8990/IMG_9_8990.jpg"",""SV_PolicingMSA/CA_8990/IMG_13_8990.jpg"",""SV_PolicingMSA/CA_8990/IMG_5_8990.jpg"",""SV_PolicingMSA/CA_8990/IMG_2_8990.jpg"",""SV_PolicingMSA/CA_8990/IMG_14_8990.jpg"",""SV_PolicingMSA/CA_8990/IMG_12_8990.jpg"",""SV_PolicingMSA/CA_8990/IMG_10_8990.jpg""]","1",NA,NA,NA,NA,NA,3,NA,4,"[""./rc_img/cop_condGroup_3_CommunitySafety_autoscaled.png"",""./rc_img/cop_condGroup_3_SafeStreets_autoscaled.png""]",1,NA,NA,"CA_8990","CA_8990",3,1,2,3,3,2,6,"CA_8990",3,1,1,1,2,2,"CA_8990",3,2,2,2,2,2,2,"30","male","man","","680910",""
"58","/Users/arajo/Documents/01. Project/repsPoliceCICompare/data/repsPoliceCICompare_s-1_p-undefined_s-6568ac32da819028e0decbaa_SESSION_2023-11-30_08h32.37.128.csv","sliderTrial","html-slider-response",57,1260911,"0.0-57.0",NA,"656776a7904ae00d6b91d1dd","6568ac32da819028e0decbaa",1,NA,NA,NA,NA,NA,NA,NA,NA,NA,NA,NA,"4345","[""SV_PolicingMSA/CA_8990/IMG_8_8990.jpg"",""SV_PolicingMSA/CA_8990/IMG_9_8990.jpg"",""SV_PolicingMSA/CA_8990/IMG_13_8990.jpg"",""SV_PolicingMSA/CA_8990/IMG_5_8990.jpg"",""SV_PolicingMSA/CA_8990/IMG_2_8990.jpg"",""SV_PolicingMSA/CA_8990/IMG_14_8990.jpg"",""SV_PolicingMSA/CA_8990/IMG_12_8990.jpg"",""SV_PolicingMSA/CA_8990/IMG_10_8990.jpg""]","1",NA,NA,NA,NA,NA,3,NA,4,"[""./rc_img/cop_condGroup_5_CommunitySafety_autoscaled.png"",""./rc_img/cop_condGroup_5_SafeStreets_autoscaled.png""]",1,NA,NA,"CA_8990","CA_8990",3,1,2,3,3,2,6,"CA_8990",3,1,1,1,2,2,"CA_8990",3,2,2,2,2,2,2,"30","male","man","","680910",""
"59","/Users/arajo/Documents/01. Project/repsPoliceCICompare/data/repsPoliceCICompare_s-1_p-undefined_s-6568ac32da819028e0decbaa_SESSION_2023-11-30_08h32.37.128.csv","sliderTrial","html-slider-response",70,1445799,"0.0-70.0",NA,"656776a7904ae00d6b91d1dd","6568ac32da819028e0decbaa",1,NA,NA,NA,NA,NA,NA,NA,NA,NA,NA,NA,"4250","[""SV_PolicingMSA/CA_8565/IMG_3_8565.jpg"",""SV_PolicingMSA/CA_8565/IMG_12_8565.jpg"",""SV_PolicingMSA/CA_8565/IMG_5_8565.jpg"",""SV_PolicingMSA/CA_8565/IMG_7_8565.jpg"",""SV_PolicingMSA/CA_8565/IMG_1_8565.jpg"",""SV_PolicingMSA/CA_8565/IMG_2_8565.jpg"",""SV_PolicingMSA/CA_8565/IMG_8_8565.jpg"",""SV_PolicingMSA/CA_8565/IMG_6_8565.jpg""]","1",NA,NA,NA,NA,NA,4,NA,4,"[""./rc_img/cop_condGroup_12_CommunitySafety_autoscaled.png"",""./rc_img/cop_condGroup_12_SafeStreets_autoscaled.png""]",1,NA,NA,"CA_8565","CA_8565",4,3,3,3,3,3,7,"CA_8565",4,1,1,1,3,3,"CA_8565",4,3,1,3,3,3,3,"30","male","man","","680910",""
"60","/Users/arajo/Documents/01. Project/repsPoliceCICompare/data/repsPoliceCICompare_s-1_p-undefined_s-6568ac32da819028e0decbaa_SESSION_2023-11-30_08h32.37.128.csv","sliderTrial","html-slider-response",71,1449852,"0.0-71.0",NA,"656776a7904ae00d6b91d1dd","6568ac32da819028e0decbaa",1,NA,NA,NA,NA,NA,NA,NA,NA,NA,NA,NA,"4050","[""SV_PolicingMSA/CA_8565/IMG_3_8565.jpg"",""SV_PolicingMSA/CA_8565/IMG_12_8565.jpg"",""SV_PolicingMSA/CA_8565/IMG_5_8565.jpg"",""SV_PolicingMSA/CA_8565/IMG_7_8565.jpg"",""SV_PolicingMSA/CA_8565/IMG_1_8565.jpg"",""SV_PolicingMSA/CA_8565/IMG_2_8565.jpg"",""SV_PolicingMSA/CA_8565/IMG_8_8565.jpg"",""SV_PolicingMSA/CA_8565/IMG_6_8565.jpg""]","7",NA,NA,NA,NA,NA,4,NA,4,"[""./rc_img/cop_condGroup_18_SafeStreets_autoscaled.png"",""./rc_img/cop_condGroup_18_CommunitySafety_autoscaled.png""]",1,NA,NA,"CA_8565","CA_8565",4,3,3,3,3,3,7,"CA_8565",4,1,1,1,3,3,"CA_8565",4,3,1,3,3,3,3,"30","male","man","","680910",""
"61","/Users/arajo/Documents/01. Project/repsPoliceCICompare/data/repsPoliceCICompare_s-1_p-undefined_s-6568ac32da819028e0decbaa_SESSION_2023-11-30_08h32.37.128.csv","sliderTrial","html-slider-response",72,1455286,"0.0-72.0",NA,"656776a7904ae00d6b91d1dd","6568ac32da819028e0decbaa",1,NA,NA,NA,NA,NA,NA,NA,NA,NA,NA,NA,"5431","[""SV_PolicingMSA/CA_8565/IMG_3_8565.jpg"",""SV_PolicingMSA/CA_8565/IMG_12_8565.jpg"",""SV_PolicingMSA/CA_8565/IMG_5_8565.jpg"",""SV_PolicingMSA/CA_8565/IMG_7_8565.jpg"",""SV_PolicingMSA/CA_8565/IMG_1_8565.jpg"",""SV_PolicingMSA/CA_8565/IMG_2_8565.jpg"",""SV_PolicingMSA/CA_8565/IMG_8_8565.jpg"",""SV_PolicingMSA/CA_8565/IMG_6_8565.jpg""]","7",NA,NA,NA,NA,NA,4,NA,4,"[""./rc_img/cop_condGroup_13_SafeStreets_autoscaled.png"",""./rc_img/cop_condGroup_13_CommunitySafety_autoscaled.png""]",1,NA,NA,"CA_8565","CA_8565",4,3,3,3,3,3,7,"CA_8565",4,1,1,1,3,3,"CA_8565",4,3,1,3,3,3,3,"30","male","man","","680910",""
"62","/Users/arajo/Documents/01. Project/repsPoliceCICompare/data/repsPoliceCICompare_s-1_p-undefined_s-6568ac32da819028e0decbaa_SESSION_2023-11-30_08h32.37.128.csv","sliderTrial","html-slider-response",73,1461600,"0.0-73.0",NA,"656776a7904ae00d6b91d1dd","6568ac32da819028e0decbaa",1,NA,NA,NA,NA,NA,NA,NA,NA,NA,NA,NA,"6311","[""SV_PolicingMSA/CA_8565/IMG_3_8565.jpg"",""SV_PolicingMSA/CA_8565/IMG_12_8565.jpg"",""SV_PolicingMSA/CA_8565/IMG_5_8565.jpg"",""SV_PolicingMSA/CA_8565/IMG_7_8565.jpg"",""SV_PolicingMSA/CA_8565/IMG_1_8565.jpg"",""SV_PolicingMSA/CA_8565/IMG_2_8565.jpg"",""SV_PolicingMSA/CA_8565/IMG_8_8565.jpg"",""SV_PolicingMSA/CA_8565/IMG_6_8565.jpg""]","7",NA,NA,NA,NA,NA,4,NA,4,"[""./rc_img/cop_condGroup_7_SafeStreets_autoscaled.png"",""./rc_img/cop_condGroup_7_CommunitySafety_autoscaled.png""]",1,NA,NA,"CA_8565","CA_8565",4,3,3,3,3,3,7,"CA_8565",4,1,1,1,3,3,"CA_8565",4,3,1,3,3,3,3,"30","male","man","","680910",""
"63","/Users/arajo/Documents/01. Project/repsPoliceCICompare/data/repsPoliceCICompare_s-1_p-undefined_s-6568ac32da819028e0decbaa_SESSION_2023-11-30_08h32.37.128.csv","sliderTrial","html-slider-response",74,1465468,"0.0-74.0",NA,"656776a7904ae00d6b91d1dd","6568ac32da819028e0decbaa",1,NA,NA,NA,NA,NA,NA,NA,NA,NA,NA,NA,"3866","[""SV_PolicingMSA/CA_8565/IMG_3_8565.jpg"",""SV_PolicingMSA/CA_8565/IMG_12_8565.jpg"",""SV_PolicingMSA/CA_8565/IMG_5_8565.jpg"",""SV_PolicingMSA/CA_8565/IMG_7_8565.jpg"",""SV_PolicingMSA/CA_8565/IMG_1_8565.jpg"",""SV_PolicingMSA/CA_8565/IMG_2_8565.jpg"",""SV_PolicingMSA/CA_8565/IMG_8_8565.jpg"",""SV_PolicingMSA/CA_8565/IMG_6_8565.jpg""]","1",NA,NA,NA,NA,NA,4,NA,4,"[""./rc_img/cop_condGroup_16_CommunitySafety_autoscaled.png"",""./rc_img/cop_condGroup_16_SafeStreets_autoscaled.png""]",1,NA,NA,"CA_8565","CA_8565",4,3,3,3,3,3,7,"CA_8565",4,1,1,1,3,3,"CA_8565",4,3,1,3,3,3,3,"30","male","man","","680910",""
"64","/Users/arajo/Documents/01. Project/repsPoliceCICompare/data/repsPoliceCICompare_s-1_p-undefined_s-6568ac32da819028e0decbaa_SESSION_2023-11-30_08h32.37.128.csv","sliderTrial","html-slider-response",88,1695459,"0.0-88.0",NA,"656776a7904ae00d6b91d1dd","6568ac32da819028e0decbaa",1,NA,NA,NA,NA,NA,NA,NA,NA,NA,NA,NA,"7153","[""SV_PolicingMSA/CA_2534/IMG_14_2534.jpg"",""SV_PolicingMSA/CA_2534/IMG_5_2534.jpg"",""SV_PolicingMSA/CA_2534/IMG_1_2534.jpg"",""SV_PolicingMSA/CA_2534/IMG_11_2534.jpg"",""SV_PolicingMSA/CA_2534/IMG_8_2534.jpg"",""SV_PolicingMSA/CA_2534/IMG_10_2534.jpg"",""SV_PolicingMSA/CA_2534/IMG_4_2534.jpg"",""SV_PolicingMSA/CA_2534/IMG_6_2534.jpg""]","7",NA,NA,NA,NA,NA,0,NA,4,"[""./rc_img/cop_condGroup_10_SafeStreets_autoscaled.png"",""./rc_img/cop_condGroup_10_CommunitySafety_autoscaled.png""]",1,NA,NA,"CA_2534","CA_2534",0,2,2,2,2,2,1,"CA_2534",0,1,1,1,3,3,"CA_2534",0,3,1,3,3,3,3,"30","male","man","","680910",""
"65","/Users/arajo/Documents/01. Project/repsPoliceCICompare/data/repsPoliceCICompare_s-1_p-undefined_s-6568ac32da819028e0decbaa_SESSION_2023-11-30_08h32.37.128.csv","sliderTrial","html-slider-response",89,1700424,"0.0-89.0",NA,"656776a7904ae00d6b91d1dd","6568ac32da819028e0decbaa",1,NA,NA,NA,NA,NA,NA,NA,NA,NA,NA,NA,"4963","[""SV_PolicingMSA/CA_2534/IMG_14_2534.jpg"",""SV_PolicingMSA/CA_2534/IMG_5_2534.jpg"",""SV_PolicingMSA/CA_2534/IMG_1_2534.jpg"",""SV_PolicingMSA/CA_2534/IMG_11_2534.jpg"",""SV_PolicingMSA/CA_2534/IMG_8_2534.jpg"",""SV_PolicingMSA/CA_2534/IMG_10_2534.jpg"",""SV_PolicingMSA/CA_2534/IMG_4_2534.jpg"",""SV_PolicingMSA/CA_2534/IMG_6_2534.jpg""]","1",NA,NA,NA,NA,NA,0,NA,4,"[""./rc_img/cop_condGroup_4_CommunitySafety_autoscaled.png"",""./rc_img/cop_condGroup_4_SafeStreets_autoscaled.png""]",1,NA,NA,"CA_2534","CA_2534",0,2,2,2,2,2,1,"CA_2534",0,1,1,1,3,3,"CA_2534",0,3,1,3,3,3,3,"30","male","man","","680910",""
"66","/Users/arajo/Documents/01. Project/repsPoliceCICompare/data/repsPoliceCICompare_s-1_p-undefined_s-6568ac32da819028e0decbaa_SESSION_2023-11-30_08h32.37.128.csv","sliderTrial","html-slider-response",90,1704475,"0.0-90.0",NA,"656776a7904ae00d6b91d1dd","6568ac32da819028e0decbaa",1,NA,NA,NA,NA,NA,NA,NA,NA,NA,NA,NA,"4049","[""SV_PolicingMSA/CA_2534/IMG_14_2534.jpg"",""SV_PolicingMSA/CA_2534/IMG_5_2534.jpg"",""SV_PolicingMSA/CA_2534/IMG_1_2534.jpg"",""SV_PolicingMSA/CA_2534/IMG_11_2534.jpg"",""SV_PolicingMSA/CA_2534/IMG_8_2534.jpg"",""SV_PolicingMSA/CA_2534/IMG_10_2534.jpg"",""SV_PolicingMSA/CA_2534/IMG_4_2534.jpg"",""SV_PolicingMSA/CA_2534/IMG_6_2534.jpg""]","1",NA,NA,NA,NA,NA,0,NA,4,"[""./rc_img/cop_condGroup_2_CommunitySafety_autoscaled.png"",""./rc_img/cop_condGroup_2_SafeStreets_autoscaled.png""]",1,NA,NA,"CA_2534","CA_2534",0,2,2,2,2,2,1,"CA_2534",0,1,1,1,3,3,"CA_2534",0,3,1,3,3,3,3,"30","male","man","","680910",""
"67","/Users/arajo/Documents/01. Project/repsPoliceCICompare/data/repsPoliceCICompare_s-1_p-undefined_s-6568ac32da819028e0decbaa_SESSION_2023-11-30_08h32.37.128.csv","sliderTrial","html-slider-response",91,1711515,"0.0-91.0",NA,"656776a7904ae00d6b91d1dd","6568ac32da819028e0decbaa",1,NA,NA,NA,NA,NA,NA,NA,NA,NA,NA,NA,"7037","[""SV_PolicingMSA/CA_2534/IMG_14_2534.jpg"",""SV_PolicingMSA/CA_2534/IMG_5_2534.jpg"",""SV_PolicingMSA/CA_2534/IMG_1_2534.jpg"",""SV_PolicingMSA/CA_2534/IMG_11_2534.jpg"",""SV_PolicingMSA/CA_2534/IMG_8_2534.jpg"",""SV_PolicingMSA/CA_2534/IMG_10_2534.jpg"",""SV_PolicingMSA/CA_2534/IMG_4_2534.jpg"",""SV_PolicingMSA/CA_2534/IMG_6_2534.jpg""]","7",NA,NA,NA,NA,NA,0,NA,4,"[""./rc_img/cop_condGroup_6_SafeStreets_autoscaled.png"",""./rc_img/cop_condGroup_6_CommunitySafety_autoscaled.png""]",1,NA,NA,"CA_2534","CA_2534",0,2,2,2,2,2,1,"CA_2534",0,1,1,1,3,3,"CA_2534",0,3,1,3,3,3,3,"30","male","man","","680910",""
"68","/Users/arajo/Documents/01. Project/repsPoliceCICompare/data/repsPoliceCICompare_s-1_p-undefined_s-6568ac32da819028e0decbaa_SESSION_2023-11-30_08h32.37.128.csv","sliderTrial_attention","html-slider-response",92,1721524,"0.0-92.0",NA,"656776a7904ae00d6b91d1dd","6568ac32da819028e0decbaa",1,NA,NA,NA,NA,NA,NA,NA,NA,NA,NA,NA,"null","[""SV_PolicingMSA/CA_2534/IMG_14_2534.jpg"",""SV_PolicingMSA/CA_2534/IMG_5_2534.jpg"",""SV_PolicingMSA/CA_2534/IMG_1_2534.jpg"",""SV_PolicingMSA/CA_2534/IMG_11_2534.jpg"",""SV_PolicingMSA/CA_2534/IMG_8_2534.jpg"",""SV_PolicingMSA/CA_2534/IMG_10_2534.jpg"",""SV_PolicingMSA/CA_2534/IMG_4_2534.jpg"",""SV_PolicingMSA/CA_2534/IMG_6_2534.jpg""]","null",NA,NA,NA,NA,NA,0,NA,4,"[""./assets/img/attnchk.png"",""./assets/img/attnchk.png""]",NA,TRUE,NA,"CA_2534","CA_2534",0,2,2,2,2,2,1,"CA_2534",0,1,1,1,3,3,"CA_2534",0,3,1,3,3,3,3,"30","male","man","","680910",""
"69","/Users/arajo/Documents/01. Project/repsPoliceCICompare/data/repsPoliceCICompare_s-1_p-undefined_s-6568ac32da819028e0decbaa_SESSION_2023-11-30_08h32.37.128.csv","sliderTrial","html-slider-response",93,1730940,"0.0-93.0",NA,"656776a7904ae00d6b91d1dd","6568ac32da819028e0decbaa",1,NA,NA,NA,NA,NA,NA,NA,NA,NA,NA,NA,"9414","[""SV_PolicingMSA/CA_2534/IMG_14_2534.jpg"",""SV_PolicingMSA/CA_2534/IMG_5_2534.jpg"",""SV_PolicingMSA/CA_2534/IMG_1_2534.jpg"",""SV_PolicingMSA/CA_2534/IMG_11_2534.jpg"",""SV_PolicingMSA/CA_2534/IMG_8_2534.jpg"",""SV_PolicingMSA/CA_2534/IMG_10_2534.jpg"",""SV_PolicingMSA/CA_2534/IMG_4_2534.jpg"",""SV_PolicingMSA/CA_2534/IMG_6_2534.jpg""]","7",NA,NA,NA,NA,NA,0,NA,4,"[""./rc_img/cop_condGroup_15_SafeStreets_autoscaled.png"",""./rc_img/cop_condGroup_15_CommunitySafety_autoscaled.png""]",1,NA,NA,"CA_2534","CA_2534",0,2,2,2,2,2,1,"CA_2534",0,1,1,1,3,3,"CA_2534",0,3,1,3,3,3,3,"30","male","man","","680910",""
"70","/Users/arajo/Documents/01. Project/repsPoliceCICompare/data/repsPoliceCICompare_s-1_p-undefined_s-6568ac32da819028e0decbaa_SESSION_2023-11-30_08h32.37.128.csv","sliderTrial","html-slider-response",106,2036127,"0.0-106.0",NA,"656776a7904ae00d6b91d1dd","6568ac32da819028e0decbaa",1,NA,NA,NA,NA,NA,NA,NA,NA,NA,NA,NA,"10237","[""SV_PolicingMSA/CA_2537/IMG_10_2537.jpg"",""SV_PolicingMSA/CA_2537/IMG_4_2537.jpg"",""SV_PolicingMSA/CA_2537/IMG_9_2537.jpg"",""SV_PolicingMSA/CA_2537/IMG_8_2537.jpg"",""SV_PolicingMSA/CA_2537/IMG_6_2537.jpg"",""SV_PolicingMSA/CA_2537/IMG_7_2537.jpg"",""SV_PolicingMSA/CA_2537/IMG_12_2537.jpg"",""SV_PolicingMSA/CA_2537/IMG_2_2537.jpg""]","7",NA,NA,NA,NA,NA,2,NA,4,"[""./rc_img/cop_condGroup_10_SafeStreets_autoscaled.png"",""./rc_img/cop_condGroup_10_CommunitySafety_autoscaled.png""]",1,NA,NA,"CA_2537","CA_2537",2,2,2,2,2,2,3,"CA_2537",2,1,1,1,2,2,"CA_2537",2,2,1,2,2,2,2,"30","male","man","","680910",""
"71","/Users/arajo/Documents/01. Project/repsPoliceCICompare/data/repsPoliceCICompare_s-1_p-undefined_s-6568ac32da819028e0decbaa_SESSION_2023-11-30_08h32.37.128.csv","sliderTrial","html-slider-response",107,2041596,"0.0-107.0",NA,"656776a7904ae00d6b91d1dd","6568ac32da819028e0decbaa",1,NA,NA,NA,NA,NA,NA,NA,NA,NA,NA,NA,"5467","[""SV_PolicingMSA/CA_2537/IMG_10_2537.jpg"",""SV_PolicingMSA/CA_2537/IMG_4_2537.jpg"",""SV_PolicingMSA/CA_2537/IMG_9_2537.jpg"",""SV_PolicingMSA/CA_2537/IMG_8_2537.jpg"",""SV_PolicingMSA/CA_2537/IMG_6_2537.jpg"",""SV_PolicingMSA/CA_2537/IMG_7_2537.jpg"",""SV_PolicingMSA/CA_2537/IMG_12_2537.jpg"",""SV_PolicingMSA/CA_2537/IMG_2_2537.jpg""]","1",NA,NA,NA,NA,NA,2,NA,4,"[""./rc_img/cop_condGroup_4_CommunitySafety_autoscaled.png"",""./rc_img/cop_condGroup_4_SafeStreets_autoscaled.png""]",1,NA,NA,"CA_2537","CA_2537",2,2,2,2,2,2,3,"CA_2537",2,1,1,1,2,2,"CA_2537",2,2,1,2,2,2,2,"30","male","man","","680910",""
"72","/Users/arajo/Documents/01. Project/repsPoliceCICompare/data/repsPoliceCICompare_s-1_p-undefined_s-6568ac32da819028e0decbaa_SESSION_2023-11-30_08h32.37.128.csv","sliderTrial","html-slider-response",108,2046159,"0.0-108.0",NA,"656776a7904ae00d6b91d1dd","6568ac32da819028e0decbaa",1,NA,NA,NA,NA,NA,NA,NA,NA,NA,NA,NA,"4561","[""SV_PolicingMSA/CA_2537/IMG_10_2537.jpg"",""SV_PolicingMSA/CA_2537/IMG_4_2537.jpg"",""SV_PolicingMSA/CA_2537/IMG_9_2537.jpg"",""SV_PolicingMSA/CA_2537/IMG_8_2537.jpg"",""SV_PolicingMSA/CA_2537/IMG_6_2537.jpg"",""SV_PolicingMSA/CA_2537/IMG_7_2537.jpg"",""SV_PolicingMSA/CA_2537/IMG_12_2537.jpg"",""SV_PolicingMSA/CA_2537/IMG_2_2537.jpg""]","1",NA,NA,NA,NA,NA,2,NA,4,"[""./rc_img/cop_condGroup_2_CommunitySafety_autoscaled.png"",""./rc_img/cop_condGroup_2_SafeStreets_autoscaled.png""]",1,NA,NA,"CA_2537","CA_2537",2,2,2,2,2,2,3,"CA_2537",2,1,1,1,2,2,"CA_2537",2,2,1,2,2,2,2,"30","male","man","","680910",""
"73","/Users/arajo/Documents/01. Project/repsPoliceCICompare/data/repsPoliceCICompare_s-1_p-undefined_s-6568ac32da819028e0decbaa_SESSION_2023-11-30_08h32.37.128.csv","sliderTrial","html-slider-response",109,2049689,"0.0-109.0",NA,"656776a7904ae00d6b91d1dd","6568ac32da819028e0decbaa",1,NA,NA,NA,NA,NA,NA,NA,NA,NA,NA,NA,"3528","[""SV_PolicingMSA/CA_2537/IMG_10_2537.jpg"",""SV_PolicingMSA/CA_2537/IMG_4_2537.jpg"",""SV_PolicingMSA/CA_2537/IMG_9_2537.jpg"",""SV_PolicingMSA/CA_2537/IMG_8_2537.jpg"",""SV_PolicingMSA/CA_2537/IMG_6_2537.jpg"",""SV_PolicingMSA/CA_2537/IMG_7_2537.jpg"",""SV_PolicingMSA/CA_2537/IMG_12_2537.jpg"",""SV_PolicingMSA/CA_2537/IMG_2_2537.jpg""]","7",NA,NA,NA,NA,NA,2,NA,4,"[""./rc_img/cop_condGroup_6_SafeStreets_autoscaled.png"",""./rc_img/cop_condGroup_6_CommunitySafety_autoscaled.png""]",1,NA,NA,"CA_2537","CA_2537",2,2,2,2,2,2,3,"CA_2537",2,1,1,1,2,2,"CA_2537",2,2,1,2,2,2,2,"30","male","man","","680910",""
"74","/Users/arajo/Documents/01. Project/repsPoliceCICompare/data/repsPoliceCICompare_s-1_p-undefined_s-6568ac32da819028e0decbaa_SESSION_2023-11-30_08h32.37.128.csv","sliderTrial","html-slider-response",110,2055411,"0.0-110.0",NA,"656776a7904ae00d6b91d1dd","6568ac32da819028e0decbaa",1,NA,NA,NA,NA,NA,NA,NA,NA,NA,NA,NA,"5720","[""SV_PolicingMSA/CA_2537/IMG_10_2537.jpg"",""SV_PolicingMSA/CA_2537/IMG_4_2537.jpg"",""SV_PolicingMSA/CA_2537/IMG_9_2537.jpg"",""SV_PolicingMSA/CA_2537/IMG_8_2537.jpg"",""SV_PolicingMSA/CA_2537/IMG_6_2537.jpg"",""SV_PolicingMSA/CA_2537/IMG_7_2537.jpg"",""SV_PolicingMSA/CA_2537/IMG_12_2537.jpg"",""SV_PolicingMSA/CA_2537/IMG_2_2537.jpg""]","1",NA,NA,NA,NA,NA,2,NA,4,"[""./rc_img/cop_condGroup_15_SafeStreets_autoscaled.png"",""./rc_img/cop_condGroup_15_CommunitySafety_autoscaled.png""]",7,NA,NA,"CA_2537","CA_2537",2,2,2,2,2,2,3,"CA_2537",2,1,1,1,2,2,"CA_2537",2,2,1,2,2,2,2,"30","male","man","","680910",""
"75","/Users/arajo/Documents/01. Project/repsPoliceCICompare/data/repsPoliceCICompare_s-1_p-undefined_s-6568ac32da819028e0decbaa_SESSION_2023-11-30_08h32.37.128.csv","sliderTrial","html-slider-response",123,2309769,"0.0-123.0",NA,"656776a7904ae00d6b91d1dd","6568ac32da819028e0decbaa",1,NA,NA,NA,NA,NA,NA,NA,NA,NA,NA,NA,"6073","[""SV_PolicingMSA/CA_5098/IMG_5_5098.jpg"",""SV_PolicingMSA/CA_5098/IMG_2_5098.jpg"",""SV_PolicingMSA/CA_5098/IMG_0_5098.jpg"",""SV_PolicingMSA/CA_5098/IMG_14_5098.jpg"",""SV_PolicingMSA/CA_5098/IMG_7_5098.jpg"",""SV_PolicingMSA/CA_5098/IMG_4_5098.jpg"",""SV_PolicingMSA/CA_5098/IMG_11_5098.jpg"",""SV_PolicingMSA/CA_5098/IMG_13_5098.jpg""]","7",NA,NA,NA,NA,NA,5,NA,4,"[""./rc_img/cop_condGroup_19_SafeStreets_autoscaled.png"",""./rc_img/cop_condGroup_19_CommunitySafety_autoscaled.png""]",1,NA,NA,"CA_5098","CA_5098",5,3,3,3,3,2,8,"CA_5098",5,1,1,1,2,2,"CA_5098",5,2,1,2,2,2,2,"30","male","man","","680910",""
"76","/Users/arajo/Documents/01. Project/repsPoliceCICompare/data/repsPoliceCICompare_s-1_p-undefined_s-6568ac32da819028e0decbaa_SESSION_2023-11-30_08h32.37.128.csv","sliderTrial","html-slider-response",124,2312966,"0.0-124.0",NA,"656776a7904ae00d6b91d1dd","6568ac32da819028e0decbaa",1,NA,NA,NA,NA,NA,NA,NA,NA,NA,NA,NA,"3195","[""SV_PolicingMSA/CA_5098/IMG_5_5098.jpg"",""SV_PolicingMSA/CA_5098/IMG_2_5098.jpg"",""SV_PolicingMSA/CA_5098/IMG_0_5098.jpg"",""SV_PolicingMSA/CA_5098/IMG_14_5098.jpg"",""SV_PolicingMSA/CA_5098/IMG_7_5098.jpg"",""SV_PolicingMSA/CA_5098/IMG_4_5098.jpg"",""SV_PolicingMSA/CA_5098/IMG_11_5098.jpg"",""SV_PolicingMSA/CA_5098/IMG_13_5098.jpg""]","7",NA,NA,NA,NA,NA,5,NA,4,"[""./rc_img/cop_condGroup_11_SafeStreets_autoscaled.png"",""./rc_img/cop_condGroup_11_CommunitySafety_autoscaled.png""]",1,NA,NA,"CA_5098","CA_5098",5,3,3,3,3,2,8,"CA_5098",5,1,1,1,2,2,"CA_5098",5,2,1,2,2,2,2,"30","male","man","","680910",""
"77","/Users/arajo/Documents/01. Project/repsPoliceCICompare/data/repsPoliceCICompare_s-1_p-undefined_s-6568ac32da819028e0decbaa_SESSION_2023-11-30_08h32.37.128.csv","sliderTrial","html-slider-response",125,2316204,"0.0-125.0",NA,"656776a7904ae00d6b91d1dd","6568ac32da819028e0decbaa",1,NA,NA,NA,NA,NA,NA,NA,NA,NA,NA,NA,"3236","[""SV_PolicingMSA/CA_5098/IMG_5_5098.jpg"",""SV_PolicingMSA/CA_5098/IMG_2_5098.jpg"",""SV_PolicingMSA/CA_5098/IMG_0_5098.jpg"",""SV_PolicingMSA/CA_5098/IMG_14_5098.jpg"",""SV_PolicingMSA/CA_5098/IMG_7_5098.jpg"",""SV_PolicingMSA/CA_5098/IMG_4_5098.jpg"",""SV_PolicingMSA/CA_5098/IMG_11_5098.jpg"",""SV_PolicingMSA/CA_5098/IMG_13_5098.jpg""]","7",NA,NA,NA,NA,NA,5,NA,4,"[""./rc_img/cop_condGroup_17_SafeStreets_autoscaled.png"",""./rc_img/cop_condGroup_17_CommunitySafety_autoscaled.png""]",1,NA,NA,"CA_5098","CA_5098",5,3,3,3,3,2,8,"CA_5098",5,1,1,1,2,2,"CA_5098",5,2,1,2,2,2,2,"30","male","man","","680910",""
"78","/Users/arajo/Documents/01. Project/repsPoliceCICompare/data/repsPoliceCICompare_s-1_p-undefined_s-6568ac32da819028e0decbaa_SESSION_2023-11-30_08h32.37.128.csv","sliderTrial","html-slider-response",126,2319766,"0.0-126.0",NA,"656776a7904ae00d6b91d1dd","6568ac32da819028e0decbaa",1,NA,NA,NA,NA,NA,NA,NA,NA,NA,NA,NA,"3559","[""SV_PolicingMSA/CA_5098/IMG_5_5098.jpg"",""SV_PolicingMSA/CA_5098/IMG_2_5098.jpg"",""SV_PolicingMSA/CA_5098/IMG_0_5098.jpg"",""SV_PolicingMSA/CA_5098/IMG_14_5098.jpg"",""SV_PolicingMSA/CA_5098/IMG_7_5098.jpg"",""SV_PolicingMSA/CA_5098/IMG_4_5098.jpg"",""SV_PolicingMSA/CA_5098/IMG_11_5098.jpg"",""SV_PolicingMSA/CA_5098/IMG_13_5098.jpg""]","1",NA,NA,NA,NA,NA,5,NA,4,"[""./rc_img/cop_condGroup_3_CommunitySafety_autoscaled.png"",""./rc_img/cop_condGroup_3_SafeStreets_autoscaled.png""]",1,NA,NA,"CA_5098","CA_5098",5,3,3,3,3,2,8,"CA_5098",5,1,1,1,2,2,"CA_5098",5,2,1,2,2,2,2,"30","male","man","","680910",""
"79","/Users/arajo/Documents/01. Project/repsPoliceCICompare/data/repsPoliceCICompare_s-1_p-undefined_s-6568ac32da819028e0decbaa_SESSION_2023-11-30_08h32.37.128.csv","sliderTrial","html-slider-response",127,2323583,"0.0-127.0",NA,"656776a7904ae00d6b91d1dd","6568ac32da819028e0decbaa",1,NA,NA,NA,NA,NA,NA,NA,NA,NA,NA,NA,"3815","[""SV_PolicingMSA/CA_5098/IMG_5_5098.jpg"",""SV_PolicingMSA/CA_5098/IMG_2_5098.jpg"",""SV_PolicingMSA/CA_5098/IMG_0_5098.jpg"",""SV_PolicingMSA/CA_5098/IMG_14_5098.jpg"",""SV_PolicingMSA/CA_5098/IMG_7_5098.jpg"",""SV_PolicingMSA/CA_5098/IMG_4_5098.jpg"",""SV_PolicingMSA/CA_5098/IMG_11_5098.jpg"",""SV_PolicingMSA/CA_5098/IMG_13_5098.jpg""]","1",NA,NA,NA,NA,NA,5,NA,4,"[""./rc_img/cop_condGroup_5_CommunitySafety_autoscaled.png"",""./rc_img/cop_condGroup_5_SafeStreets_autoscaled.png""]",1,NA,NA,"CA_5098","CA_5098",5,3,3,3,3,2,8,"CA_5098",5,1,1,1,2,2,"CA_5098",5,2,1,2,2,2,2,"30","male","man","","680910",""
"80","/Users/arajo/Documents/01. Project/repsPoliceCICompare/data/repsPoliceCICompare_s-1_p-undefined_s-6568ac32da819028e0decbaa_SESSION_2023-11-30_08h32.37.128.csv","sliderTrial","html-slider-response",140,3102254,"0.0-140.0",NA,"656776a7904ae00d6b91d1dd","6568ac32da819028e0decbaa",1,NA,NA,NA,NA,NA,NA,NA,NA,NA,NA,NA,"3910","[""SV_PolicingMSA/CA_2011/IMG_0_2011.jpg"",""SV_PolicingMSA/CA_2011/IMG_1_2011.jpg"",""SV_PolicingMSA/CA_2011/IMG_6_2011.jpg"",""SV_PolicingMSA/CA_2011/IMG_14_2011.jpg"",""SV_PolicingMSA/CA_2011/IMG_9_2011.jpg"",""SV_PolicingMSA/CA_2011/IMG_13_2011.jpg"",""SV_PolicingMSA/CA_2011/IMG_11_2011.jpg"",""SV_PolicingMSA/CA_2011/IMG_5_2011.jpg""]","1",NA,NA,NA,NA,NA,2,NA,4,"[""./rc_img/cop_condGroup_12_CommunitySafety_autoscaled.png"",""./rc_img/cop_condGroup_12_SafeStreets_autoscaled.png""]",1,NA,NA,"CA_2011","CA_2011",2,2,2,2,2,2,4,"CA_2011",2,1,1,1,2,2,"CA_2011",2,3,1,2,2,2,2,"30","male","man","","680910",""
"81","/Users/arajo/Documents/01. Project/repsPoliceCICompare/data/repsPoliceCICompare_s-1_p-undefined_s-6568ac32da819028e0decbaa_SESSION_2023-11-30_08h32.37.128.csv","sliderTrial","html-slider-response",141,3106650,"0.0-141.0",NA,"656776a7904ae00d6b91d1dd","6568ac32da819028e0decbaa",1,NA,NA,NA,NA,NA,NA,NA,NA,NA,NA,NA,"4395","[""SV_PolicingMSA/CA_2011/IMG_0_2011.jpg"",""SV_PolicingMSA/CA_2011/IMG_1_2011.jpg"",""SV_PolicingMSA/CA_2011/IMG_6_2011.jpg"",""SV_PolicingMSA/CA_2011/IMG_14_2011.jpg"",""SV_PolicingMSA/CA_2011/IMG_9_2011.jpg"",""SV_PolicingMSA/CA_2011/IMG_13_2011.jpg"",""SV_PolicingMSA/CA_2011/IMG_11_2011.jpg"",""SV_PolicingMSA/CA_2011/IMG_5_2011.jpg""]","4",NA,NA,NA,NA,NA,2,NA,4,"[""./rc_img/cop_condGroup_18_SafeStreets_autoscaled.png"",""./rc_img/cop_condGroup_18_CommunitySafety_autoscaled.png""]",4,NA,NA,"CA_2011","CA_2011",2,2,2,2,2,2,4,"CA_2011",2,1,1,1,2,2,"CA_2011",2,3,1,2,2,2,2,"30","male","man","","680910",""
"82","/Users/arajo/Documents/01. Project/repsPoliceCICompare/data/repsPoliceCICompare_s-1_p-undefined_s-6568ac32da819028e0decbaa_SESSION_2023-11-30_08h32.37.128.csv","sliderTrial","html-slider-response",142,3109533,"0.0-142.0",NA,"656776a7904ae00d6b91d1dd","6568ac32da819028e0decbaa",1,NA,NA,NA,NA,NA,NA,NA,NA,NA,NA,NA,"2880","[""SV_PolicingMSA/CA_2011/IMG_0_2011.jpg"",""SV_PolicingMSA/CA_2011/IMG_1_2011.jpg"",""SV_PolicingMSA/CA_2011/IMG_6_2011.jpg"",""SV_PolicingMSA/CA_2011/IMG_14_2011.jpg"",""SV_PolicingMSA/CA_2011/IMG_9_2011.jpg"",""SV_PolicingMSA/CA_2011/IMG_13_2011.jpg"",""SV_PolicingMSA/CA_2011/IMG_11_2011.jpg"",""SV_PolicingMSA/CA_2011/IMG_5_2011.jpg""]","6",NA,NA,NA,NA,NA,2,NA,4,"[""./rc_img/cop_condGroup_13_SafeStreets_autoscaled.png"",""./rc_img/cop_condGroup_13_CommunitySafety_autoscaled.png""]",2,NA,NA,"CA_2011","CA_2011",2,2,2,2,2,2,4,"CA_2011",2,1,1,1,2,2,"CA_2011",2,3,1,2,2,2,2,"30","male","man","","680910",""
"83","/Users/arajo/Documents/01. Project/repsPoliceCICompare/data/repsPoliceCICompare_s-1_p-undefined_s-6568ac32da819028e0decbaa_SESSION_2023-11-30_08h32.37.128.csv","sliderTrial","html-slider-response",143,3113418,"0.0-143.0",NA,"656776a7904ae00d6b91d1dd","6568ac32da819028e0decbaa",1,NA,NA,NA,NA,NA,NA,NA,NA,NA,NA,NA,"3883","[""SV_PolicingMSA/CA_2011/IMG_0_2011.jpg"",""SV_PolicingMSA/CA_2011/IMG_1_2011.jpg"",""SV_PolicingMSA/CA_2011/IMG_6_2011.jpg"",""SV_PolicingMSA/CA_2011/IMG_14_2011.jpg"",""SV_PolicingMSA/CA_2011/IMG_9_2011.jpg"",""SV_PolicingMSA/CA_2011/IMG_13_2011.jpg"",""SV_PolicingMSA/CA_2011/IMG_11_2011.jpg"",""SV_PolicingMSA/CA_2011/IMG_5_2011.jpg""]","7",NA,NA,NA,NA,NA,2,NA,4,"[""./rc_img/cop_condGroup_7_SafeStreets_autoscaled.png"",""./rc_img/cop_condGroup_7_CommunitySafety_autoscaled.png""]",1,NA,NA,"CA_2011","CA_2011",2,2,2,2,2,2,4,"CA_2011",2,1,1,1,2,2,"CA_2011",2,3,1,2,2,2,2,"30","male","man","","680910",""
"84","/Users/arajo/Documents/01. Project/repsPoliceCICompare/data/repsPoliceCICompare_s-1_p-undefined_s-6568ac32da819028e0decbaa_SESSION_2023-11-30_08h32.37.128.csv","sliderTrial","html-slider-response",144,3117416,"0.0-144.0",NA,"656776a7904ae00d6b91d1dd","6568ac32da819028e0decbaa",1,NA,NA,NA,NA,NA,NA,NA,NA,NA,NA,NA,"3996","[""SV_PolicingMSA/CA_2011/IMG_0_2011.jpg"",""SV_PolicingMSA/CA_2011/IMG_1_2011.jpg"",""SV_PolicingMSA/CA_2011/IMG_6_2011.jpg"",""SV_PolicingMSA/CA_2011/IMG_14_2011.jpg"",""SV_PolicingMSA/CA_2011/IMG_9_2011.jpg"",""SV_PolicingMSA/CA_2011/IMG_13_2011.jpg"",""SV_PolicingMSA/CA_2011/IMG_11_2011.jpg"",""SV_PolicingMSA/CA_2011/IMG_5_2011.jpg""]","2",NA,NA,NA,NA,NA,2,NA,4,"[""./rc_img/cop_condGroup_16_CommunitySafety_autoscaled.png"",""./rc_img/cop_condGroup_16_SafeStreets_autoscaled.png""]",2,NA,NA,"CA_2011","CA_2011",2,2,2,2,2,2,4,"CA_2011",2,1,1,1,2,2,"CA_2011",2,3,1,2,2,2,2,"30","male","man","","680910",""
"85","/Users/arajo/Documents/01. Project/repsPoliceCICompare/data/repsPoliceCICompare_s-1_p-undefined_s-6568ac32da819028e0decbaa_SESSION_2023-11-30_08h55.43.727.csv","sliderTrial","html-slider-response",18,113796,"0.0-18.0",NA,"656776a7904ae00d6b91d1dd","6568ac32da819028e0decbaa",1,NA,NA,NA,NA,NA,NA,NA,NA,NA,NA,NA,"3537","[""SV_PolicingMSA/CA_2011/IMG_0_2011.jpg"",""SV_PolicingMSA/CA_2011/IMG_1_2011.jpg"",""SV_PolicingMSA/CA_2011/IMG_6_2011.jpg"",""SV_PolicingMSA/CA_2011/IMG_14_2011.jpg"",""SV_PolicingMSA/CA_2011/IMG_9_2011.jpg"",""SV_PolicingMSA/CA_2011/IMG_13_2011.jpg"",""SV_PolicingMSA/CA_2011/IMG_11_2011.jpg"",""SV_PolicingMSA/CA_2011/IMG_5_2011.jpg""]","6",NA,NA,NA,NA,NA,2,NA,4,"[""./rc_img/cop_condGroup_7_SafeStreets_autoscaled.png"",""./rc_img/cop_condGroup_7_CommunitySafety_autoscaled.png""]",2,NA,NA,"CA_2011","CA_2011",2,2,2,2,2,2,3,"CA_2011",2,1,1,1,2,2,"CA_2011",2,2,1,2,2,2,2,"30","male","man","","80910","none"
"86","/Users/arajo/Documents/01. Project/repsPoliceCICompare/data/repsPoliceCICompare_s-1_p-undefined_s-6568ac32da819028e0decbaa_SESSION_2023-11-30_08h55.43.727.csv","sliderTrial","html-slider-response",19,116861,"0.0-19.0",NA,"656776a7904ae00d6b91d1dd","6568ac32da819028e0decbaa",1,NA,NA,NA,NA,NA,NA,NA,NA,NA,NA,NA,"3062","[""SV_PolicingMSA/CA_2011/IMG_0_2011.jpg"",""SV_PolicingMSA/CA_2011/IMG_1_2011.jpg"",""SV_PolicingMSA/CA_2011/IMG_6_2011.jpg"",""SV_PolicingMSA/CA_2011/IMG_14_2011.jpg"",""SV_PolicingMSA/CA_2011/IMG_9_2011.jpg"",""SV_PolicingMSA/CA_2011/IMG_13_2011.jpg"",""SV_PolicingMSA/CA_2011/IMG_11_2011.jpg"",""SV_PolicingMSA/CA_2011/IMG_5_2011.jpg""]","6",NA,NA,NA,NA,NA,2,NA,4,"[""./rc_img/cop_condGroup_16_SafeStreets_autoscaled.png"",""./rc_img/cop_condGroup_16_CommunitySafety_autoscaled.png""]",2,NA,NA,"CA_2011","CA_2011",2,2,2,2,2,2,3,"CA_2011",2,1,1,1,2,2,"CA_2011",2,2,1,2,2,2,2,"30","male","man","","80910","none"
"87","/Users/arajo/Documents/01. Project/repsPoliceCICompare/data/repsPoliceCICompare_s-1_p-undefined_s-6568ac32da819028e0decbaa_SESSION_2023-11-30_08h55.43.727.csv","sliderTrial","html-slider-response",20,120445,"0.0-20.0",NA,"656776a7904ae00d6b91d1dd","6568ac32da819028e0decbaa",1,NA,NA,NA,NA,NA,NA,NA,NA,NA,NA,NA,"3582","[""SV_PolicingMSA/CA_2011/IMG_0_2011.jpg"",""SV_PolicingMSA/CA_2011/IMG_1_2011.jpg"",""SV_PolicingMSA/CA_2011/IMG_6_2011.jpg"",""SV_PolicingMSA/CA_2011/IMG_14_2011.jpg"",""SV_PolicingMSA/CA_2011/IMG_9_2011.jpg"",""SV_PolicingMSA/CA_2011/IMG_13_2011.jpg"",""SV_PolicingMSA/CA_2011/IMG_11_2011.jpg"",""SV_PolicingMSA/CA_2011/IMG_5_2011.jpg""]","1",NA,NA,NA,NA,NA,2,NA,4,"[""./rc_img/cop_condGroup_11_CommunitySafety_autoscaled.png"",""./rc_img/cop_condGroup_11_SafeStreets_autoscaled.png""]",1,NA,NA,"CA_2011","CA_2011",2,2,2,2,2,2,3,"CA_2011",2,1,1,1,2,2,"CA_2011",2,2,1,2,2,2,2,"30","male","man","","80910","none"
"88","/Users/arajo/Documents/01. Project/repsPoliceCICompare/data/repsPoliceCICompare_s-1_p-undefined_s-6568ac32da819028e0decbaa_SESSION_2023-11-30_08h55.43.727.csv","sliderTrial","html-slider-response",21,124143,"0.0-21.0",NA,"656776a7904ae00d6b91d1dd","6568ac32da819028e0decbaa",1,NA,NA,NA,NA,NA,NA,NA,NA,NA,NA,NA,"3695","[""SV_PolicingMSA/CA_2011/IMG_0_2011.jpg"",""SV_PolicingMSA/CA_2011/IMG_1_2011.jpg"",""SV_PolicingMSA/CA_2011/IMG_6_2011.jpg"",""SV_PolicingMSA/CA_2011/IMG_14_2011.jpg"",""SV_PolicingMSA/CA_2011/IMG_9_2011.jpg"",""SV_PolicingMSA/CA_2011/IMG_13_2011.jpg"",""SV_PolicingMSA/CA_2011/IMG_11_2011.jpg"",""SV_PolicingMSA/CA_2011/IMG_5_2011.jpg""]","2",NA,NA,NA,NA,NA,2,NA,4,"[""./rc_img/cop_condGroup_18_CommunitySafety_autoscaled.png"",""./rc_img/cop_condGroup_18_SafeStreets_autoscaled.png""]",2,NA,NA,"CA_2011","CA_2011",2,2,2,2,2,2,3,"CA_2011",2,1,1,1,2,2,"CA_2011",2,2,1,2,2,2,2,"30","male","man","","80910","none"
"89","/Users/arajo/Documents/01. Project/repsPoliceCICompare/data/repsPoliceCICompare_s-1_p-undefined_s-6568ac32da819028e0decbaa_SESSION_2023-11-30_08h55.43.727.csv","sliderTrial","html-slider-response",22,127211,"0.0-22.0",NA,"656776a7904ae00d6b91d1dd","6568ac32da819028e0decbaa",1,NA,NA,NA,NA,NA,NA,NA,NA,NA,NA,NA,"3066","[""SV_PolicingMSA/CA_2011/IMG_0_2011.jpg"",""SV_PolicingMSA/CA_2011/IMG_1_2011.jpg"",""SV_PolicingMSA/CA_2011/IMG_6_2011.jpg"",""SV_PolicingMSA/CA_2011/IMG_14_2011.jpg"",""SV_PolicingMSA/CA_2011/IMG_9_2011.jpg"",""SV_PolicingMSA/CA_2011/IMG_13_2011.jpg"",""SV_PolicingMSA/CA_2011/IMG_11_2011.jpg"",""SV_PolicingMSA/CA_2011/IMG_5_2011.jpg""]","2",NA,NA,NA,NA,NA,2,NA,4,"[""./rc_img/cop_condGroup_14_CommunitySafety_autoscaled.png"",""./rc_img/cop_condGroup_14_SafeStreets_autoscaled.png""]",2,NA,NA,"CA_2011","CA_2011",2,2,2,2,2,2,3,"CA_2011",2,1,1,1,2,2,"CA_2011",2,2,1,2,2,2,2,"30","male","man","","80910","none"
"90","/Users/arajo/Documents/01. Project/repsPoliceCICompare/data/repsPoliceCICompare_s-1_p-undefined_s-6568ac32da819028e0decbaa_SESSION_2023-11-30_08h55.43.727.csv","sliderTrial","html-slider-response",35,197523,"0.0-35.0",NA,"656776a7904ae00d6b91d1dd","6568ac32da819028e0decbaa",1,NA,NA,NA,NA,NA,NA,NA,NA,NA,NA,NA,"5290","[""SV_PolicingMSA/CA_2537/IMG_10_2537.jpg"",""SV_PolicingMSA/CA_2537/IMG_4_2537.jpg"",""SV_PolicingMSA/CA_2537/IMG_9_2537.jpg"",""SV_PolicingMSA/CA_2537/IMG_8_2537.jpg"",""SV_PolicingMSA/CA_2537/IMG_6_2537.jpg"",""SV_PolicingMSA/CA_2537/IMG_7_2537.jpg"",""SV_PolicingMSA/CA_2537/IMG_12_2537.jpg"",""SV_PolicingMSA/CA_2537/IMG_2_2537.jpg""]","1",NA,NA,NA,NA,NA,2,NA,4,"[""./rc_img/cop_condGroup_13_CommunitySafety_autoscaled.png"",""./rc_img/cop_condGroup_13_SafeStreets_autoscaled.png""]",1,NA,NA,"CA_2537","CA_2537",2,1,2,2,2,2,4,"CA_2537",2,1,1,1,2,2,"CA_2537",2,2,1,2,2,2,2,"30","male","man","","80910","none"
"91","/Users/arajo/Documents/01. Project/repsPoliceCICompare/data/repsPoliceCICompare_s-1_p-undefined_s-6568ac32da819028e0decbaa_SESSION_2023-11-30_08h55.43.727.csv","sliderTrial","html-slider-response",36,202124,"0.0-36.0",NA,"656776a7904ae00d6b91d1dd","6568ac32da819028e0decbaa",1,NA,NA,NA,NA,NA,NA,NA,NA,NA,NA,NA,"4599","[""SV_PolicingMSA/CA_2537/IMG_10_2537.jpg"",""SV_PolicingMSA/CA_2537/IMG_4_2537.jpg"",""SV_PolicingMSA/CA_2537/IMG_9_2537.jpg"",""SV_PolicingMSA/CA_2537/IMG_8_2537.jpg"",""SV_PolicingMSA/CA_2537/IMG_6_2537.jpg"",""SV_PolicingMSA/CA_2537/IMG_7_2537.jpg"",""SV_PolicingMSA/CA_2537/IMG_12_2537.jpg"",""SV_PolicingMSA/CA_2537/IMG_2_2537.jpg""]","1",NA,NA,NA,NA,NA,2,NA,4,"[""./rc_img/cop_condGroup_20_CommunitySafety_autoscaled.png"",""./rc_img/cop_condGroup_20_SafeStreets_autoscaled.png""]",1,NA,NA,"CA_2537","CA_2537",2,1,2,2,2,2,4,"CA_2537",2,1,1,1,2,2,"CA_2537",2,2,1,2,2,2,2,"30","male","man","","80910","none"
"92","/Users/arajo/Documents/01. Project/repsPoliceCICompare/data/repsPoliceCICompare_s-1_p-undefined_s-6568ac32da819028e0decbaa_SESSION_2023-11-30_08h55.43.727.csv","sliderTrial","html-slider-response",37,205393,"0.0-37.0",NA,"656776a7904ae00d6b91d1dd","6568ac32da819028e0decbaa",1,NA,NA,NA,NA,NA,NA,NA,NA,NA,NA,NA,"3267","[""SV_PolicingMSA/CA_2537/IMG_10_2537.jpg"",""SV_PolicingMSA/CA_2537/IMG_4_2537.jpg"",""SV_PolicingMSA/CA_2537/IMG_9_2537.jpg"",""SV_PolicingMSA/CA_2537/IMG_8_2537.jpg"",""SV_PolicingMSA/CA_2537/IMG_6_2537.jpg"",""SV_PolicingMSA/CA_2537/IMG_7_2537.jpg"",""SV_PolicingMSA/CA_2537/IMG_12_2537.jpg"",""SV_PolicingMSA/CA_2537/IMG_2_2537.jpg""]","7",NA,NA,NA,NA,NA,2,NA,4,"[""./rc_img/cop_condGroup_4_SafeStreets_autoscaled.png"",""./rc_img/cop_condGroup_4_CommunitySafety_autoscaled.png""]",1,NA,NA,"CA_2537","CA_2537",2,1,2,2,2,2,4,"CA_2537",2,1,1,1,2,2,"CA_2537",2,2,1,2,2,2,2,"30","male","man","","80910","none"
"93","/Users/arajo/Documents/01. Project/repsPoliceCICompare/data/repsPoliceCICompare_s-1_p-undefined_s-6568ac32da819028e0decbaa_SESSION_2023-11-30_08h55.43.727.csv","sliderTrial","html-slider-response",38,210324,"0.0-38.0",NA,"656776a7904ae00d6b91d1dd","6568ac32da819028e0decbaa",1,NA,NA,NA,NA,NA,NA,NA,NA,NA,NA,NA,"4929","[""SV_PolicingMSA/CA_2537/IMG_10_2537.jpg"",""SV_PolicingMSA/CA_2537/IMG_4_2537.jpg"",""SV_PolicingMSA/CA_2537/IMG_9_2537.jpg"",""SV_PolicingMSA/CA_2537/IMG_8_2537.jpg"",""SV_PolicingMSA/CA_2537/IMG_6_2537.jpg"",""SV_PolicingMSA/CA_2537/IMG_7_2537.jpg"",""SV_PolicingMSA/CA_2537/IMG_12_2537.jpg"",""SV_PolicingMSA/CA_2537/IMG_2_2537.jpg""]","7",NA,NA,NA,NA,NA,2,NA,4,"[""./rc_img/cop_condGroup_19_SafeStreets_autoscaled.png"",""./rc_img/cop_condGroup_19_CommunitySafety_autoscaled.png""]",1,NA,NA,"CA_2537","CA_2537",2,1,2,2,2,2,4,"CA_2537",2,1,1,1,2,2,"CA_2537",2,2,1,2,2,2,2,"30","male","man","","80910","none"
"94","/Users/arajo/Documents/01. Project/repsPoliceCICompare/data/repsPoliceCICompare_s-1_p-undefined_s-6568ac32da819028e0decbaa_SESSION_2023-11-30_08h55.43.727.csv","sliderTrial","html-slider-response",39,214189,"0.0-39.0",NA,"656776a7904ae00d6b91d1dd","6568ac32da819028e0decbaa",1,NA,NA,NA,NA,NA,NA,NA,NA,NA,NA,NA,"3863","[""SV_PolicingMSA/CA_2537/IMG_10_2537.jpg"",""SV_PolicingMSA/CA_2537/IMG_4_2537.jpg"",""SV_PolicingMSA/CA_2537/IMG_9_2537.jpg"",""SV_PolicingMSA/CA_2537/IMG_8_2537.jpg"",""SV_PolicingMSA/CA_2537/IMG_6_2537.jpg"",""SV_PolicingMSA/CA_2537/IMG_7_2537.jpg"",""SV_PolicingMSA/CA_2537/IMG_12_2537.jpg"",""SV_PolicingMSA/CA_2537/IMG_2_2537.jpg""]","2",NA,NA,NA,NA,NA,2,NA,4,"[""./rc_img/cop_condGroup_15_CommunitySafety_autoscaled.png"",""./rc_img/cop_condGroup_15_SafeStreets_autoscaled.png""]",2,NA,NA,"CA_2537","CA_2537",2,1,2,2,2,2,4,"CA_2537",2,1,1,1,2,2,"CA_2537",2,2,1,2,2,2,2,"30","male","man","","80910","none"
"95","/Users/arajo/Documents/01. Project/repsPoliceCICompare/data/repsPoliceCICompare_s-1_p-undefined_s-6568ac32da819028e0decbaa_SESSION_2023-11-30_08h55.43.727.csv","sliderTrial","html-slider-response",52,255873,"0.0-52.0",NA,"656776a7904ae00d6b91d1dd","6568ac32da819028e0decbaa",1,NA,NA,NA,NA,NA,NA,NA,NA,NA,NA,NA,"3808","[""SV_PolicingMSA/CA_2009/IMG_8_2009.jpg"",""SV_PolicingMSA/CA_2009/IMG_9_2009.jpg"",""SV_PolicingMSA/CA_2009/IMG_1_2009.jpg"",""SV_PolicingMSA/CA_2009/IMG_6_2009.jpg"",""SV_PolicingMSA/CA_2009/IMG_5_2009.jpg"",""SV_PolicingMSA/CA_2009/IMG_2_2009.jpg"",""SV_PolicingMSA/CA_2009/IMG_0_2009.jpg"",""SV_PolicingMSA/CA_2009/IMG_3_2009.jpg""]","1",NA,NA,NA,NA,NA,1,NA,4,"[""./rc_img/cop_condGroup_10_CommunitySafety_autoscaled.png"",""./rc_img/cop_condGroup_10_SafeStreets_autoscaled.png""]",1,NA,NA,"CA_2009","CA_2009",1,1,2,2,2,2,2,"CA_2009",1,1,1,1,2,2,"CA_2009",1,2,1,2,2,2,2,"30","male","man","","80910","none"
"96","/Users/arajo/Documents/01. Project/repsPoliceCICompare/data/repsPoliceCICompare_s-1_p-undefined_s-6568ac32da819028e0decbaa_SESSION_2023-11-30_08h55.43.727.csv","sliderTrial","html-slider-response",53,258955,"0.0-53.0",NA,"656776a7904ae00d6b91d1dd","6568ac32da819028e0decbaa",1,NA,NA,NA,NA,NA,NA,NA,NA,NA,NA,NA,"3081","[""SV_PolicingMSA/CA_2009/IMG_8_2009.jpg"",""SV_PolicingMSA/CA_2009/IMG_9_2009.jpg"",""SV_PolicingMSA/CA_2009/IMG_1_2009.jpg"",""SV_PolicingMSA/CA_2009/IMG_6_2009.jpg"",""SV_PolicingMSA/CA_2009/IMG_5_2009.jpg"",""SV_PolicingMSA/CA_2009/IMG_2_2009.jpg"",""SV_PolicingMSA/CA_2009/IMG_0_2009.jpg"",""SV_PolicingMSA/CA_2009/IMG_3_2009.jpg""]","6",NA,NA,NA,NA,NA,1,NA,4,"[""./rc_img/cop_condGroup_2_SafeStreets_autoscaled.png"",""./rc_img/cop_condGroup_2_CommunitySafety_autoscaled.png""]",2,NA,NA,"CA_2009","CA_2009",1,1,2,2,2,2,2,"CA_2009",1,1,1,1,2,2,"CA_2009",1,2,1,2,2,2,2,"30","male","man","","80910","none"
"97","/Users/arajo/Documents/01. Project/repsPoliceCICompare/data/repsPoliceCICompare_s-1_p-undefined_s-6568ac32da819028e0decbaa_SESSION_2023-11-30_08h55.43.727.csv","sliderTrial_attention","html-slider-response",54,268970,"0.0-54.0",NA,"656776a7904ae00d6b91d1dd","6568ac32da819028e0decbaa",1,NA,NA,NA,NA,NA,NA,NA,NA,NA,NA,NA,"null","[""SV_PolicingMSA/CA_2009/IMG_8_2009.jpg"",""SV_PolicingMSA/CA_2009/IMG_9_2009.jpg"",""SV_PolicingMSA/CA_2009/IMG_1_2009.jpg"",""SV_PolicingMSA/CA_2009/IMG_6_2009.jpg"",""SV_PolicingMSA/CA_2009/IMG_5_2009.jpg"",""SV_PolicingMSA/CA_2009/IMG_2_2009.jpg"",""SV_PolicingMSA/CA_2009/IMG_0_2009.jpg"",""SV_PolicingMSA/CA_2009/IMG_3_2009.jpg""]","null",NA,NA,NA,NA,NA,1,NA,4,"[""./assets/img/attnchk.png"",""./assets/img/attnchk.png""]",NA,TRUE,NA,"CA_2009","CA_2009",1,1,2,2,2,2,2,"CA_2009",1,1,1,1,2,2,"CA_2009",1,2,1,2,2,2,2,"30","male","man","","80910","none"
"98","/Users/arajo/Documents/01. Project/repsPoliceCICompare/data/repsPoliceCICompare_s-1_p-undefined_s-6568ac32da819028e0decbaa_SESSION_2023-11-30_08h55.43.727.csv","sliderTrial","html-slider-response",55,273291,"0.0-55.0",NA,"656776a7904ae00d6b91d1dd","6568ac32da819028e0decbaa",1,NA,NA,NA,NA,NA,NA,NA,NA,NA,NA,NA,"4318","[""SV_PolicingMSA/CA_2009/IMG_8_2009.jpg"",""SV_PolicingMSA/CA_2009/IMG_9_2009.jpg"",""SV_PolicingMSA/CA_2009/IMG_1_2009.jpg"",""SV_PolicingMSA/CA_2009/IMG_6_2009.jpg"",""SV_PolicingMSA/CA_2009/IMG_5_2009.jpg"",""SV_PolicingMSA/CA_2009/IMG_2_2009.jpg"",""SV_PolicingMSA/CA_2009/IMG_0_2009.jpg"",""SV_PolicingMSA/CA_2009/IMG_3_2009.jpg""]","6",NA,NA,NA,NA,NA,1,NA,4,"[""./rc_img/cop_condGroup_6_SafeStreets_autoscaled.png"",""./rc_img/cop_condGroup_6_CommunitySafety_autoscaled.png""]",2,NA,NA,"CA_2009","CA_2009",1,1,2,2,2,2,2,"CA_2009",1,1,1,1,2,2,"CA_2009",1,2,1,2,2,2,2,"30","male","man","","80910","none"
"99","/Users/arajo/Documents/01. Project/repsPoliceCICompare/data/repsPoliceCICompare_s-1_p-undefined_s-6568ac32da819028e0decbaa_SESSION_2023-11-30_08h55.43.727.csv","sliderTrial","html-slider-response",56,276871,"0.0-56.0",NA,"656776a7904ae00d6b91d1dd","6568ac32da819028e0decbaa",1,NA,NA,NA,NA,NA,NA,NA,NA,NA,NA,NA,"3579","[""SV_PolicingMSA/CA_2009/IMG_8_2009.jpg"",""SV_PolicingMSA/CA_2009/IMG_9_2009.jpg"",""SV_PolicingMSA/CA_2009/IMG_1_2009.jpg"",""SV_PolicingMSA/CA_2009/IMG_6_2009.jpg"",""SV_PolicingMSA/CA_2009/IMG_5_2009.jpg"",""SV_PolicingMSA/CA_2009/IMG_2_2009.jpg"",""SV_PolicingMSA/CA_2009/IMG_0_2009.jpg"",""SV_PolicingMSA/CA_2009/IMG_3_2009.jpg""]","2",NA,NA,NA,NA,NA,1,NA,4,"[""./rc_img/cop_condGroup_12_CommunitySafety_autoscaled.png"",""./rc_img/cop_condGroup_12_SafeStreets_autoscaled.png""]",2,NA,NA,"CA_2009","CA_2009",1,1,2,2,2,2,2,"CA_2009",1,1,1,1,2,2,"CA_2009",1,2,1,2,2,2,2,"30","male","man","","80910","none"
"100","/Users/arajo/Documents/01. Project/repsPoliceCICompare/data/repsPoliceCICompare_s-1_p-undefined_s-6568ac32da819028e0decbaa_SESSION_2023-11-30_08h55.43.727.csv","sliderTrial","html-slider-response",57,281854,"0.0-57.0",NA,"656776a7904ae00d6b91d1dd","6568ac32da819028e0decbaa",1,NA,NA,NA,NA,NA,NA,NA,NA,NA,NA,NA,"4981","[""SV_PolicingMSA/CA_2009/IMG_8_2009.jpg"",""SV_PolicingMSA/CA_2009/IMG_9_2009.jpg"",""SV_PolicingMSA/CA_2009/IMG_1_2009.jpg"",""SV_PolicingMSA/CA_2009/IMG_6_2009.jpg"",""SV_PolicingMSA/CA_2009/IMG_5_2009.jpg"",""SV_PolicingMSA/CA_2009/IMG_2_2009.jpg"",""SV_PolicingMSA/CA_2009/IMG_0_2009.jpg"",""SV_PolicingMSA/CA_2009/IMG_3_2009.jpg""]","1",NA,NA,NA,NA,NA,1,NA,4,"[""./rc_img/cop_condGroup_1_CommunitySafety_autoscaled.png"",""./rc_img/cop_condGroup_1_SafeStreets_autoscaled.png""]",1,NA,NA,"CA_2009","CA_2009",1,1,2,2,2,2,2,"CA_2009",1,1,1,1,2,2,"CA_2009",1,2,1,2,2,2,2,"30","male","man","","80910","none"
"101","/Users/arajo/Documents/01. Project/repsPoliceCICompare/data/repsPoliceCICompare_s-1_p-undefined_s-6568ac32da819028e0decbaa_SESSION_2023-11-30_08h55.43.727.csv","sliderTrial","html-slider-response",70,329402,"0.0-70.0",NA,"656776a7904ae00d6b91d1dd","6568ac32da819028e0decbaa",1,NA,NA,NA,NA,NA,NA,NA,NA,NA,NA,NA,"4972","[""SV_PolicingMSA/CA_8990/IMG_8_8990.jpg"",""SV_PolicingMSA/CA_8990/IMG_9_8990.jpg"",""SV_PolicingMSA/CA_8990/IMG_13_8990.jpg"",""SV_PolicingMSA/CA_8990/IMG_5_8990.jpg"",""SV_PolicingMSA/CA_8990/IMG_2_8990.jpg"",""SV_PolicingMSA/CA_8990/IMG_14_8990.jpg"",""SV_PolicingMSA/CA_8990/IMG_12_8990.jpg"",""SV_PolicingMSA/CA_8990/IMG_10_8990.jpg""]","6",NA,NA,NA,NA,NA,3,NA,4,"[""./rc_img/cop_condGroup_5_SafeStreets_autoscaled.png"",""./rc_img/cop_condGroup_5_CommunitySafety_autoscaled.png""]",2,NA,NA,"CA_8990","CA_8990",3,1,2,2,2,2,5,"CA_8990",3,1,1,1,2,2,"CA_8990",3,2,1,2,2,2,2,"30","male","man","","80910","none"
"102","/Users/arajo/Documents/01. Project/repsPoliceCICompare/data/repsPoliceCICompare_s-1_p-undefined_s-6568ac32da819028e0decbaa_SESSION_2023-11-30_08h55.43.727.csv","sliderTrial","html-slider-response",71,332919,"0.0-71.0",NA,"656776a7904ae00d6b91d1dd","6568ac32da819028e0decbaa",1,NA,NA,NA,NA,NA,NA,NA,NA,NA,NA,NA,"3515","[""SV_PolicingMSA/CA_8990/IMG_8_8990.jpg"",""SV_PolicingMSA/CA_8990/IMG_9_8990.jpg"",""SV_PolicingMSA/CA_8990/IMG_13_8990.jpg"",""SV_PolicingMSA/CA_8990/IMG_5_8990.jpg"",""SV_PolicingMSA/CA_8990/IMG_2_8990.jpg"",""SV_PolicingMSA/CA_8990/IMG_14_8990.jpg"",""SV_PolicingMSA/CA_8990/IMG_12_8990.jpg"",""SV_PolicingMSA/CA_8990/IMG_10_8990.jpg""]","1",NA,NA,NA,NA,NA,3,NA,4,"[""./rc_img/cop_condGroup_9_CommunitySafety_autoscaled.png"",""./rc_img/cop_condGroup_9_SafeStreets_autoscaled.png""]",1,NA,NA,"CA_8990","CA_8990",3,1,2,2,2,2,5,"CA_8990",3,1,1,1,2,2,"CA_8990",3,2,1,2,2,2,2,"30","male","man","","80910","none"
"103","/Users/arajo/Documents/01. Project/repsPoliceCICompare/data/repsPoliceCICompare_s-1_p-undefined_s-6568ac32da819028e0decbaa_SESSION_2023-11-30_08h55.43.727.csv","sliderTrial","html-slider-response",72,336717,"0.0-72.0",NA,"656776a7904ae00d6b91d1dd","6568ac32da819028e0decbaa",1,NA,NA,NA,NA,NA,NA,NA,NA,NA,NA,NA,"3795","[""SV_PolicingMSA/CA_8990/IMG_8_8990.jpg"",""SV_PolicingMSA/CA_8990/IMG_9_8990.jpg"",""SV_PolicingMSA/CA_8990/IMG_13_8990.jpg"",""SV_PolicingMSA/CA_8990/IMG_5_8990.jpg"",""SV_PolicingMSA/CA_8990/IMG_2_8990.jpg"",""SV_PolicingMSA/CA_8990/IMG_14_8990.jpg"",""SV_PolicingMSA/CA_8990/IMG_12_8990.jpg"",""SV_PolicingMSA/CA_8990/IMG_10_8990.jpg""]","7",NA,NA,NA,NA,NA,3,NA,4,"[""./rc_img/cop_condGroup_3_SafeStreets_autoscaled.png"",""./rc_img/cop_condGroup_3_CommunitySafety_autoscaled.png""]",1,NA,NA,"CA_8990","CA_8990",3,1,2,2,2,2,5,"CA_8990",3,1,1,1,2,2,"CA_8990",3,2,1,2,2,2,2,"30","male","man","","80910","none"
"104","/Users/arajo/Documents/01. Project/repsPoliceCICompare/data/repsPoliceCICompare_s-1_p-undefined_s-6568ac32da819028e0decbaa_SESSION_2023-11-30_08h55.43.727.csv","sliderTrial","html-slider-response",73,340102,"0.0-73.0",NA,"656776a7904ae00d6b91d1dd","6568ac32da819028e0decbaa",1,NA,NA,NA,NA,NA,NA,NA,NA,NA,NA,NA,"3382","[""SV_PolicingMSA/CA_8990/IMG_8_8990.jpg"",""SV_PolicingMSA/CA_8990/IMG_9_8990.jpg"",""SV_PolicingMSA/CA_8990/IMG_13_8990.jpg"",""SV_PolicingMSA/CA_8990/IMG_5_8990.jpg"",""SV_PolicingMSA/CA_8990/IMG_2_8990.jpg"",""SV_PolicingMSA/CA_8990/IMG_14_8990.jpg"",""SV_PolicingMSA/CA_8990/IMG_12_8990.jpg"",""SV_PolicingMSA/CA_8990/IMG_10_8990.jpg""]","1",NA,NA,NA,NA,NA,3,NA,4,"[""./rc_img/cop_condGroup_17_CommunitySafety_autoscaled.png"",""./rc_img/cop_condGroup_17_SafeStreets_autoscaled.png""]",1,NA,NA,"CA_8990","CA_8990",3,1,2,2,2,2,5,"CA_8990",3,1,1,1,2,2,"CA_8990",3,2,1,2,2,2,2,"30","male","man","","80910","none"
