"task","trial_type","trial_index","time_elapsed","internal_node_id","subject_id","study_id","session_id","section","width","height","webaudio","browser","browser_version","mobile","os","fullscreen","vsync_rate","webcam","microphone","rt","stimulus","response","success","timeout","failed_images","failed_audio","failed_video","block","accuracy","slider_start","choices","standardized_response","num_attention_checks_correct"
"pavlovia-init","pavlovia","0","775","0.0-0.0","","","","10","","","","","","","","","","","","","","","","","","","","","","","","",""
"browser-check","browser-check","1","1768","0.0-1.0","","","","10","1600","837","true","chrome","120.0.0","false","Mac OS","true","60.58","true","true","","","","","","","","","","","","","",""
"consent","html-button-response","2","7835","0.0-2.0","","","","10","","","","","","","","","","","","6066","
        <div style=""font-size: 80%; max-width:700px"">
            <h2>CONSENT FORM</h2>
        
            <div style=""text-align: left"">
            <h4>DESCRIPTION</h4>
            <p>
            You will complete a short task where you give your impressions of various neighborhoods and assign individuals to those spaces, and answer some questions about your thoughts and opinions.<br>
            The University of Michigan Institutional Review Board Health Sciences and Behavioral Sciences has determined that this study is exempt from IRB oversight.
            </p>

            <h4>TIME INVOLVEMENT</h4>
            <p>Your participation will take approximately 15 minutes. You will receive $3.15 upon completion of the study.</p>
        
            <h4>RISKS AND BENEFITS</h4>
            <p>
            The risks associated with this study are minimal. The benefits which may reasonably be expected to result from this study are none. We cannot and do not guarantee or promise that you will receive any benefits from this study.
            </p>
          
            <h4>SUBJECT'S RIGHTS</h4>
            <p>
            If you have read this form and have decided to participate in this project, please understand your participation is voluntary and you have the right to withdraw your consent or discontinue participation at any time without penalty or loss of benefits to which you are otherwise entitled. The alternative is not to participate. You have the right to refuse to answer particular questions. Your individual privacy will be maintained in all published and written data resulting from the study.
            </p>

            <h4>HUMAN SUBJECT APPROVAL</h4>
            <p>
            This study is exempt from ongoing IRB review.
            </p>

            <h4>CONTACT INFORMATION</h4>
            If you have any questions, concerns or complaints about this research, its procedures, risks and benefits, contact the Protocol Director, Nicholas Camp, npcamp@umich.edu, (443) 851-6783. <br>

            If you have questions about your rights as a research participant, or wish to obtain information, ask questions or discuss any concerns about this study with someone other than the researcher(s), please contact the following:<br><br>
            University of Michigan<br>
            Health Sciences and Behavioral Sciences Institutional Review Board (IRB-HSBS)<br>
            2800 Plymouth Road<br>
            Building 520, Room 1169Ann Arbor, MI 48109-2800<br>
            Telephone: 734-936-0933 or toll free (866) 936-0933<br>
            Fax: 734-936-1852<br>
            E-mail: irbhsbs@umich.edu<br><br>

            You can also contact the University of Michigan Compliance Hotline at 1-866-990-0111. You may also print this consent form to keep.
            <br><br>
            <div class=""alert alert-warning""><b>
            Do you consent to participate in this study? If you consent to participate in this study, please click “Accept and Continue”. If you select ""Decline and Exit"", you will be exited from the survey. <br>
            </b></div>
            </div>
        </div>
    ","1","","","","","","","","","","",""
"","preload","3","10060","0.0-3.0","","","","10","","","","","","","","","","","","","","","true","false","[]","[]","[]","","","","","",""
"instructions","html-button-response","4","60474","0.0-4.0","","","","10","","","","","","","","","","","","50414","
        <div class=""text-container"">
        <h1>Welcome to the study!</h1>
        
        <div class=""text-left"">
            <p>
                In this study, we are interested in what people can tell about spaces from Google Street View images. <br> Google Street View takes pictures of streets used for Google Earth and Google Maps. <br>You’ll see Google Street View images of different places and answer some questions about each one.<br>
            </p>
        </div>
        <img src = ""assets/img/example.png"" width = 500px, height = auto>
        <br>
    <br>
    ","0","","","","","","","","","","",""
"instructions","html-button-response","5","61514","0.0-5.0","","","","10","","","","","","","","","","","","1039","
    <div class=""text-container"">
        <div class=""text-center"">
            <p>Please remember that your answers are completely anonymous.<br>Go with your gut response- there are no right or wrong answers!</p>
        </div>
    <br>
","0","","","","","","","","","","",""
"before_SVSlide_prompt","html-button-response","6","62250","0.0-6.0","","","","10","","","","","","","","","","","","736","Click [Next] to see the next neighborhood!","0","","","","","","","","","","",""
"street view slide show","image-button-response","7","63253","0.0-7.0","","","","10","","","","","","","","","","","","null","stimulus/SV_PolicingMSA/FL_4062/IMG_9_4062.jpg","null","","","","","","3","","","","",""
"street view slide show","image-button-response","8","64254","0.0-8.0","","","","10","","","","","","","","","","","","null","stimulus/SV_PolicingMSA/FL_4062/IMG_7_4062.jpg","null","","","","","","3","","","","",""
"street view slide show","image-button-response","9","65257","0.0-9.0","","","","10","","","","","","","","","","","","null","stimulus/SV_PolicingMSA/FL_4062/IMG_11_4062.jpg","null","","","","","","3","","","","",""
"street view slide show","image-button-response","10","66259","0.0-10.0","","","","10","","","","","","","","","","","","null","stimulus/SV_PolicingMSA/FL_4062/IMG_8_4062.jpg","null","","","","","","3","","","","",""
"street view slide show","image-button-response","11","67261","0.0-11.0","","","","10","","","","","","","","","","","","null","stimulus/SV_PolicingMSA/FL_4062/IMG_6_4062.jpg","null","","","","","","3","","","","",""
"street view slide show","image-button-response","12","68262","0.0-12.0","","","","10","","","","","","","","","","","","null","stimulus/SV_PolicingMSA/FL_4062/IMG_14_4062.jpg","null","","","","","","3","","","","",""
"street view slide show","image-button-response","13","69264","0.0-13.0","","","","10","","","","","","","","","","","","null","stimulus/SV_PolicingMSA/FL_4062/IMG_2_4062.jpg","null","","","","","","3","","","","",""
"street view slide show","image-button-response","14","70266","0.0-14.0","","","","10","","","","","","","","","","","","null","stimulus/SV_PolicingMSA/FL_4062/IMG_3_4062.jpg","null","","","","","","3","","","","",""
"dot matrix survey1","survey","15","78565","0.0-15.0","","","","10","","","","","","","","","","","","8258","","{""P0_Q0"":null,""P0_Q1"":{""wealthy"":4,""safe"":4,""walkable"":4,""traditional"":4,""diverse"":4}}","","","","","","3","[]","","","",""
"dot matrix survey2","survey","16","84364","0.0-16.0","","","","10","","","","","","","","","","","","5791","","{""P0_Q0"":null,""P0_Q1"":{""violence"":1,""crime"":2,""drug"":2,""schools"":2,""opportunities"":2}}","","","","","","3","[]","","","",""
"dot matrix survey3","survey","17","92770","0.0-17.0","","","","10","","","","","","","","","","","","8400","","{""P0_Q0"":null,""P0_Q1"":{""movein"":0,""moveout"":1,""shopping"":1,""walk"":1,""park"":1,""school"":1}}","","","","","","3","[]","","","",""
"sliderTrial","html-slider-response","18","102330","0.0-18.0","","","","10","","","","","","","","","","","","9558","[""SV_PolicingMSA/FL_4062/IMG_9_4062.jpg"",""SV_PolicingMSA/FL_4062/IMG_7_4062.jpg"",""SV_PolicingMSA/FL_4062/IMG_11_4062.jpg"",""SV_PolicingMSA/FL_4062/IMG_8_4062.jpg"",""SV_PolicingMSA/FL_4062/IMG_6_4062.jpg"",""SV_PolicingMSA/FL_4062/IMG_14_4062.jpg"",""SV_PolicingMSA/FL_4062/IMG_2_4062.jpg"",""SV_PolicingMSA/FL_4062/IMG_3_4062.jpg""]","3","","","","","","3","","4","[""./rc_img/cop_condGroup_8_SafeStreets_autoscaled.png"",""./rc_img/cop_condGroup_8_CommunitySafety_autoscaled.png""]","5",""
"sliderTrial","html-slider-response","19","103826","0.0-19.0","","","","10","","","","","","","","","","","","1495","[""SV_PolicingMSA/FL_4062/IMG_9_4062.jpg"",""SV_PolicingMSA/FL_4062/IMG_7_4062.jpg"",""SV_PolicingMSA/FL_4062/IMG_11_4062.jpg"",""SV_PolicingMSA/FL_4062/IMG_8_4062.jpg"",""SV_PolicingMSA/FL_4062/IMG_6_4062.jpg"",""SV_PolicingMSA/FL_4062/IMG_14_4062.jpg"",""SV_PolicingMSA/FL_4062/IMG_2_4062.jpg"",""SV_PolicingMSA/FL_4062/IMG_3_4062.jpg""]","4","","","","","","3","","4","[""./rc_img/cop_condGroup_3_SafeStreets_autoscaled.png"",""./rc_img/cop_condGroup_3_CommunitySafety_autoscaled.png""]","4",""
"sliderTrial","html-slider-response","20","104554","0.0-20.0","","","","10","","","","","","","","","","","","727","[""SV_PolicingMSA/FL_4062/IMG_9_4062.jpg"",""SV_PolicingMSA/FL_4062/IMG_7_4062.jpg"",""SV_PolicingMSA/FL_4062/IMG_11_4062.jpg"",""SV_PolicingMSA/FL_4062/IMG_8_4062.jpg"",""SV_PolicingMSA/FL_4062/IMG_6_4062.jpg"",""SV_PolicingMSA/FL_4062/IMG_14_4062.jpg"",""SV_PolicingMSA/FL_4062/IMG_2_4062.jpg"",""SV_PolicingMSA/FL_4062/IMG_3_4062.jpg""]","4","","","","","","3","","4","[""./rc_img/cop_condGroup_2_CommunitySafety_autoscaled.png"",""./rc_img/cop_condGroup_2_SafeStreets_autoscaled.png""]","4",""
"sliderTrial","html-slider-response","21","105066","0.0-21.0","","","","10","","","","","","","","","","","","511","[""SV_PolicingMSA/FL_4062/IMG_9_4062.jpg"",""SV_PolicingMSA/FL_4062/IMG_7_4062.jpg"",""SV_PolicingMSA/FL_4062/IMG_11_4062.jpg"",""SV_PolicingMSA/FL_4062/IMG_8_4062.jpg"",""SV_PolicingMSA/FL_4062/IMG_6_4062.jpg"",""SV_PolicingMSA/FL_4062/IMG_14_4062.jpg"",""SV_PolicingMSA/FL_4062/IMG_2_4062.jpg"",""SV_PolicingMSA/FL_4062/IMG_3_4062.jpg""]","4","","","","","","3","","4","[""./rc_img/cop_condGroup_4_SafeStreets_autoscaled.png"",""./rc_img/cop_condGroup_4_CommunitySafety_autoscaled.png""]","4",""
"sliderTrial","html-slider-response","22","105514","0.0-22.0","","","","10","","","","","","","","","","","","447","[""SV_PolicingMSA/FL_4062/IMG_9_4062.jpg"",""SV_PolicingMSA/FL_4062/IMG_7_4062.jpg"",""SV_PolicingMSA/FL_4062/IMG_11_4062.jpg"",""SV_PolicingMSA/FL_4062/IMG_8_4062.jpg"",""SV_PolicingMSA/FL_4062/IMG_6_4062.jpg"",""SV_PolicingMSA/FL_4062/IMG_14_4062.jpg"",""SV_PolicingMSA/FL_4062/IMG_2_4062.jpg"",""SV_PolicingMSA/FL_4062/IMG_3_4062.jpg""]","4","","","","","","3","","4","[""./rc_img/cop_condGroup_11_SafeStreets_autoscaled.png"",""./rc_img/cop_condGroup_11_CommunitySafety_autoscaled.png""]","4",""
"before_SVSlide_prompt","html-button-response","23","106634","0.0-23.0","","","","10","","","","","","","","","","","","1119","Click [Next] to see the next neighborhood!","0","","","","","","","","","","",""
"street view slide show","image-button-response","24","107636","0.0-24.0","","","","10","","","","","","","","","","","","null","stimulus/SV_PolicingMSA/FL_2544/IMG_2_2544.jpg","null","","","","","","3","","","","",""
"street view slide show","image-button-response","25","108638","0.0-25.0","","","","10","","","","","","","","","","","","null","stimulus/SV_PolicingMSA/FL_2544/IMG_14_2544.jpg","null","","","","","","3","","","","",""
"street view slide show","image-button-response","26","109640","0.0-26.0","","","","10","","","","","","","","","","","","null","stimulus/SV_PolicingMSA/FL_2544/IMG_11_2544.jpg","null","","","","","","3","","","","",""
"street view slide show","image-button-response","27","110642","0.0-27.0","","","","10","","","","","","","","","","","","null","stimulus/SV_PolicingMSA/FL_2544/IMG_6_2544.jpg","null","","","","","","3","","","","",""
"street view slide show","image-button-response","28","111644","0.0-28.0","","","","10","","","","","","","","","","","","null","stimulus/SV_PolicingMSA/FL_2544/IMG_12_2544.jpg","null","","","","","","3","","","","",""
"street view slide show","image-button-response","29","112646","0.0-29.0","","","","10","","","","","","","","","","","","null","stimulus/SV_PolicingMSA/FL_2544/IMG_10_2544.jpg","null","","","","","","3","","","","",""
"street view slide show","image-button-response","30","113648","0.0-30.0","","","","10","","","","","","","","","","","","null","stimulus/SV_PolicingMSA/FL_2544/IMG_1_2544.jpg","null","","","","","","3","","","","",""
"street view slide show","image-button-response","31","114650","0.0-31.0","","","","10","","","","","","","","","","","","null","stimulus/SV_PolicingMSA/FL_2544/IMG_3_2544.jpg","null","","","","","","3","","","","",""
"dot matrix survey1","survey","32","118633","0.0-32.0","","","","10","","","","","","","","","","","","3976","","{""P0_Q0"":null,""P0_Q1"":{""wealthy"":2,""safe"":2,""walkable"":2,""traditional"":2,""diverse"":2}}","","","","","","3","[]","","","",""
"dot matrix survey2","survey","33","119179","0.0-33.0","","","","10","","","","","","","","","","","","538","","{""P0_Q0"":null,""P0_Q1"":null}","","","","","","3","[]","","","",""
"dot matrix survey3","survey","34","120035","0.0-34.0","","","","10","","","","","","","","","","","","851","","{""P0_Q0"":null,""P0_Q1"":null}","","","","","","3","[]","","","",""
"sliderTrial","html-slider-response","35","122938","0.0-35.0","","","","10","","","","","","","","","","","","2902","[""SV_PolicingMSA/FL_2544/IMG_2_2544.jpg"",""SV_PolicingMSA/FL_2544/IMG_14_2544.jpg"",""SV_PolicingMSA/FL_2544/IMG_11_2544.jpg"",""SV_PolicingMSA/FL_2544/IMG_6_2544.jpg"",""SV_PolicingMSA/FL_2544/IMG_12_2544.jpg"",""SV_PolicingMSA/FL_2544/IMG_10_2544.jpg"",""SV_PolicingMSA/FL_2544/IMG_1_2544.jpg"",""SV_PolicingMSA/FL_2544/IMG_3_2544.jpg""]","6","","","","","","3","","4","[""./rc_img/cop_condGroup_13_CommunitySafety_autoscaled.png"",""./rc_img/cop_condGroup_13_SafeStreets_autoscaled.png""]","6",""
"sliderTrial","html-slider-response","36","123578","0.0-36.0","","","","10","","","","","","","","","","","","639","[""SV_PolicingMSA/FL_2544/IMG_2_2544.jpg"",""SV_PolicingMSA/FL_2544/IMG_14_2544.jpg"",""SV_PolicingMSA/FL_2544/IMG_11_2544.jpg"",""SV_PolicingMSA/FL_2544/IMG_6_2544.jpg"",""SV_PolicingMSA/FL_2544/IMG_12_2544.jpg"",""SV_PolicingMSA/FL_2544/IMG_10_2544.jpg"",""SV_PolicingMSA/FL_2544/IMG_1_2544.jpg"",""SV_PolicingMSA/FL_2544/IMG_3_2544.jpg""]","4","","","","","","3","","4","[""./rc_img/cop_condGroup_7_CommunitySafety_autoscaled.png"",""./rc_img/cop_condGroup_7_SafeStreets_autoscaled.png""]","4",""
"sliderTrial","html-slider-response","37","123994","0.0-37.0","","","","10","","","","","","","","","","","","415","[""SV_PolicingMSA/FL_2544/IMG_2_2544.jpg"",""SV_PolicingMSA/FL_2544/IMG_14_2544.jpg"",""SV_PolicingMSA/FL_2544/IMG_11_2544.jpg"",""SV_PolicingMSA/FL_2544/IMG_6_2544.jpg"",""SV_PolicingMSA/FL_2544/IMG_12_2544.jpg"",""SV_PolicingMSA/FL_2544/IMG_10_2544.jpg"",""SV_PolicingMSA/FL_2544/IMG_1_2544.jpg"",""SV_PolicingMSA/FL_2544/IMG_3_2544.jpg""]","4","","","","","","3","","4","[""./rc_img/cop_condGroup_9_SafeStreets_autoscaled.png"",""./rc_img/cop_condGroup_9_CommunitySafety_autoscaled.png""]","4",""
"sliderTrial","html-slider-response","38","124514","0.0-38.0","","","","10","","","","","","","","","","","","519","[""SV_PolicingMSA/FL_2544/IMG_2_2544.jpg"",""SV_PolicingMSA/FL_2544/IMG_14_2544.jpg"",""SV_PolicingMSA/FL_2544/IMG_11_2544.jpg"",""SV_PolicingMSA/FL_2544/IMG_6_2544.jpg"",""SV_PolicingMSA/FL_2544/IMG_12_2544.jpg"",""SV_PolicingMSA/FL_2544/IMG_10_2544.jpg"",""SV_PolicingMSA/FL_2544/IMG_1_2544.jpg"",""SV_PolicingMSA/FL_2544/IMG_3_2544.jpg""]","4","","","","","","3","","4","[""./rc_img/cop_condGroup_17_SafeStreets_autoscaled.png"",""./rc_img/cop_condGroup_17_CommunitySafety_autoscaled.png""]","4",""
"sliderTrial","html-slider-response","39","125018","0.0-39.0","","","","10","","","","","","","","","","","","503","[""SV_PolicingMSA/FL_2544/IMG_2_2544.jpg"",""SV_PolicingMSA/FL_2544/IMG_14_2544.jpg"",""SV_PolicingMSA/FL_2544/IMG_11_2544.jpg"",""SV_PolicingMSA/FL_2544/IMG_6_2544.jpg"",""SV_PolicingMSA/FL_2544/IMG_12_2544.jpg"",""SV_PolicingMSA/FL_2544/IMG_10_2544.jpg"",""SV_PolicingMSA/FL_2544/IMG_1_2544.jpg"",""SV_PolicingMSA/FL_2544/IMG_3_2544.jpg""]","4","","","","","","3","","4","[""./rc_img/cop_condGroup_10_CommunitySafety_autoscaled.png"",""./rc_img/cop_condGroup_10_SafeStreets_autoscaled.png""]","4",""
"before_SVSlide_prompt","html-button-response","40","126154","0.0-40.0","","","","10","","","","","","","","","","","","1135","Click [Next] to see the next neighborhood!","0","","","","","","","","","","",""
"street view slide show","image-button-response","41","127157","0.0-41.0","","","","10","","","","","","","","","","","","null","stimulus/SV_PolicingMSA/FL_5080/IMG_8_5080.jpg","null","","","","","","2","","","","",""
"street view slide show","image-button-response","42","128158","0.0-42.0","","","","10","","","","","","","","","","","","null","stimulus/SV_PolicingMSA/FL_5080/IMG_7_5080.jpg","null","","","","","","2","","","","",""
"street view slide show","image-button-response","43","129160","0.0-43.0","","","","10","","","","","","","","","","","","null","stimulus/SV_PolicingMSA/FL_5080/IMG_3_5080.jpg","null","","","","","","2","","","","",""
"street view slide show","image-button-response","44","130162","0.0-44.0","","","","10","","","","","","","","","","","","null","stimulus/SV_PolicingMSA/FL_5080/IMG_10_5080.jpg","null","","","","","","2","","","","",""
"street view slide show","image-button-response","45","131163","0.0-45.0","","","","10","","","","","","","","","","","","null","stimulus/SV_PolicingMSA/FL_5080/IMG_9_5080.jpg","null","","","","","","2","","","","",""
"street view slide show","image-button-response","46","132164","0.0-46.0","","","","10","","","","","","","","","","","","null","stimulus/SV_PolicingMSA/FL_5080/IMG_6_5080.jpg","null","","","","","","2","","","","",""
"street view slide show","image-button-response","47","133167","0.0-47.0","","","","10","","","","","","","","","","","","null","stimulus/SV_PolicingMSA/FL_5080/IMG_13_5080.jpg","null","","","","","","2","","","","",""
"street view slide show","image-button-response","48","134169","0.0-48.0","","","","10","","","","","","","","","","","","null","stimulus/SV_PolicingMSA/FL_5080/IMG_1_5080.jpg","null","","","","","","2","","","","",""
"dot matrix survey1","survey","49","135771","0.0-49.0","","","","10","","","","","","","","","","","","1595","","{""P0_Q0"":null,""P0_Q1"":null}","","","","","","2","[]","","","",""
"dot matrix survey2","survey","50","136274","0.0-50.0","","","","10","","","","","","","","","","","","498","","{""P0_Q0"":null,""P0_Q1"":null}","","","","","","2","[]","","","",""
"dot matrix survey3","survey","51","137562","0.0-51.0","","","","10","","","","","","","","","","","","1282","","{""P0_Q0"":null,""P0_Q1"":null}","","","","","","2","[]","","","",""
"sliderTrial","html-slider-response","52","139754","0.0-52.0","","","","10","","","","","","","","","","","","2191","[""SV_PolicingMSA/FL_5080/IMG_8_5080.jpg"",""SV_PolicingMSA/FL_5080/IMG_7_5080.jpg"",""SV_PolicingMSA/FL_5080/IMG_3_5080.jpg"",""SV_PolicingMSA/FL_5080/IMG_10_5080.jpg"",""SV_PolicingMSA/FL_5080/IMG_9_5080.jpg"",""SV_PolicingMSA/FL_5080/IMG_6_5080.jpg"",""SV_PolicingMSA/FL_5080/IMG_13_5080.jpg"",""SV_PolicingMSA/FL_5080/IMG_1_5080.jpg""]","6","","","","","","2","","4","[""./rc_img/cop_condGroup_15_SafeStreets_autoscaled.png"",""./rc_img/cop_condGroup_15_CommunitySafety_autoscaled.png""]","2",""
"sliderTrial","html-slider-response","53","140722","0.0-53.0","","","","10","","","","","","","","","","","","967","[""SV_PolicingMSA/FL_5080/IMG_8_5080.jpg"",""SV_PolicingMSA/FL_5080/IMG_7_5080.jpg"",""SV_PolicingMSA/FL_5080/IMG_3_5080.jpg"",""SV_PolicingMSA/FL_5080/IMG_10_5080.jpg"",""SV_PolicingMSA/FL_5080/IMG_9_5080.jpg"",""SV_PolicingMSA/FL_5080/IMG_6_5080.jpg"",""SV_PolicingMSA/FL_5080/IMG_13_5080.jpg"",""SV_PolicingMSA/FL_5080/IMG_1_5080.jpg""]","4","","","","","","2","","4","[""./rc_img/cop_condGroup_18_CommunitySafety_autoscaled.png"",""./rc_img/cop_condGroup_18_SafeStreets_autoscaled.png""]","4",""
"sliderTrial","html-slider-response","54","141378","0.0-54.0","","","","10","","","","","","","","","","","","654","[""SV_PolicingMSA/FL_5080/IMG_8_5080.jpg"",""SV_PolicingMSA/FL_5080/IMG_7_5080.jpg"",""SV_PolicingMSA/FL_5080/IMG_3_5080.jpg"",""SV_PolicingMSA/FL_5080/IMG_10_5080.jpg"",""SV_PolicingMSA/FL_5080/IMG_9_5080.jpg"",""SV_PolicingMSA/FL_5080/IMG_6_5080.jpg"",""SV_PolicingMSA/FL_5080/IMG_13_5080.jpg"",""SV_PolicingMSA/FL_5080/IMG_1_5080.jpg""]","4","","","","","","2","","4","[""./rc_img/cop_condGroup_6_CommunitySafety_autoscaled.png"",""./rc_img/cop_condGroup_6_SafeStreets_autoscaled.png""]","4",""
"sliderTrial","html-slider-response","55","141826","0.0-55.0","","","","10","","","","","","","","","","","","447","[""SV_PolicingMSA/FL_5080/IMG_8_5080.jpg"",""SV_PolicingMSA/FL_5080/IMG_7_5080.jpg"",""SV_PolicingMSA/FL_5080/IMG_3_5080.jpg"",""SV_PolicingMSA/FL_5080/IMG_10_5080.jpg"",""SV_PolicingMSA/FL_5080/IMG_9_5080.jpg"",""SV_PolicingMSA/FL_5080/IMG_6_5080.jpg"",""SV_PolicingMSA/FL_5080/IMG_13_5080.jpg"",""SV_PolicingMSA/FL_5080/IMG_1_5080.jpg""]","4","","","","","","2","","4","[""./rc_img/cop_condGroup_5_CommunitySafety_autoscaled.png"",""./rc_img/cop_condGroup_5_SafeStreets_autoscaled.png""]","4",""
"sliderTrial","html-slider-response","56","142322","0.0-56.0","","","","10","","","","","","","","","","","","495","[""SV_PolicingMSA/FL_5080/IMG_8_5080.jpg"",""SV_PolicingMSA/FL_5080/IMG_7_5080.jpg"",""SV_PolicingMSA/FL_5080/IMG_3_5080.jpg"",""SV_PolicingMSA/FL_5080/IMG_10_5080.jpg"",""SV_PolicingMSA/FL_5080/IMG_9_5080.jpg"",""SV_PolicingMSA/FL_5080/IMG_6_5080.jpg"",""SV_PolicingMSA/FL_5080/IMG_13_5080.jpg"",""SV_PolicingMSA/FL_5080/IMG_1_5080.jpg""]","4","","","","","","2","","4","[""./rc_img/cop_condGroup_16_CommunitySafety_autoscaled.png"",""./rc_img/cop_condGroup_16_SafeStreets_autoscaled.png""]","4",""
"before_SVSlide_prompt","html-button-response","57","143794","0.0-57.0","","","","10","","","","","","","","","","","","1471","Click [Next] to see the next neighborhood!","0","","","","","","","","","","",""
"street view slide show","image-button-response","58","144796","0.0-58.0","","","","10","","","","","","","","","","","","null","stimulus/SV_PolicingMSA/FL_4528/IMG_7_4528.jpg","null","","","","","","1","","","","",""
"street view slide show","image-button-response","59","145798","0.0-59.0","","","","10","","","","","","","","","","","","null","stimulus/SV_PolicingMSA/FL_4528/IMG_6_4528.jpg","null","","","","","","1","","","","",""
"street view slide show","image-button-response","60","146799","0.0-60.0","","","","10","","","","","","","","","","","","null","stimulus/SV_PolicingMSA/FL_4528/IMG_10_4528.jpg","null","","","","","","1","","","","",""
"street view slide show","image-button-response","61","147801","0.0-61.0","","","","10","","","","","","","","","","","","null","stimulus/SV_PolicingMSA/FL_4528/IMG_9_4528.jpg","null","","","","","","1","","","","",""
"street view slide show","image-button-response","62","148803","0.0-62.0","","","","10","","","","","","","","","","","","null","stimulus/SV_PolicingMSA/FL_4528/IMG_8_4528.jpg","null","","","","","","1","","","","",""
"street view slide show","image-button-response","63","149805","0.0-63.0","","","","10","","","","","","","","","","","","null","stimulus/SV_PolicingMSA/FL_4528/IMG_1_4528.jpg","null","","","","","","1","","","","",""
"street view slide show","image-button-response","64","150806","0.0-64.0","","","","10","","","","","","","","","","","","null","stimulus/SV_PolicingMSA/FL_4528/IMG_14_4528.jpg","null","","","","","","1","","","","",""
"street view slide show","image-button-response","65","151809","0.0-65.0","","","","10","","","","","","","","","","","","null","stimulus/SV_PolicingMSA/FL_4528/IMG_3_4528.jpg","null","","","","","","1","","","","",""
"dot matrix survey1","survey","66","153249","0.0-66.0","","","","10","","","","","","","","","","","","1435","","{""P0_Q0"":null,""P0_Q1"":null}","","","","","","1","[]","","","",""
"dot matrix survey2","survey","67","153801","0.0-67.0","","","","10","","","","","","","","","","","","547","","{""P0_Q0"":null,""P0_Q1"":null}","","","","","","1","[]","","","",""
"dot matrix survey3","survey","68","154737","0.0-68.0","","","","10","","","","","","","","","","","","932","","{""P0_Q0"":null,""P0_Q1"":null}","","","","","","1","[]","","","",""
"sliderTrial","html-slider-response","69","156010","0.0-69.0","","","","10","","","","","","","","","","","","1271","[""SV_PolicingMSA/FL_4528/IMG_7_4528.jpg"",""SV_PolicingMSA/FL_4528/IMG_6_4528.jpg"",""SV_PolicingMSA/FL_4528/IMG_10_4528.jpg"",""SV_PolicingMSA/FL_4528/IMG_9_4528.jpg"",""SV_PolicingMSA/FL_4528/IMG_8_4528.jpg"",""SV_PolicingMSA/FL_4528/IMG_1_4528.jpg"",""SV_PolicingMSA/FL_4528/IMG_14_4528.jpg"",""SV_PolicingMSA/FL_4528/IMG_3_4528.jpg""]","4","","","","","","1","","4","[""./rc_img/cop_condGroup_8_SafeStreets_autoscaled.png"",""./rc_img/cop_condGroup_8_CommunitySafety_autoscaled.png""]","4",""
"sliderTrial","html-slider-response","70","156426","0.0-70.0","","","","10","","","","","","","","","","","","415","[""SV_PolicingMSA/FL_4528/IMG_7_4528.jpg"",""SV_PolicingMSA/FL_4528/IMG_6_4528.jpg"",""SV_PolicingMSA/FL_4528/IMG_10_4528.jpg"",""SV_PolicingMSA/FL_4528/IMG_9_4528.jpg"",""SV_PolicingMSA/FL_4528/IMG_8_4528.jpg"",""SV_PolicingMSA/FL_4528/IMG_1_4528.jpg"",""SV_PolicingMSA/FL_4528/IMG_14_4528.jpg"",""SV_PolicingMSA/FL_4528/IMG_3_4528.jpg""]","4","","","","","","1","","4","[""./rc_img/cop_condGroup_3_SafeStreets_autoscaled.png"",""./rc_img/cop_condGroup_3_CommunitySafety_autoscaled.png""]","4",""
"sliderTrial","html-slider-response","71","156674","0.0-71.0","","","","10","","","","","","","","","","","","247","[""SV_PolicingMSA/FL_4528/IMG_7_4528.jpg"",""SV_PolicingMSA/FL_4528/IMG_6_4528.jpg"",""SV_PolicingMSA/FL_4528/IMG_10_4528.jpg"",""SV_PolicingMSA/FL_4528/IMG_9_4528.jpg"",""SV_PolicingMSA/FL_4528/IMG_8_4528.jpg"",""SV_PolicingMSA/FL_4528/IMG_1_4528.jpg"",""SV_PolicingMSA/FL_4528/IMG_14_4528.jpg"",""SV_PolicingMSA/FL_4528/IMG_3_4528.jpg""]","4","","","","","","1","","4","[""./rc_img/cop_condGroup_2_CommunitySafety_autoscaled.png"",""./rc_img/cop_condGroup_2_SafeStreets_autoscaled.png""]","4",""
"sliderTrial_attention","html-slider-response","72","156874","0.0-72.0","","","","10","","","","","","","","","","","","198","[""SV_PolicingMSA/FL_4528/IMG_7_4528.jpg"",""SV_PolicingMSA/FL_4528/IMG_6_4528.jpg"",""SV_PolicingMSA/FL_4528/IMG_10_4528.jpg"",""SV_PolicingMSA/FL_4528/IMG_9_4528.jpg"",""SV_PolicingMSA/FL_4528/IMG_8_4528.jpg"",""SV_PolicingMSA/FL_4528/IMG_1_4528.jpg"",""SV_PolicingMSA/FL_4528/IMG_14_4528.jpg"",""SV_PolicingMSA/FL_4528/IMG_3_4528.jpg""]","4","","","","","","1","","4","[""./assets/img/attnchk.png"",""./assets/img/attnchk.png""]","",""
"sliderTrial","html-slider-response","73","157418","0.0-73.0","","","","10","","","","","","","","","","","","543","[""SV_PolicingMSA/FL_4528/IMG_7_4528.jpg"",""SV_PolicingMSA/FL_4528/IMG_6_4528.jpg"",""SV_PolicingMSA/FL_4528/IMG_10_4528.jpg"",""SV_PolicingMSA/FL_4528/IMG_9_4528.jpg"",""SV_PolicingMSA/FL_4528/IMG_8_4528.jpg"",""SV_PolicingMSA/FL_4528/IMG_1_4528.jpg"",""SV_PolicingMSA/FL_4528/IMG_14_4528.jpg"",""SV_PolicingMSA/FL_4528/IMG_3_4528.jpg""]","4","","","","","","1","","4","[""./rc_img/cop_condGroup_4_SafeStreets_autoscaled.png"",""./rc_img/cop_condGroup_4_CommunitySafety_autoscaled.png""]","4",""
"sliderTrial","html-slider-response","74","157722","0.0-74.0","","","","10","","","","","","","","","","","","302","[""SV_PolicingMSA/FL_4528/IMG_7_4528.jpg"",""SV_PolicingMSA/FL_4528/IMG_6_4528.jpg"",""SV_PolicingMSA/FL_4528/IMG_10_4528.jpg"",""SV_PolicingMSA/FL_4528/IMG_9_4528.jpg"",""SV_PolicingMSA/FL_4528/IMG_8_4528.jpg"",""SV_PolicingMSA/FL_4528/IMG_1_4528.jpg"",""SV_PolicingMSA/FL_4528/IMG_14_4528.jpg"",""SV_PolicingMSA/FL_4528/IMG_3_4528.jpg""]","4","","","","","","1","","4","[""./rc_img/cop_condGroup_11_SafeStreets_autoscaled.png"",""./rc_img/cop_condGroup_11_CommunitySafety_autoscaled.png""]","4",""
"half-way","html-button-response","75","159266","0.0-75.0","","","","10","","","","","","","","","","","","1544","
    <h3>You are now half way through the study.</h3>
    <p>Please take a quick, 15-second break before you continue.</p>
    <img src='assets/img/countdown-15.gif'>
    <p>The study will automatically advance forward after the countdown is complete. <br> However, you may click ""Next"" to advance forward now if you wish.</p>
    ","0","","","","","","","","","","",""
"before_SVSlide_prompt","html-button-response","76","161370","0.0-76.0","","","","10","","","","","","","","","","","","2103","Click [Next] to see the next neighborhood!","0","","","","","","","","","","",""
"street view slide show","image-button-response","77","162373","0.0-77.0","","","","10","","","","","","","","","","","","null","stimulus/SV_PolicingMSA/FL_4515/IMG_8_4515.jpg","null","","","","","","0","","","","",""
"street view slide show","image-button-response","78","163374","0.0-78.0","","","","10","","","","","","","","","","","","null","stimulus/SV_PolicingMSA/FL_4515/IMG_10_4515.jpg","null","","","","","","0","","","","",""
"street view slide show","image-button-response","79","164376","0.0-79.0","","","","10","","","","","","","","","","","","null","stimulus/SV_PolicingMSA/FL_4515/IMG_4_4515.jpg","null","","","","","","0","","","","",""
"street view slide show","image-button-response","80","165376","0.0-80.0","","","","10","","","","","","","","","","","","null","stimulus/SV_PolicingMSA/FL_4515/IMG_13_4515.jpg","null","","","","","","0","","","","",""
"street view slide show","image-button-response","81","166378","0.0-81.0","","","","10","","","","","","","","","","","","null","stimulus/SV_PolicingMSA/FL_4515/IMG_0_4515.jpg","null","","","","","","0","","","","",""
"street view slide show","image-button-response","82","167380","0.0-82.0","","","","10","","","","","","","","","","","","null","stimulus/SV_PolicingMSA/FL_4515/IMG_6_4515.jpg","null","","","","","","0","","","","",""
"street view slide show","image-button-response","83","168381","0.0-83.0","","","","10","","","","","","","","","","","","null","stimulus/SV_PolicingMSA/FL_4515/IMG_1_4515.jpg","null","","","","","","0","","","","",""
"street view slide show","image-button-response","84","169383","0.0-84.0","","","","10","","","","","","","","","","","","null","stimulus/SV_PolicingMSA/FL_4515/IMG_12_4515.jpg","null","","","","","","0","","","","",""
"dot matrix survey1","survey","85","170821","0.0-85.0","","","","10","","","","","","","","","","","","1432","","{""P0_Q0"":null,""P0_Q1"":null}","","","","","","0","[]","","","",""
"dot matrix survey2","survey","86","171373","0.0-86.0","","","","10","","","","","","","","","","","","546","","{""P0_Q0"":null,""P0_Q1"":null}","","","","","","0","[]","","","",""
"dot matrix survey3","survey","87","173020","0.0-87.0","","","","10","","","","","","","","","","","","1642","","{""P0_Q0"":null,""P0_Q1"":null}","","","","","","0","[]","","","",""
"sliderTrial","html-slider-response","88","174474","0.0-88.0","","","","10","","","","","","","","","","","","1453","[""SV_PolicingMSA/FL_4515/IMG_8_4515.jpg"",""SV_PolicingMSA/FL_4515/IMG_10_4515.jpg"",""SV_PolicingMSA/FL_4515/IMG_4_4515.jpg"",""SV_PolicingMSA/FL_4515/IMG_13_4515.jpg"",""SV_PolicingMSA/FL_4515/IMG_0_4515.jpg"",""SV_PolicingMSA/FL_4515/IMG_6_4515.jpg"",""SV_PolicingMSA/FL_4515/IMG_1_4515.jpg"",""SV_PolicingMSA/FL_4515/IMG_12_4515.jpg""]","4","","","","","","0","","4","[""./rc_img/cop_condGroup_14_SafeStreets_autoscaled.png"",""./rc_img/cop_condGroup_14_CommunitySafety_autoscaled.png""]","4",""
"sliderTrial_attention","html-slider-response","89","174803","0.0-89.0","","","","10","","","","","","","","","","","","327","[""SV_PolicingMSA/FL_4515/IMG_8_4515.jpg"",""SV_PolicingMSA/FL_4515/IMG_10_4515.jpg"",""SV_PolicingMSA/FL_4515/IMG_4_4515.jpg"",""SV_PolicingMSA/FL_4515/IMG_13_4515.jpg"",""SV_PolicingMSA/FL_4515/IMG_0_4515.jpg"",""SV_PolicingMSA/FL_4515/IMG_6_4515.jpg"",""SV_PolicingMSA/FL_4515/IMG_1_4515.jpg"",""SV_PolicingMSA/FL_4515/IMG_12_4515.jpg""]","4","","","","","","0","","4","[""./assets/img/attnchk.png"",""./assets/img/attnchk.png""]","",""
"sliderTrial","html-slider-response","90","175010","0.0-90.0","","","","10","","","","","","","","","","","","206","[""SV_PolicingMSA/FL_4515/IMG_8_4515.jpg"",""SV_PolicingMSA/FL_4515/IMG_10_4515.jpg"",""SV_PolicingMSA/FL_4515/IMG_4_4515.jpg"",""SV_PolicingMSA/FL_4515/IMG_13_4515.jpg"",""SV_PolicingMSA/FL_4515/IMG_0_4515.jpg"",""SV_PolicingMSA/FL_4515/IMG_6_4515.jpg"",""SV_PolicingMSA/FL_4515/IMG_1_4515.jpg"",""SV_PolicingMSA/FL_4515/IMG_12_4515.jpg""]","4","","","","","","0","","4","[""./rc_img/cop_condGroup_19_CommunitySafety_autoscaled.png"",""./rc_img/cop_condGroup_19_SafeStreets_autoscaled.png""]","4",""
"sliderTrial","html-slider-response","91","175242","0.0-91.0","","","","10","","","","","","","","","","","","231","[""SV_PolicingMSA/FL_4515/IMG_8_4515.jpg"",""SV_PolicingMSA/FL_4515/IMG_10_4515.jpg"",""SV_PolicingMSA/FL_4515/IMG_4_4515.jpg"",""SV_PolicingMSA/FL_4515/IMG_13_4515.jpg"",""SV_PolicingMSA/FL_4515/IMG_0_4515.jpg"",""SV_PolicingMSA/FL_4515/IMG_6_4515.jpg"",""SV_PolicingMSA/FL_4515/IMG_1_4515.jpg"",""SV_PolicingMSA/FL_4515/IMG_12_4515.jpg""]","4","","","","","","0","","4","[""./rc_img/cop_condGroup_20_SafeStreets_autoscaled.png"",""./rc_img/cop_condGroup_20_CommunitySafety_autoscaled.png""]","4",""
"sliderTrial","html-slider-response","92","175442","0.0-92.0","","","","10","","","","","","","","","","","","199","[""SV_PolicingMSA/FL_4515/IMG_8_4515.jpg"",""SV_PolicingMSA/FL_4515/IMG_10_4515.jpg"",""SV_PolicingMSA/FL_4515/IMG_4_4515.jpg"",""SV_PolicingMSA/FL_4515/IMG_13_4515.jpg"",""SV_PolicingMSA/FL_4515/IMG_0_4515.jpg"",""SV_PolicingMSA/FL_4515/IMG_6_4515.jpg"",""SV_PolicingMSA/FL_4515/IMG_1_4515.jpg"",""SV_PolicingMSA/FL_4515/IMG_12_4515.jpg""]","4","","","","","","0","","4","[""./rc_img/cop_condGroup_1_CommunitySafety_autoscaled.png"",""./rc_img/cop_condGroup_1_SafeStreets_autoscaled.png""]","4",""
"sliderTrial","html-slider-response","93","175650","0.0-93.0","","","","10","","","","","","","","","","","","206","[""SV_PolicingMSA/FL_4515/IMG_8_4515.jpg"",""SV_PolicingMSA/FL_4515/IMG_10_4515.jpg"",""SV_PolicingMSA/FL_4515/IMG_4_4515.jpg"",""SV_PolicingMSA/FL_4515/IMG_13_4515.jpg"",""SV_PolicingMSA/FL_4515/IMG_0_4515.jpg"",""SV_PolicingMSA/FL_4515/IMG_6_4515.jpg"",""SV_PolicingMSA/FL_4515/IMG_1_4515.jpg"",""SV_PolicingMSA/FL_4515/IMG_12_4515.jpg""]","4","","","","","","0","","4","[""./rc_img/cop_condGroup_12_CommunitySafety_autoscaled.png"",""./rc_img/cop_condGroup_12_SafeStreets_autoscaled.png""]","4",""
"before_SVSlide_prompt","html-button-response","94","177026","0.0-94.0","","","","10","","","","","","","","","","","","1376","Click [Next] to see the next neighborhood!","0","","","","","","","","","","",""
"street view slide show","image-button-response","95","178028","0.0-95.0","","","","10","","","","","","","","","","","","null","stimulus/SV_PolicingMSA/FL_1410/IMG_8_1410.jpg","null","","","","","","2","","","","",""
"street view slide show","image-button-response","96","179031","0.0-96.0","","","","10","","","","","","","","","","","","null","stimulus/SV_PolicingMSA/FL_1410/IMG_9_1410.jpg","null","","","","","","2","","","","",""
"street view slide show","image-button-response","97","180033","0.0-97.0","","","","10","","","","","","","","","","","","null","stimulus/SV_PolicingMSA/FL_1410/IMG_1_1410.jpg","null","","","","","","2","","","","",""
"street view slide show","image-button-response","98","181035","0.0-98.0","","","","10","","","","","","","","","","","","null","stimulus/SV_PolicingMSA/FL_1410/IMG_5_1410.jpg","null","","","","","","2","","","","",""
"street view slide show","image-button-response","99","182036","0.0-99.0","","","","10","","","","","","","","","","","","null","stimulus/SV_PolicingMSA/FL_1410/IMG_10_1410.jpg","null","","","","","","2","","","","",""
"street view slide show","image-button-response","100","183038","0.0-100.0","","","","10","","","","","","","","","","","","null","stimulus/SV_PolicingMSA/FL_1410/IMG_11_1410.jpg","null","","","","","","2","","","","",""
"street view slide show","image-button-response","101","184040","0.0-101.0","","","","10","","","","","","","","","","","","null","stimulus/SV_PolicingMSA/FL_1410/IMG_4_1410.jpg","null","","","","","","2","","","","",""
"street view slide show","image-button-response","102","185042","0.0-102.0","","","","10","","","","","","","","","","","","null","stimulus/SV_PolicingMSA/FL_1410/IMG_6_1410.jpg","null","","","","","","2","","","","",""
"dot matrix survey1","survey","103","186617","0.0-103.0","","","","10","","","","","","","","","","","","1569","","{""P0_Q0"":null,""P0_Q1"":null}","","","","","","2","[]","","","",""
"dot matrix survey2","survey","104","187105","0.0-104.0","","","","10","","","","","","","","","","","","484","","{""P0_Q0"":null,""P0_Q1"":null}","","","","","","2","[]","","","",""
"dot matrix survey3","survey","105","187929","0.0-105.0","","","","10","","","","","","","","","","","","819","","{""P0_Q0"":null,""P0_Q1"":null}","","","","","","2","[]","","","",""
"sliderTrial","html-slider-response","106","189226","0.0-106.0","","","","10","","","","","","","","","","","","1295","[""SV_PolicingMSA/FL_1410/IMG_8_1410.jpg"",""SV_PolicingMSA/FL_1410/IMG_9_1410.jpg"",""SV_PolicingMSA/FL_1410/IMG_1_1410.jpg"",""SV_PolicingMSA/FL_1410/IMG_5_1410.jpg"",""SV_PolicingMSA/FL_1410/IMG_10_1410.jpg"",""SV_PolicingMSA/FL_1410/IMG_11_1410.jpg"",""SV_PolicingMSA/FL_1410/IMG_4_1410.jpg"",""SV_PolicingMSA/FL_1410/IMG_6_1410.jpg""]","4","","","","","","2","","4","[""./rc_img/cop_condGroup_14_SafeStreets_autoscaled.png"",""./rc_img/cop_condGroup_14_CommunitySafety_autoscaled.png""]","4",""
"sliderTrial","html-slider-response","107","189658","0.0-107.0","","","","10","","","","","","","","","","","","431","[""SV_PolicingMSA/FL_1410/IMG_8_1410.jpg"",""SV_PolicingMSA/FL_1410/IMG_9_1410.jpg"",""SV_PolicingMSA/FL_1410/IMG_1_1410.jpg"",""SV_PolicingMSA/FL_1410/IMG_5_1410.jpg"",""SV_PolicingMSA/FL_1410/IMG_10_1410.jpg"",""SV_PolicingMSA/FL_1410/IMG_11_1410.jpg"",""SV_PolicingMSA/FL_1410/IMG_4_1410.jpg"",""SV_PolicingMSA/FL_1410/IMG_6_1410.jpg""]","4","","","","","","2","","4","[""./rc_img/cop_condGroup_19_CommunitySafety_autoscaled.png"",""./rc_img/cop_condGroup_19_SafeStreets_autoscaled.png""]","4",""
"sliderTrial","html-slider-response","108","189842","0.0-108.0","","","","10","","","","","","","","","","","","183","[""SV_PolicingMSA/FL_1410/IMG_8_1410.jpg"",""SV_PolicingMSA/FL_1410/IMG_9_1410.jpg"",""SV_PolicingMSA/FL_1410/IMG_1_1410.jpg"",""SV_PolicingMSA/FL_1410/IMG_5_1410.jpg"",""SV_PolicingMSA/FL_1410/IMG_10_1410.jpg"",""SV_PolicingMSA/FL_1410/IMG_11_1410.jpg"",""SV_PolicingMSA/FL_1410/IMG_4_1410.jpg"",""SV_PolicingMSA/FL_1410/IMG_6_1410.jpg""]","4","","","","","","2","","4","[""./rc_img/cop_condGroup_20_SafeStreets_autoscaled.png"",""./rc_img/cop_condGroup_20_CommunitySafety_autoscaled.png""]","4",""
"sliderTrial","html-slider-response","109","190058","0.0-109.0","","","","10","","","","","","","","","","","","215","[""SV_PolicingMSA/FL_1410/IMG_8_1410.jpg"",""SV_PolicingMSA/FL_1410/IMG_9_1410.jpg"",""SV_PolicingMSA/FL_1410/IMG_1_1410.jpg"",""SV_PolicingMSA/FL_1410/IMG_5_1410.jpg"",""SV_PolicingMSA/FL_1410/IMG_10_1410.jpg"",""SV_PolicingMSA/FL_1410/IMG_11_1410.jpg"",""SV_PolicingMSA/FL_1410/IMG_4_1410.jpg"",""SV_PolicingMSA/FL_1410/IMG_6_1410.jpg""]","4","","","","","","2","","4","[""./rc_img/cop_condGroup_1_CommunitySafety_autoscaled.png"",""./rc_img/cop_condGroup_1_SafeStreets_autoscaled.png""]","4",""
"sliderTrial","html-slider-response","110","190306","0.0-110.0","","","","10","","","","","","","","","","","","247","[""SV_PolicingMSA/FL_1410/IMG_8_1410.jpg"",""SV_PolicingMSA/FL_1410/IMG_9_1410.jpg"",""SV_PolicingMSA/FL_1410/IMG_1_1410.jpg"",""SV_PolicingMSA/FL_1410/IMG_5_1410.jpg"",""SV_PolicingMSA/FL_1410/IMG_10_1410.jpg"",""SV_PolicingMSA/FL_1410/IMG_11_1410.jpg"",""SV_PolicingMSA/FL_1410/IMG_4_1410.jpg"",""SV_PolicingMSA/FL_1410/IMG_6_1410.jpg""]","4","","","","","","2","","4","[""./rc_img/cop_condGroup_12_CommunitySafety_autoscaled.png"",""./rc_img/cop_condGroup_12_SafeStreets_autoscaled.png""]","4",""
"before_SVSlide_prompt","html-button-response","111","191394","0.0-111.0","","","","10","","","","","","","","","","","","1088","Click [Next] to see the next neighborhood!","0","","","","","","","","","","",""
"street view slide show","image-button-response","112","192396","0.0-112.0","","","","10","","","","","","","","","","","","null","stimulus/SV_PolicingMSA/FL_4023/IMG_4_4023.jpg","null","","","","","","4","","","","",""
"street view slide show","image-button-response","113","193397","0.0-113.0","","","","10","","","","","","","","","","","","null","stimulus/SV_PolicingMSA/FL_4023/IMG_10_4023.jpg","null","","","","","","4","","","","",""
"street view slide show","image-button-response","114","194399","0.0-114.0","","","","10","","","","","","","","","","","","null","stimulus/SV_PolicingMSA/FL_4023/IMG_1_4023.jpg","null","","","","","","4","","","","",""
"street view slide show","image-button-response","115","195400","0.0-115.0","","","","10","","","","","","","","","","","","null","stimulus/SV_PolicingMSA/FL_4023/IMG_2_4023.jpg","null","","","","","","4","","","","",""
"street view slide show","image-button-response","116","196402","0.0-116.0","","","","10","","","","","","","","","","","","null","stimulus/SV_PolicingMSA/FL_4023/IMG_5_4023.jpg","null","","","","","","4","","","","",""
"street view slide show","image-button-response","117","197404","0.0-117.0","","","","10","","","","","","","","","","","","null","stimulus/SV_PolicingMSA/FL_4023/IMG_12_4023.jpg","null","","","","","","4","","","","",""
"street view slide show","image-button-response","118","198406","0.0-118.0","","","","10","","","","","","","","","","","","null","stimulus/SV_PolicingMSA/FL_4023/IMG_6_4023.jpg","null","","","","","","4","","","","",""
"street view slide show","image-button-response","119","199408","0.0-119.0","","","","10","","","","","","","","","","","","null","stimulus/SV_PolicingMSA/FL_4023/IMG_9_4023.jpg","null","","","","","","4","","","","",""
"dot matrix survey1","survey","120","201435","0.0-120.0","","","","10","","","","","","","","","","","","2021","","{""P0_Q0"":null,""P0_Q1"":null}","","","","","","4","[]","","","",""
"dot matrix survey2","survey","121","201953","0.0-121.0","","","","10","","","","","","","","","","","","514","","{""P0_Q0"":null,""P0_Q1"":null}","","","","","","4","[]","","","",""
"dot matrix survey3","survey","122","202738","0.0-122.0","","","","10","","","","","","","","","","","","780","","{""P0_Q0"":null,""P0_Q1"":null}","","","","","","4","[]","","","",""
"sliderTrial","html-slider-response","123","203946","0.0-123.0","","","","10","","","","","","","","","","","","1207","[""SV_PolicingMSA/FL_4023/IMG_4_4023.jpg"",""SV_PolicingMSA/FL_4023/IMG_10_4023.jpg"",""SV_PolicingMSA/FL_4023/IMG_1_4023.jpg"",""SV_PolicingMSA/FL_4023/IMG_2_4023.jpg"",""SV_PolicingMSA/FL_4023/IMG_5_4023.jpg"",""SV_PolicingMSA/FL_4023/IMG_12_4023.jpg"",""SV_PolicingMSA/FL_4023/IMG_6_4023.jpg"",""SV_PolicingMSA/FL_4023/IMG_9_4023.jpg""]","4","","","","","","4","","4","[""./rc_img/cop_condGroup_15_SafeStreets_autoscaled.png"",""./rc_img/cop_condGroup_15_CommunitySafety_autoscaled.png""]","4",""
"sliderTrial","html-slider-response","124","204426","0.0-124.0","","","","10","","","","","","","","","","","","479","[""SV_PolicingMSA/FL_4023/IMG_4_4023.jpg"",""SV_PolicingMSA/FL_4023/IMG_10_4023.jpg"",""SV_PolicingMSA/FL_4023/IMG_1_4023.jpg"",""SV_PolicingMSA/FL_4023/IMG_2_4023.jpg"",""SV_PolicingMSA/FL_4023/IMG_5_4023.jpg"",""SV_PolicingMSA/FL_4023/IMG_12_4023.jpg"",""SV_PolicingMSA/FL_4023/IMG_6_4023.jpg"",""SV_PolicingMSA/FL_4023/IMG_9_4023.jpg""]","4","","","","","","4","","4","[""./rc_img/cop_condGroup_18_CommunitySafety_autoscaled.png"",""./rc_img/cop_condGroup_18_SafeStreets_autoscaled.png""]","4",""
"sliderTrial","html-slider-response","125","204618","0.0-125.0","","","","10","","","","","","","","","","","","191","[""SV_PolicingMSA/FL_4023/IMG_4_4023.jpg"",""SV_PolicingMSA/FL_4023/IMG_10_4023.jpg"",""SV_PolicingMSA/FL_4023/IMG_1_4023.jpg"",""SV_PolicingMSA/FL_4023/IMG_2_4023.jpg"",""SV_PolicingMSA/FL_4023/IMG_5_4023.jpg"",""SV_PolicingMSA/FL_4023/IMG_12_4023.jpg"",""SV_PolicingMSA/FL_4023/IMG_6_4023.jpg"",""SV_PolicingMSA/FL_4023/IMG_9_4023.jpg""]","4","","","","","","4","","4","[""./rc_img/cop_condGroup_6_CommunitySafety_autoscaled.png"",""./rc_img/cop_condGroup_6_SafeStreets_autoscaled.png""]","4",""
"sliderTrial","html-slider-response","126","204874","0.0-126.0","","","","10","","","","","","","","","","","","255","[""SV_PolicingMSA/FL_4023/IMG_4_4023.jpg"",""SV_PolicingMSA/FL_4023/IMG_10_4023.jpg"",""SV_PolicingMSA/FL_4023/IMG_1_4023.jpg"",""SV_PolicingMSA/FL_4023/IMG_2_4023.jpg"",""SV_PolicingMSA/FL_4023/IMG_5_4023.jpg"",""SV_PolicingMSA/FL_4023/IMG_12_4023.jpg"",""SV_PolicingMSA/FL_4023/IMG_6_4023.jpg"",""SV_PolicingMSA/FL_4023/IMG_9_4023.jpg""]","4","","","","","","4","","4","[""./rc_img/cop_condGroup_5_CommunitySafety_autoscaled.png"",""./rc_img/cop_condGroup_5_SafeStreets_autoscaled.png""]","4",""
"sliderTrial","html-slider-response","127","205116","0.0-127.0","","","","10","","","","","","","","","","","","241","[""SV_PolicingMSA/FL_4023/IMG_4_4023.jpg"",""SV_PolicingMSA/FL_4023/IMG_10_4023.jpg"",""SV_PolicingMSA/FL_4023/IMG_1_4023.jpg"",""SV_PolicingMSA/FL_4023/IMG_2_4023.jpg"",""SV_PolicingMSA/FL_4023/IMG_5_4023.jpg"",""SV_PolicingMSA/FL_4023/IMG_12_4023.jpg"",""SV_PolicingMSA/FL_4023/IMG_6_4023.jpg"",""SV_PolicingMSA/FL_4023/IMG_9_4023.jpg""]","4","","","","","","4","","4","[""./rc_img/cop_condGroup_16_CommunitySafety_autoscaled.png"",""./rc_img/cop_condGroup_16_SafeStreets_autoscaled.png""]","4",""
"before_SVSlide_prompt","html-button-response","128","206418","0.0-128.0","","","","10","","","","","","","","","","","","1302","Click [Next] to see the next neighborhood!","0","","","","","","","","","","",""
"street view slide show","image-button-response","129","207420","0.0-129.0","","","","10","","","","","","","","","","","","null","stimulus/SV_PolicingMSA/FL_4887/IMG_11_4887.jpg","null","","","","","","5","","","","",""
"street view slide show","image-button-response","130","208421","0.0-130.0","","","","10","","","","","","","","","","","","null","stimulus/SV_PolicingMSA/FL_4887/IMG_7_4887.jpg","null","","","","","","5","","","","",""
"street view slide show","image-button-response","131","209424","0.0-131.0","","","","10","","","","","","","","","","","","null","stimulus/SV_PolicingMSA/FL_4887/IMG_9_4887.jpg","null","","","","","","5","","","","",""
"street view slide show","image-button-response","132","210426","0.0-132.0","","","","10","","","","","","","","","","","","null","stimulus/SV_PolicingMSA/FL_4887/IMG_6_4887.jpg","null","","","","","","5","","","","",""
"street view slide show","image-button-response","133","211427","0.0-133.0","","","","10","","","","","","","","","","","","null","stimulus/SV_PolicingMSA/FL_4887/IMG_10_4887.jpg","null","","","","","","5","","","","",""
"street view slide show","image-button-response","134","212428","0.0-134.0","","","","10","","","","","","","","","","","","null","stimulus/SV_PolicingMSA/FL_4887/IMG_2_4887.jpg","null","","","","","","5","","","","",""
"street view slide show","image-button-response","135","213429","0.0-135.0","","","","10","","","","","","","","","","","","null","stimulus/SV_PolicingMSA/FL_4887/IMG_0_4887.jpg","null","","","","","","5","","","","",""
"street view slide show","image-button-response","136","214432","0.0-136.0","","","","10","","","","","","","","","","","","null","stimulus/SV_PolicingMSA/FL_4887/IMG_8_4887.jpg","null","","","","","","5","","","","",""
"dot matrix survey1","survey","137","216362","0.0-137.0","","","","10","","","","","","","","","","","","1923","","{""P0_Q0"":null,""P0_Q1"":null}","","","","","","5","[]","","","",""
"dot matrix survey2","survey","138","216888","0.0-138.0","","","","10","","","","","","","","","","","","522","","{""P0_Q0"":null,""P0_Q1"":null}","","","","","","5","[]","","","",""
"dot matrix survey3","survey","139","217716","0.0-139.0","","","","10","","","","","","","","","","","","823","","{""P0_Q0"":null,""P0_Q1"":null}","","","","","","5","[]","","","",""
"sliderTrial","html-slider-response","140","218890","0.0-140.0","","","","10","","","","","","","","","","","","1173","[""SV_PolicingMSA/FL_4887/IMG_11_4887.jpg"",""SV_PolicingMSA/FL_4887/IMG_7_4887.jpg"",""SV_PolicingMSA/FL_4887/IMG_9_4887.jpg"",""SV_PolicingMSA/FL_4887/IMG_6_4887.jpg"",""SV_PolicingMSA/FL_4887/IMG_10_4887.jpg"",""SV_PolicingMSA/FL_4887/IMG_2_4887.jpg"",""SV_PolicingMSA/FL_4887/IMG_0_4887.jpg"",""SV_PolicingMSA/FL_4887/IMG_8_4887.jpg""]","4","","","","","","5","","4","[""./rc_img/cop_condGroup_13_CommunitySafety_autoscaled.png"",""./rc_img/cop_condGroup_13_SafeStreets_autoscaled.png""]","4",""
"sliderTrial","html-slider-response","141","219459","0.0-141.0","","","","10","","","","","","","","","","","","567","[""SV_PolicingMSA/FL_4887/IMG_11_4887.jpg"",""SV_PolicingMSA/FL_4887/IMG_7_4887.jpg"",""SV_PolicingMSA/FL_4887/IMG_9_4887.jpg"",""SV_PolicingMSA/FL_4887/IMG_6_4887.jpg"",""SV_PolicingMSA/FL_4887/IMG_10_4887.jpg"",""SV_PolicingMSA/FL_4887/IMG_2_4887.jpg"",""SV_PolicingMSA/FL_4887/IMG_0_4887.jpg"",""SV_PolicingMSA/FL_4887/IMG_8_4887.jpg""]","4","","","","","","5","","4","[""./rc_img/cop_condGroup_7_CommunitySafety_autoscaled.png"",""./rc_img/cop_condGroup_7_SafeStreets_autoscaled.png""]","4",""
"sliderTrial","html-slider-response","142","219658","0.0-142.0","","","","10","","","","","","","","","","","","198","[""SV_PolicingMSA/FL_4887/IMG_11_4887.jpg"",""SV_PolicingMSA/FL_4887/IMG_7_4887.jpg"",""SV_PolicingMSA/FL_4887/IMG_9_4887.jpg"",""SV_PolicingMSA/FL_4887/IMG_6_4887.jpg"",""SV_PolicingMSA/FL_4887/IMG_10_4887.jpg"",""SV_PolicingMSA/FL_4887/IMG_2_4887.jpg"",""SV_PolicingMSA/FL_4887/IMG_0_4887.jpg"",""SV_PolicingMSA/FL_4887/IMG_8_4887.jpg""]","4","","","","","","5","","4","[""./rc_img/cop_condGroup_9_SafeStreets_autoscaled.png"",""./rc_img/cop_condGroup_9_CommunitySafety_autoscaled.png""]","4",""
"sliderTrial","html-slider-response","143","219898","0.0-143.0","","","","10","","","","","","","","","","","","239","[""SV_PolicingMSA/FL_4887/IMG_11_4887.jpg"",""SV_PolicingMSA/FL_4887/IMG_7_4887.jpg"",""SV_PolicingMSA/FL_4887/IMG_9_4887.jpg"",""SV_PolicingMSA/FL_4887/IMG_6_4887.jpg"",""SV_PolicingMSA/FL_4887/IMG_10_4887.jpg"",""SV_PolicingMSA/FL_4887/IMG_2_4887.jpg"",""SV_PolicingMSA/FL_4887/IMG_0_4887.jpg"",""SV_PolicingMSA/FL_4887/IMG_8_4887.jpg""]","4","","","","","","5","","4","[""./rc_img/cop_condGroup_17_SafeStreets_autoscaled.png"",""./rc_img/cop_condGroup_17_CommunitySafety_autoscaled.png""]","4",""
"sliderTrial","html-slider-response","144","220306","0.0-144.0","","","","10","","","","","","","","","","","","407","[""SV_PolicingMSA/FL_4887/IMG_11_4887.jpg"",""SV_PolicingMSA/FL_4887/IMG_7_4887.jpg"",""SV_PolicingMSA/FL_4887/IMG_9_4887.jpg"",""SV_PolicingMSA/FL_4887/IMG_6_4887.jpg"",""SV_PolicingMSA/FL_4887/IMG_10_4887.jpg"",""SV_PolicingMSA/FL_4887/IMG_2_4887.jpg"",""SV_PolicingMSA/FL_4887/IMG_0_4887.jpg"",""SV_PolicingMSA/FL_4887/IMG_8_4887.jpg""]","4","","","","","","5","","4","[""./rc_img/cop_condGroup_10_CommunitySafety_autoscaled.png"",""./rc_img/cop_condGroup_10_SafeStreets_autoscaled.png""]","4",""
"demographics","survey-html-form","145","233716","0.0-145.0","","","","10","","","","","","","","","","","","13408","","{""age"":""26"",""sex"":""not-to-say"",""gender"":""man"",""gender-self-describe"":"""",""zipcode"":""""}","","","","","","","","","","",""
"demographics-list","survey","146","253169","0.0-146.0","","","","10","","","","","","","","","","","","19432","","{""P0_Q0"":null,""race-ethnicity"":[""South East Asian"",""Black or of African ancestry"",""Middle Eastern"",""None of the above""],""education"":"""",""P1_Q0"":null,""ideology"":"""",""P2_Q0"":null,""num-moves"":2,""P3_Q0"":null,""social-ladder"":8}","","","","","","","[]","","","",""
"end-survey","survey-text","147","255427","0.0-147.0","","","","10","","","","","","","","","","","","2254","","{""Q0"":""""}","","","","","","","","","","","0"
"end-survey","html-button-response","148","258946","0.0-148.0","","","","10","","","","","","","","","","","","3519","
    You've reached the end of the survey. <br><br> 
    <b>Do not close or refresh this window.</b><br>
    On the next page, you will be automatically redirected to Prolific. <br><br>

    <div class=""alert alert-warning""><b>
    </div>
","0","","","","","","","","","","",""
