"task","trial_type","trial_index","time_elapsed","internal_node_id","subject_id","study_id","session_id","section","width","height","webaudio","browser","browser_version","mobile","os","fullscreen","vsync_rate","webcam","microphone","rt","stimulus","response","success","timeout","failed_images","failed_audio","failed_video","block","accuracy","slider_start","choices","standardized_response","correct","num_attention_checks_correct"
"pavlovia-init","pavlovia","0","1035","0.0-0.0","","656776a7904ae00d6b91d1dd","6568ad6677e50c0d89c7a320","8","","","","","","","","","","","","","","","","","","","","","","","","","",""
"browser-check","browser-check","1","2048","0.0-1.0","","656776a7904ae00d6b91d1dd","6568ad6677e50c0d89c7a320","8","1440","699","true","chrome","119.0.0","false","Mac OS","true","60.08","true","true","","","","","","","","","","","","","","",""
"consent","html-button-response","2","5146","0.0-2.0","","656776a7904ae00d6b91d1dd","6568ad6677e50c0d89c7a320","8","","","","","","","","","","","","3097","
        <div style=""font-size: 80%; max-width:700px"">
            <h2>CONSENT FORM</h2>
        
            <div style=""text-align: left"">
            <h4>DESCRIPTION</h4>
            <p>
            You will complete a short task where you give your impressions of various neighborhoods and assign individuals to those spaces, and answer some questions about your thoughts and opinions.<br>
            The University of Michigan Institutional Review Board Health Sciences and Behavioral Sciences has determined that this study is exempt from IRB oversight.
            </p>

            <h4>TIME INVOLVEMENT</h4>
            <p>Your participation will take approximately 15 minutes. You will receive $3.15 upon completion of the study.</p>
        
            <h4>RISKS AND BENEFITS</h4>
            <p>
            The risks associated with this study are minimal. The benefits which may reasonably be expected to result from this study are none. We cannot and do not guarantee or promise that you will receive any benefits from this study.
            </p>
          
            <h4>SUBJECT'S RIGHTS</h4>
            <p>
            If you have read this form and have decided to participate in this project, please understand your participation is voluntary and you have the right to withdraw your consent or discontinue participation at any time without penalty or loss of benefits to which you are otherwise entitled. The alternative is not to participate. You have the right to refuse to answer particular questions. Your individual privacy will be maintained in all published and written data resulting from the study.
            </p>

            <h4>HUMAN SUBJECT APPROVAL</h4>
            <p>
            This study is exempt from ongoing IRB review.
            </p>

            <h4>CONTACT INFORMATION</h4>
            If you have any questions, concerns or complaints about this research, its procedures, risks and benefits, contact the Protocol Director, Nicholas Camp, npcamp@umich.edu, (443) 851-6783. <br>

            If you have questions about your rights as a research participant, or wish to obtain information, ask questions or discuss any concerns about this study with someone other than the researcher(s), please contact the following:<br><br>
            University of Michigan<br>
            Health Sciences and Behavioral Sciences Institutional Review Board (IRB-HSBS)<br>
            2800 Plymouth Road<br>
            Building 520, Room 1169Ann Arbor, MI 48109-2800<br>
            Telephone: 734-936-0933 or toll free (866) 936-0933<br>
            Fax: 734-936-1852<br>
            E-mail: irbhsbs@umich.edu<br><br>

            You can also contact the University of Michigan Compliance Hotline at 1-866-990-0111. You may also print this consent form to keep.
            <br><br>
            <div class=""alert alert-warning""><b>
            Do you consent to participate in this study? If you consent to participate in this study, please click “Accept and Continue”. If you select ""Decline and Exit"", you will be exited from the survey. <br>
            </b></div>
            </div>
        </div>
    ","1","","","","","","","","","","","",""
"","preload","3","7426","0.0-3.0","","656776a7904ae00d6b91d1dd","6568ad6677e50c0d89c7a320","8","","","","","","","","","","","","","","","true","false","[]","[]","[]","","","","","","",""
"instructions","html-button-response","4","14054","0.0-4.0","","656776a7904ae00d6b91d1dd","6568ad6677e50c0d89c7a320","8","","","","","","","","","","","","6627","
        <div class=""text-container"">
        <h1>Welcome to the study!</h1>
        
        <div class=""text-left"">
            <p>
                In this study, we are interested in what people can tell about spaces from Google Street View images. <br> Google Street View takes pictures of streets used for Google Earth and Google Maps. <br>You’ll see Google Street View images of different places and answer some questions about each one.<br>
            </p>
        </div>
        <img src = ""assets/img/example.png"" width = 500px, height = auto>
        <br>
    <br>
    ","0","","","","","","","","","","","",""
"instructions","html-button-response","5","18902","0.0-5.0","","656776a7904ae00d6b91d1dd","6568ad6677e50c0d89c7a320","8","","","","","","","","","","","","4847","
    <div class=""text-container"">
        <div class=""text-center"">
            <p>Please remember that your answers are completely anonymous.<br>Go with your gut response- there are no right or wrong answers!</p>
        </div>
    <br>
","0","","","","","","","","","","","",""
"before_SVSlide_prompt","html-button-response","6","20160","0.0-6.0","","656776a7904ae00d6b91d1dd","6568ad6677e50c0d89c7a320","8","","","","","","","","","","","","1258","Click [Next] to see the next neighborhood!","0","","","","","","","","","","","",""
"street view slide show","image-button-response","7","21176","0.0-7.0","","656776a7904ae00d6b91d1dd","6568ad6677e50c0d89c7a320","8","","","","","","","","","","","","null","stimulus/SV_PolicingMSA/TX_109/IMG_7_109.jpg","null","","","","","","3","","","","","",""
"street view slide show","image-button-response","8","22181","0.0-8.0","","656776a7904ae00d6b91d1dd","6568ad6677e50c0d89c7a320","8","","","","","","","","","","","","null","stimulus/SV_PolicingMSA/TX_109/IMG_3_109.jpg","null","","","","","","3","","","","","",""
"street view slide show","image-button-response","9","23186","0.0-9.0","","656776a7904ae00d6b91d1dd","6568ad6677e50c0d89c7a320","8","","","","","","","","","","","","null","stimulus/SV_PolicingMSA/TX_109/IMG_10_109.jpg","null","","","","","","3","","","","","",""
"street view slide show","image-button-response","10","24187","0.0-10.0","","656776a7904ae00d6b91d1dd","6568ad6677e50c0d89c7a320","8","","","","","","","","","","","","null","stimulus/SV_PolicingMSA/TX_109/IMG_0_109.jpg","null","","","","","","3","","","","","",""
"street view slide show","image-button-response","11","25192","0.0-11.0","","656776a7904ae00d6b91d1dd","6568ad6677e50c0d89c7a320","8","","","","","","","","","","","","null","stimulus/SV_PolicingMSA/TX_109/IMG_4_109.jpg","null","","","","","","3","","","","","",""
"street view slide show","image-button-response","12","26198","0.0-12.0","","656776a7904ae00d6b91d1dd","6568ad6677e50c0d89c7a320","8","","","","","","","","","","","","null","stimulus/SV_PolicingMSA/TX_109/IMG_13_109.jpg","null","","","","","","3","","","","","",""
"street view slide show","image-button-response","13","27203","0.0-13.0","","656776a7904ae00d6b91d1dd","6568ad6677e50c0d89c7a320","8","","","","","","","","","","","","null","stimulus/SV_PolicingMSA/TX_109/IMG_6_109.jpg","null","","","","","","3","","","","","",""
"street view slide show","image-button-response","14","28206","0.0-14.0","","656776a7904ae00d6b91d1dd","6568ad6677e50c0d89c7a320","8","","","","","","","","","","","","null","stimulus/SV_PolicingMSA/TX_109/IMG_14_109.jpg","null","","","","","","3","","","","","",""
"dot matrix survey1","survey","15","46272","0.0-15.0","","656776a7904ae00d6b91d1dd","6568ad6677e50c0d89c7a320","8","","","","","","","","","","","","17983","","{""P0_Q0"":null,""P0_Q1"":{""wealthy"":1,""safe"":1,""walkable"":0,""traditional"":2,""diverse"":1}}","","","","","","3","[]","","","","",""
"dot matrix survey2","survey","16","66460","0.0-16.0","","656776a7904ae00d6b91d1dd","6568ad6677e50c0d89c7a320","8","","","","","","","","","","","","20160","","{""P0_Q0"":null,""P0_Q1"":{""violence"":3,""crime"":3,""drug"":4,""schools"":0,""opportunities"":0}}","","","","","","3","[]","","","","",""
"dot matrix survey3","survey","17","85577","0.0-17.0","","656776a7904ae00d6b91d1dd","6568ad6677e50c0d89c7a320","8","","","","","","","","","","","","19098","","{""P0_Q0"":null,""P0_Q1"":{""movein"":0,""moveout"":4,""shopping"":1,""walk"":0,""park"":0,""school"":0}}","","","","","","3","[]","","","","",""
"sliderTrial","html-slider-response","18","104138","0.0-18.0","","656776a7904ae00d6b91d1dd","6568ad6677e50c0d89c7a320","8","","","","","","","","","","","","18552","[""SV_PolicingMSA/TX_109/IMG_7_109.jpg"",""SV_PolicingMSA/TX_109/IMG_3_109.jpg"",""SV_PolicingMSA/TX_109/IMG_10_109.jpg"",""SV_PolicingMSA/TX_109/IMG_0_109.jpg"",""SV_PolicingMSA/TX_109/IMG_4_109.jpg"",""SV_PolicingMSA/TX_109/IMG_13_109.jpg"",""SV_PolicingMSA/TX_109/IMG_6_109.jpg"",""SV_PolicingMSA/TX_109/IMG_14_109.jpg""]","6","","","","","","3","","4","[""./rc_img/cop_condGroup_6_CommunitySafety_autoscaled.png"",""./rc_img/cop_condGroup_6_SafeStreets_autoscaled.png""]","6","",""
"sliderTrial","html-slider-response","19","119218","0.0-19.0","","656776a7904ae00d6b91d1dd","6568ad6677e50c0d89c7a320","8","","","","","","","","","","","","15077","[""SV_PolicingMSA/TX_109/IMG_7_109.jpg"",""SV_PolicingMSA/TX_109/IMG_3_109.jpg"",""SV_PolicingMSA/TX_109/IMG_10_109.jpg"",""SV_PolicingMSA/TX_109/IMG_0_109.jpg"",""SV_PolicingMSA/TX_109/IMG_4_109.jpg"",""SV_PolicingMSA/TX_109/IMG_13_109.jpg"",""SV_PolicingMSA/TX_109/IMG_6_109.jpg"",""SV_PolicingMSA/TX_109/IMG_14_109.jpg""]","2","","","","","","3","","4","[""./rc_img/cop_condGroup_5_SafeStreets_autoscaled.png"",""./rc_img/cop_condGroup_5_CommunitySafety_autoscaled.png""]","6","",""
"sliderTrial","html-slider-response","20","123295","0.0-20.0","","656776a7904ae00d6b91d1dd","6568ad6677e50c0d89c7a320","8","","","","","","","","","","","","4074","[""SV_PolicingMSA/TX_109/IMG_7_109.jpg"",""SV_PolicingMSA/TX_109/IMG_3_109.jpg"",""SV_PolicingMSA/TX_109/IMG_10_109.jpg"",""SV_PolicingMSA/TX_109/IMG_0_109.jpg"",""SV_PolicingMSA/TX_109/IMG_4_109.jpg"",""SV_PolicingMSA/TX_109/IMG_13_109.jpg"",""SV_PolicingMSA/TX_109/IMG_6_109.jpg"",""SV_PolicingMSA/TX_109/IMG_14_109.jpg""]","4","","","","","","3","","4","[""./rc_img/cop_condGroup_19_CommunitySafety_autoscaled.png"",""./rc_img/cop_condGroup_19_SafeStreets_autoscaled.png""]","4","",""
"sliderTrial","html-slider-response","21","125937","0.0-21.0","","656776a7904ae00d6b91d1dd","6568ad6677e50c0d89c7a320","8","","","","","","","","","","","","2641","[""SV_PolicingMSA/TX_109/IMG_7_109.jpg"",""SV_PolicingMSA/TX_109/IMG_3_109.jpg"",""SV_PolicingMSA/TX_109/IMG_10_109.jpg"",""SV_PolicingMSA/TX_109/IMG_0_109.jpg"",""SV_PolicingMSA/TX_109/IMG_4_109.jpg"",""SV_PolicingMSA/TX_109/IMG_13_109.jpg"",""SV_PolicingMSA/TX_109/IMG_6_109.jpg"",""SV_PolicingMSA/TX_109/IMG_14_109.jpg""]","4","","","","","","3","","4","[""./rc_img/cop_condGroup_13_CommunitySafety_autoscaled.png"",""./rc_img/cop_condGroup_13_SafeStreets_autoscaled.png""]","4","",""
"sliderTrial","html-slider-response","22","128012","0.0-22.0","","656776a7904ae00d6b91d1dd","6568ad6677e50c0d89c7a320","8","","","","","","","","","","","","2073","[""SV_PolicingMSA/TX_109/IMG_7_109.jpg"",""SV_PolicingMSA/TX_109/IMG_3_109.jpg"",""SV_PolicingMSA/TX_109/IMG_10_109.jpg"",""SV_PolicingMSA/TX_109/IMG_0_109.jpg"",""SV_PolicingMSA/TX_109/IMG_4_109.jpg"",""SV_PolicingMSA/TX_109/IMG_13_109.jpg"",""SV_PolicingMSA/TX_109/IMG_6_109.jpg"",""SV_PolicingMSA/TX_109/IMG_14_109.jpg""]","4","","","","","","3","","4","[""./rc_img/cop_condGroup_11_SafeStreets_autoscaled.png"",""./rc_img/cop_condGroup_11_CommunitySafety_autoscaled.png""]","4","",""
"before_SVSlide_prompt","html-button-response","23","129499","0.0-23.0","","656776a7904ae00d6b91d1dd","6568ad6677e50c0d89c7a320","8","","","","","","","","","","","","1486","Click [Next] to see the next neighborhood!","0","","","","","","","","","","","",""
"street view slide show","image-button-response","24","130504","0.0-24.0","","656776a7904ae00d6b91d1dd","6568ad6677e50c0d89c7a320","8","","","","","","","","","","","","null","stimulus/SV_PolicingMSA/TX_134/IMG_11_134.jpg","null","","","","","","2","","","","","",""
"street view slide show","image-button-response","25","131506","0.0-25.0","","656776a7904ae00d6b91d1dd","6568ad6677e50c0d89c7a320","8","","","","","","","","","","","","null","stimulus/SV_PolicingMSA/TX_134/IMG_5_134.jpg","null","","","","","","2","","","","","",""
"street view slide show","image-button-response","26","132511","0.0-26.0","","656776a7904ae00d6b91d1dd","6568ad6677e50c0d89c7a320","8","","","","","","","","","","","","null","stimulus/SV_PolicingMSA/TX_134/IMG_8_134.jpg","null","","","","","","2","","","","","",""
"street view slide show","image-button-response","27","133514","0.0-27.0","","656776a7904ae00d6b91d1dd","6568ad6677e50c0d89c7a320","8","","","","","","","","","","","","null","stimulus/SV_PolicingMSA/TX_134/IMG_4_134.jpg","null","","","","","","2","","","","","",""
"street view slide show","image-button-response","28","134518","0.0-28.0","","656776a7904ae00d6b91d1dd","6568ad6677e50c0d89c7a320","8","","","","","","","","","","","","null","stimulus/SV_PolicingMSA/TX_134/IMG_3_134.jpg","null","","","","","","2","","","","","",""
"street view slide show","image-button-response","29","135520","0.0-29.0","","656776a7904ae00d6b91d1dd","6568ad6677e50c0d89c7a320","8","","","","","","","","","","","","null","stimulus/SV_PolicingMSA/TX_134/IMG_2_134.jpg","null","","","","","","2","","","","","",""
"street view slide show","image-button-response","30","136521","0.0-30.0","","656776a7904ae00d6b91d1dd","6568ad6677e50c0d89c7a320","8","","","","","","","","","","","","null","stimulus/SV_PolicingMSA/TX_134/IMG_0_134.jpg","null","","","","","","2","","","","","",""
"street view slide show","image-button-response","31","137525","0.0-31.0","","656776a7904ae00d6b91d1dd","6568ad6677e50c0d89c7a320","8","","","","","","","","","","","","null","stimulus/SV_PolicingMSA/TX_134/IMG_13_134.jpg","null","","","","","","2","","","","","",""
"dot matrix survey1","survey","32","151442","0.0-32.0","","656776a7904ae00d6b91d1dd","6568ad6677e50c0d89c7a320","8","","","","","","","","","","","","13903","","{""P0_Q0"":null,""P0_Q1"":{""wealthy"":2,""safe"":2,""walkable"":1,""traditional"":2,""diverse"":2}}","","","","","","2","[]","","","","",""
"dot matrix survey2","survey","33","163010","0.0-33.0","","656776a7904ae00d6b91d1dd","6568ad6677e50c0d89c7a320","8","","","","","","","","","","","","11543","","{""P0_Q0"":null,""P0_Q1"":{""violence"":2,""crime"":2,""drug"":2,""schools"":1,""opportunities"":1}}","","","","","","2","[]","","","","",""
"dot matrix survey3","survey","34","179760","0.0-34.0","","656776a7904ae00d6b91d1dd","6568ad6677e50c0d89c7a320","8","","","","","","","","","","","","16738","","{""P0_Q0"":null,""P0_Q1"":{""movein"":1,""moveout"":4,""shopping"":1,""walk"":0,""park"":1,""school"":0}}","","","","","","2","[]","","","","",""
"sliderTrial","html-slider-response","35","184079","0.0-35.0","","656776a7904ae00d6b91d1dd","6568ad6677e50c0d89c7a320","8","","","","","","","","","","","","4316","[""SV_PolicingMSA/TX_134/IMG_11_134.jpg"",""SV_PolicingMSA/TX_134/IMG_5_134.jpg"",""SV_PolicingMSA/TX_134/IMG_8_134.jpg"",""SV_PolicingMSA/TX_134/IMG_4_134.jpg"",""SV_PolicingMSA/TX_134/IMG_3_134.jpg"",""SV_PolicingMSA/TX_134/IMG_2_134.jpg"",""SV_PolicingMSA/TX_134/IMG_0_134.jpg"",""SV_PolicingMSA/TX_134/IMG_13_134.jpg""]","4","","","","","","2","","4","[""./rc_img/cop_condGroup_7_CommunitySafety_autoscaled.png"",""./rc_img/cop_condGroup_7_SafeStreets_autoscaled.png""]","4","",""
"sliderTrial","html-slider-response","36","185594","0.0-36.0","","656776a7904ae00d6b91d1dd","6568ad6677e50c0d89c7a320","8","","","","","","","","","","","","1513","[""SV_PolicingMSA/TX_134/IMG_11_134.jpg"",""SV_PolicingMSA/TX_134/IMG_5_134.jpg"",""SV_PolicingMSA/TX_134/IMG_8_134.jpg"",""SV_PolicingMSA/TX_134/IMG_4_134.jpg"",""SV_PolicingMSA/TX_134/IMG_3_134.jpg"",""SV_PolicingMSA/TX_134/IMG_2_134.jpg"",""SV_PolicingMSA/TX_134/IMG_0_134.jpg"",""SV_PolicingMSA/TX_134/IMG_13_134.jpg""]","4","","","","","","2","","4","[""./rc_img/cop_condGroup_20_SafeStreets_autoscaled.png"",""./rc_img/cop_condGroup_20_CommunitySafety_autoscaled.png""]","4","",""
"sliderTrial","html-slider-response","37","186852","0.0-37.0","","656776a7904ae00d6b91d1dd","6568ad6677e50c0d89c7a320","8","","","","","","","","","","","","1256","[""SV_PolicingMSA/TX_134/IMG_11_134.jpg"",""SV_PolicingMSA/TX_134/IMG_5_134.jpg"",""SV_PolicingMSA/TX_134/IMG_8_134.jpg"",""SV_PolicingMSA/TX_134/IMG_4_134.jpg"",""SV_PolicingMSA/TX_134/IMG_3_134.jpg"",""SV_PolicingMSA/TX_134/IMG_2_134.jpg"",""SV_PolicingMSA/TX_134/IMG_0_134.jpg"",""SV_PolicingMSA/TX_134/IMG_13_134.jpg""]","4","","","","","","2","","4","[""./rc_img/cop_condGroup_15_SafeStreets_autoscaled.png"",""./rc_img/cop_condGroup_15_CommunitySafety_autoscaled.png""]","4","",""
"sliderTrial","html-slider-response","38","190595","0.0-38.0","","656776a7904ae00d6b91d1dd","6568ad6677e50c0d89c7a320","8","","","","","","","","","","","","3741","[""SV_PolicingMSA/TX_134/IMG_11_134.jpg"",""SV_PolicingMSA/TX_134/IMG_5_134.jpg"",""SV_PolicingMSA/TX_134/IMG_8_134.jpg"",""SV_PolicingMSA/TX_134/IMG_4_134.jpg"",""SV_PolicingMSA/TX_134/IMG_3_134.jpg"",""SV_PolicingMSA/TX_134/IMG_2_134.jpg"",""SV_PolicingMSA/TX_134/IMG_0_134.jpg"",""SV_PolicingMSA/TX_134/IMG_13_134.jpg""]","6","","","","","","2","","4","[""./rc_img/cop_condGroup_4_SafeStreets_autoscaled.png"",""./rc_img/cop_condGroup_4_CommunitySafety_autoscaled.png""]","2","",""
"sliderTrial","html-slider-response","39","194150","0.0-39.0","","656776a7904ae00d6b91d1dd","6568ad6677e50c0d89c7a320","8","","","","","","","","","","","","3553","[""SV_PolicingMSA/TX_134/IMG_11_134.jpg"",""SV_PolicingMSA/TX_134/IMG_5_134.jpg"",""SV_PolicingMSA/TX_134/IMG_8_134.jpg"",""SV_PolicingMSA/TX_134/IMG_4_134.jpg"",""SV_PolicingMSA/TX_134/IMG_3_134.jpg"",""SV_PolicingMSA/TX_134/IMG_2_134.jpg"",""SV_PolicingMSA/TX_134/IMG_0_134.jpg"",""SV_PolicingMSA/TX_134/IMG_13_134.jpg""]","2","","","","","","2","","4","[""./rc_img/cop_condGroup_3_CommunitySafety_autoscaled.png"",""./rc_img/cop_condGroup_3_SafeStreets_autoscaled.png""]","2","",""
"before_SVSlide_prompt","html-button-response","40","195425","0.0-40.0","","656776a7904ae00d6b91d1dd","6568ad6677e50c0d89c7a320","8","","","","","","","","","","","","1275","Click [Next] to see the next neighborhood!","0","","","","","","","","","","","",""
"street view slide show","image-button-response","41","196430","0.0-41.0","","656776a7904ae00d6b91d1dd","6568ad6677e50c0d89c7a320","8","","","","","","","","","","","","null","stimulus/SV_PolicingMSA/TX_348/IMG_3_348.jpg","null","","","","","","1","","","","","",""
"street view slide show","image-button-response","42","197431","0.0-42.0","","656776a7904ae00d6b91d1dd","6568ad6677e50c0d89c7a320","8","","","","","","","","","","","","null","stimulus/SV_PolicingMSA/TX_348/IMG_2_348.jpg","null","","","","","","1","","","","","",""
"street view slide show","image-button-response","43","198438","0.0-43.0","","656776a7904ae00d6b91d1dd","6568ad6677e50c0d89c7a320","8","","","","","","","","","","","","null","stimulus/SV_PolicingMSA/TX_348/IMG_11_348.jpg","null","","","","","","1","","","","","",""
"street view slide show","image-button-response","44","199440","0.0-44.0","","656776a7904ae00d6b91d1dd","6568ad6677e50c0d89c7a320","8","","","","","","","","","","","","null","stimulus/SV_PolicingMSA/TX_348/IMG_1_348.jpg","null","","","","","","1","","","","","",""
"street view slide show","image-button-response","45","200444","0.0-45.0","","656776a7904ae00d6b91d1dd","6568ad6677e50c0d89c7a320","8","","","","","","","","","","","","null","stimulus/SV_PolicingMSA/TX_348/IMG_6_348.jpg","null","","","","","","1","","","","","",""
"street view slide show","image-button-response","46","201445","0.0-46.0","","656776a7904ae00d6b91d1dd","6568ad6677e50c0d89c7a320","8","","","","","","","","","","","","null","stimulus/SV_PolicingMSA/TX_348/IMG_13_348.jpg","null","","","","","","1","","","","","",""
"street view slide show","image-button-response","47","202451","0.0-47.0","","656776a7904ae00d6b91d1dd","6568ad6677e50c0d89c7a320","8","","","","","","","","","","","","null","stimulus/SV_PolicingMSA/TX_348/IMG_5_348.jpg","null","","","","","","1","","","","","",""
"street view slide show","image-button-response","48","203453","0.0-48.0","","656776a7904ae00d6b91d1dd","6568ad6677e50c0d89c7a320","8","","","","","","","","","","","","null","stimulus/SV_PolicingMSA/TX_348/IMG_4_348.jpg","null","","","","","","1","","","","","",""
"dot matrix survey1","survey","49","213785","0.0-49.0","","656776a7904ae00d6b91d1dd","6568ad6677e50c0d89c7a320","8","","","","","","","","","","","","10322","","{""P0_Q0"":null,""P0_Q1"":{""wealthy"":2,""safe"":1,""walkable"":1,""traditional"":2,""diverse"":2}}","","","","","","1","[]","","","","",""
"dot matrix survey2","survey","50","220847","0.0-50.0","","656776a7904ae00d6b91d1dd","6568ad6677e50c0d89c7a320","8","","","","","","","","","","","","7052","","{""P0_Q0"":null,""P0_Q1"":{""violence"":2,""crime"":2,""drug"":2,""schools"":2,""opportunities"":2}}","","","","","","1","[]","","","","",""
"dot matrix survey3","survey","51","237758","0.0-51.0","","656776a7904ae00d6b91d1dd","6568ad6677e50c0d89c7a320","8","","","","","","","","","","","","16901","","{""P0_Q0"":null,""P0_Q1"":{""movein"":1,""moveout"":3,""shopping"":1,""walk"":0,""park"":1,""school"":1}}","","","","","","1","[]","","","","",""
"sliderTrial","html-slider-response","52","242840","0.0-52.0","","656776a7904ae00d6b91d1dd","6568ad6677e50c0d89c7a320","8","","","","","","","","","","","","5081","[""SV_PolicingMSA/TX_348/IMG_3_348.jpg"",""SV_PolicingMSA/TX_348/IMG_2_348.jpg"",""SV_PolicingMSA/TX_348/IMG_11_348.jpg"",""SV_PolicingMSA/TX_348/IMG_1_348.jpg"",""SV_PolicingMSA/TX_348/IMG_6_348.jpg"",""SV_PolicingMSA/TX_348/IMG_13_348.jpg"",""SV_PolicingMSA/TX_348/IMG_5_348.jpg"",""SV_PolicingMSA/TX_348/IMG_4_348.jpg""]","4","","","","","","1","","4","[""./rc_img/cop_condGroup_8_SafeStreets_autoscaled.png"",""./rc_img/cop_condGroup_8_CommunitySafety_autoscaled.png""]","4","",""
"sliderTrial","html-slider-response","53","245259","0.0-53.0","","656776a7904ae00d6b91d1dd","6568ad6677e50c0d89c7a320","8","","","","","","","","","","","","2417","[""SV_PolicingMSA/TX_348/IMG_3_348.jpg"",""SV_PolicingMSA/TX_348/IMG_2_348.jpg"",""SV_PolicingMSA/TX_348/IMG_11_348.jpg"",""SV_PolicingMSA/TX_348/IMG_1_348.jpg"",""SV_PolicingMSA/TX_348/IMG_6_348.jpg"",""SV_PolicingMSA/TX_348/IMG_13_348.jpg"",""SV_PolicingMSA/TX_348/IMG_5_348.jpg"",""SV_PolicingMSA/TX_348/IMG_4_348.jpg""]","6","","","","","","1","","4","[""./rc_img/cop_condGroup_10_SafeStreets_autoscaled.png"",""./rc_img/cop_condGroup_10_CommunitySafety_autoscaled.png""]","2","",""
"sliderTrial_attention","html-slider-response","54","255262","0.0-54.0","","656776a7904ae00d6b91d1dd","6568ad6677e50c0d89c7a320","8","","","","","","","","","","","","null","[""SV_PolicingMSA/TX_348/IMG_3_348.jpg"",""SV_PolicingMSA/TX_348/IMG_2_348.jpg"",""SV_PolicingMSA/TX_348/IMG_11_348.jpg"",""SV_PolicingMSA/TX_348/IMG_1_348.jpg"",""SV_PolicingMSA/TX_348/IMG_6_348.jpg"",""SV_PolicingMSA/TX_348/IMG_13_348.jpg"",""SV_PolicingMSA/TX_348/IMG_5_348.jpg"",""SV_PolicingMSA/TX_348/IMG_4_348.jpg""]","null","","","","","","1","","4","[""./assets/img/attnchk.png"",""./assets/img/attnchk.png""]","","true",""
"sliderTrial","html-slider-response","55","264470","0.0-55.0","","656776a7904ae00d6b91d1dd","6568ad6677e50c0d89c7a320","8","","","","","","","","","","","","9206","[""SV_PolicingMSA/TX_348/IMG_3_348.jpg"",""SV_PolicingMSA/TX_348/IMG_2_348.jpg"",""SV_PolicingMSA/TX_348/IMG_11_348.jpg"",""SV_PolicingMSA/TX_348/IMG_1_348.jpg"",""SV_PolicingMSA/TX_348/IMG_6_348.jpg"",""SV_PolicingMSA/TX_348/IMG_13_348.jpg"",""SV_PolicingMSA/TX_348/IMG_5_348.jpg"",""SV_PolicingMSA/TX_348/IMG_4_348.jpg""]","6","","","","","","1","","4","[""./rc_img/cop_condGroup_2_SafeStreets_autoscaled.png"",""./rc_img/cop_condGroup_2_CommunitySafety_autoscaled.png""]","2","",""
"sliderTrial","html-slider-response","56","268034","0.0-56.0","","656776a7904ae00d6b91d1dd","6568ad6677e50c0d89c7a320","8","","","","","","","","","","","","3559","[""SV_PolicingMSA/TX_348/IMG_3_348.jpg"",""SV_PolicingMSA/TX_348/IMG_2_348.jpg"",""SV_PolicingMSA/TX_348/IMG_11_348.jpg"",""SV_PolicingMSA/TX_348/IMG_1_348.jpg"",""SV_PolicingMSA/TX_348/IMG_6_348.jpg"",""SV_PolicingMSA/TX_348/IMG_13_348.jpg"",""SV_PolicingMSA/TX_348/IMG_5_348.jpg"",""SV_PolicingMSA/TX_348/IMG_4_348.jpg""]","6","","","","","","1","","4","[""./rc_img/cop_condGroup_18_SafeStreets_autoscaled.png"",""./rc_img/cop_condGroup_18_CommunitySafety_autoscaled.png""]","2","",""
"sliderTrial","html-slider-response","57","270836","0.0-57.0","","656776a7904ae00d6b91d1dd","6568ad6677e50c0d89c7a320","8","","","","","","","","","","","","2799","[""SV_PolicingMSA/TX_348/IMG_3_348.jpg"",""SV_PolicingMSA/TX_348/IMG_2_348.jpg"",""SV_PolicingMSA/TX_348/IMG_11_348.jpg"",""SV_PolicingMSA/TX_348/IMG_1_348.jpg"",""SV_PolicingMSA/TX_348/IMG_6_348.jpg"",""SV_PolicingMSA/TX_348/IMG_13_348.jpg"",""SV_PolicingMSA/TX_348/IMG_5_348.jpg"",""SV_PolicingMSA/TX_348/IMG_4_348.jpg""]","2","","","","","","1","","4","[""./rc_img/cop_condGroup_12_CommunitySafety_autoscaled.png"",""./rc_img/cop_condGroup_12_SafeStreets_autoscaled.png""]","2","",""
"before_SVSlide_prompt","html-button-response","58","271982","0.0-58.0","","656776a7904ae00d6b91d1dd","6568ad6677e50c0d89c7a320","8","","","","","","","","","","","","1145","Click [Next] to see the next neighborhood!","0","","","","","","","","","","","",""
"street view slide show","image-button-response","59","272989","0.0-59.0","","656776a7904ae00d6b91d1dd","6568ad6677e50c0d89c7a320","8","","","","","","","","","","","","null","stimulus/SV_PolicingMSA/TX_4061/IMG_5_4061.jpg","null","","","","","","5","","","","","",""
"street view slide show","image-button-response","60","273991","0.0-60.0","","656776a7904ae00d6b91d1dd","6568ad6677e50c0d89c7a320","8","","","","","","","","","","","","null","stimulus/SV_PolicingMSA/TX_4061/IMG_12_4061.jpg","null","","","","","","5","","","","","",""
"street view slide show","image-button-response","61","274997","0.0-61.0","","656776a7904ae00d6b91d1dd","6568ad6677e50c0d89c7a320","8","","","","","","","","","","","","null","stimulus/SV_PolicingMSA/TX_4061/IMG_1_4061.jpg","null","","","","","","5","","","","","",""
"street view slide show","image-button-response","62","275999","0.0-62.0","","656776a7904ae00d6b91d1dd","6568ad6677e50c0d89c7a320","8","","","","","","","","","","","","null","stimulus/SV_PolicingMSA/TX_4061/IMG_3_4061.jpg","null","","","","","","5","","","","","",""
"street view slide show","image-button-response","63","277006","0.0-63.0","","656776a7904ae00d6b91d1dd","6568ad6677e50c0d89c7a320","8","","","","","","","","","","","","null","stimulus/SV_PolicingMSA/TX_4061/IMG_14_4061.jpg","null","","","","","","5","","","","","",""
"street view slide show","image-button-response","64","278007","0.0-64.0","","656776a7904ae00d6b91d1dd","6568ad6677e50c0d89c7a320","8","","","","","","","","","","","","null","stimulus/SV_PolicingMSA/TX_4061/IMG_8_4061.jpg","null","","","","","","5","","","","","",""
"street view slide show","image-button-response","65","279009","0.0-65.0","","656776a7904ae00d6b91d1dd","6568ad6677e50c0d89c7a320","8","","","","","","","","","","","","null","stimulus/SV_PolicingMSA/TX_4061/IMG_4_4061.jpg","null","","","","","","5","","","","","",""
"street view slide show","image-button-response","66","280010","0.0-66.0","","656776a7904ae00d6b91d1dd","6568ad6677e50c0d89c7a320","8","","","","","","","","","","","","null","stimulus/SV_PolicingMSA/TX_4061/IMG_13_4061.jpg","null","","","","","","5","","","","","",""
"dot matrix survey1","survey","67","293205","0.0-67.0","","656776a7904ae00d6b91d1dd","6568ad6677e50c0d89c7a320","8","","","","","","","","","","","","13187","","{""P0_Q0"":null,""P0_Q1"":{""wealthy"":3,""safe"":3,""walkable"":2,""traditional"":2,""diverse"":2}}","","","","","","5","[]","","","","",""
"dot matrix survey2","survey","68","305401","0.0-68.0","","656776a7904ae00d6b91d1dd","6568ad6677e50c0d89c7a320","8","","","","","","","","","","","","12187","","{""P0_Q0"":null,""P0_Q1"":{""violence"":3,""crime"":2,""drug"":2,""schools"":2,""opportunities"":2}}","","","","","","5","[]","","","","",""
"dot matrix survey3","survey","69","327703","0.0-69.0","","656776a7904ae00d6b91d1dd","6568ad6677e50c0d89c7a320","8","","","","","","","","","","","","22290","","{""P0_Q0"":null,""P0_Q1"":{""movein"":1,""moveout"":3,""shopping"":2,""walk"":1,""park"":1,""school"":2}}","","","","","","5","[]","","","","",""
"sliderTrial","html-slider-response","70","334552","0.0-70.0","","656776a7904ae00d6b91d1dd","6568ad6677e50c0d89c7a320","8","","","","","","","","","","","","6847","[""SV_PolicingMSA/TX_4061/IMG_5_4061.jpg"",""SV_PolicingMSA/TX_4061/IMG_12_4061.jpg"",""SV_PolicingMSA/TX_4061/IMG_1_4061.jpg"",""SV_PolicingMSA/TX_4061/IMG_3_4061.jpg"",""SV_PolicingMSA/TX_4061/IMG_14_4061.jpg"",""SV_PolicingMSA/TX_4061/IMG_8_4061.jpg"",""SV_PolicingMSA/TX_4061/IMG_4_4061.jpg"",""SV_PolicingMSA/TX_4061/IMG_13_4061.jpg""]","2","","","","","","5","","4","[""./rc_img/cop_condGroup_6_CommunitySafety_autoscaled.png"",""./rc_img/cop_condGroup_6_SafeStreets_autoscaled.png""]","2","",""
"sliderTrial","html-slider-response","71","336842","0.0-71.0","","656776a7904ae00d6b91d1dd","6568ad6677e50c0d89c7a320","8","","","","","","","","","","","","2289","[""SV_PolicingMSA/TX_4061/IMG_5_4061.jpg"",""SV_PolicingMSA/TX_4061/IMG_12_4061.jpg"",""SV_PolicingMSA/TX_4061/IMG_1_4061.jpg"",""SV_PolicingMSA/TX_4061/IMG_3_4061.jpg"",""SV_PolicingMSA/TX_4061/IMG_14_4061.jpg"",""SV_PolicingMSA/TX_4061/IMG_8_4061.jpg"",""SV_PolicingMSA/TX_4061/IMG_4_4061.jpg"",""SV_PolicingMSA/TX_4061/IMG_13_4061.jpg""]","6","","","","","","5","","4","[""./rc_img/cop_condGroup_5_SafeStreets_autoscaled.png"",""./rc_img/cop_condGroup_5_CommunitySafety_autoscaled.png""]","2","",""
"sliderTrial","html-slider-response","72","339341","0.0-72.0","","656776a7904ae00d6b91d1dd","6568ad6677e50c0d89c7a320","8","","","","","","","","","","","","2497","[""SV_PolicingMSA/TX_4061/IMG_5_4061.jpg"",""SV_PolicingMSA/TX_4061/IMG_12_4061.jpg"",""SV_PolicingMSA/TX_4061/IMG_1_4061.jpg"",""SV_PolicingMSA/TX_4061/IMG_3_4061.jpg"",""SV_PolicingMSA/TX_4061/IMG_14_4061.jpg"",""SV_PolicingMSA/TX_4061/IMG_8_4061.jpg"",""SV_PolicingMSA/TX_4061/IMG_4_4061.jpg"",""SV_PolicingMSA/TX_4061/IMG_13_4061.jpg""]","2","","","","","","5","","4","[""./rc_img/cop_condGroup_19_CommunitySafety_autoscaled.png"",""./rc_img/cop_condGroup_19_SafeStreets_autoscaled.png""]","2","",""
"sliderTrial","html-slider-response","73","342123","0.0-73.0","","656776a7904ae00d6b91d1dd","6568ad6677e50c0d89c7a320","8","","","","","","","","","","","","2780","[""SV_PolicingMSA/TX_4061/IMG_5_4061.jpg"",""SV_PolicingMSA/TX_4061/IMG_12_4061.jpg"",""SV_PolicingMSA/TX_4061/IMG_1_4061.jpg"",""SV_PolicingMSA/TX_4061/IMG_3_4061.jpg"",""SV_PolicingMSA/TX_4061/IMG_14_4061.jpg"",""SV_PolicingMSA/TX_4061/IMG_8_4061.jpg"",""SV_PolicingMSA/TX_4061/IMG_4_4061.jpg"",""SV_PolicingMSA/TX_4061/IMG_13_4061.jpg""]","2","","","","","","5","","4","[""./rc_img/cop_condGroup_13_CommunitySafety_autoscaled.png"",""./rc_img/cop_condGroup_13_SafeStreets_autoscaled.png""]","2","",""
"sliderTrial","html-slider-response","74","344235","0.0-74.0","","656776a7904ae00d6b91d1dd","6568ad6677e50c0d89c7a320","8","","","","","","","","","","","","2110","[""SV_PolicingMSA/TX_4061/IMG_5_4061.jpg"",""SV_PolicingMSA/TX_4061/IMG_12_4061.jpg"",""SV_PolicingMSA/TX_4061/IMG_1_4061.jpg"",""SV_PolicingMSA/TX_4061/IMG_3_4061.jpg"",""SV_PolicingMSA/TX_4061/IMG_14_4061.jpg"",""SV_PolicingMSA/TX_4061/IMG_8_4061.jpg"",""SV_PolicingMSA/TX_4061/IMG_4_4061.jpg"",""SV_PolicingMSA/TX_4061/IMG_13_4061.jpg""]","6","","","","","","5","","4","[""./rc_img/cop_condGroup_11_SafeStreets_autoscaled.png"",""./rc_img/cop_condGroup_11_CommunitySafety_autoscaled.png""]","2","",""
"half-way","html-button-response","75","351965","0.0-75.0","","656776a7904ae00d6b91d1dd","6568ad6677e50c0d89c7a320","8","","","","","","","","","","","","7728","
    <h3>You are now half way through the study.</h3>
    <p>Please take a quick, 15-second break before you continue.</p>
    <img src='assets/img/countdown-15.gif'>
    <p>The study will automatically advance forward after the countdown is complete. <br> However, you may click ""Next"" to advance forward now if you wish.</p>
    ","0","","","","","","","","","","","",""
"before_SVSlide_prompt","html-button-response","76","353123","0.0-76.0","","656776a7904ae00d6b91d1dd","6568ad6677e50c0d89c7a320","8","","","","","","","","","","","","1156","Click [Next] to see the next neighborhood!","0","","","","","","","","","","","",""
"street view slide show","image-button-response","77","354130","0.0-77.0","","656776a7904ae00d6b91d1dd","6568ad6677e50c0d89c7a320","8","","","","","","","","","","","","null","stimulus/SV_PolicingMSA/TX_575/IMG_3_575.jpg","null","","","","","","3","","","","","",""
"street view slide show","image-button-response","78","355132","0.0-78.0","","656776a7904ae00d6b91d1dd","6568ad6677e50c0d89c7a320","8","","","","","","","","","","","","null","stimulus/SV_PolicingMSA/TX_575/IMG_12_575.jpg","null","","","","","","3","","","","","",""
"street view slide show","image-button-response","79","356138","0.0-79.0","","656776a7904ae00d6b91d1dd","6568ad6677e50c0d89c7a320","8","","","","","","","","","","","","null","stimulus/SV_PolicingMSA/TX_575/IMG_10_575.jpg","null","","","","","","3","","","","","",""
"street view slide show","image-button-response","80","357140","0.0-80.0","","656776a7904ae00d6b91d1dd","6568ad6677e50c0d89c7a320","8","","","","","","","","","","","","null","stimulus/SV_PolicingMSA/TX_575/IMG_5_575.jpg","null","","","","","","3","","","","","",""
"street view slide show","image-button-response","81","358147","0.0-81.0","","656776a7904ae00d6b91d1dd","6568ad6677e50c0d89c7a320","8","","","","","","","","","","","","null","stimulus/SV_PolicingMSA/TX_575/IMG_14_575.jpg","null","","","","","","3","","","","","",""
"street view slide show","image-button-response","82","359149","0.0-82.0","","656776a7904ae00d6b91d1dd","6568ad6677e50c0d89c7a320","8","","","","","","","","","","","","null","stimulus/SV_PolicingMSA/TX_575/IMG_9_575.jpg","null","","","","","","3","","","","","",""
"street view slide show","image-button-response","83","360156","0.0-83.0","","656776a7904ae00d6b91d1dd","6568ad6677e50c0d89c7a320","8","","","","","","","","","","","","null","stimulus/SV_PolicingMSA/TX_575/IMG_6_575.jpg","null","","","","","","3","","","","","",""
"street view slide show","image-button-response","84","361157","0.0-84.0","","656776a7904ae00d6b91d1dd","6568ad6677e50c0d89c7a320","8","","","","","","","","","","","","null","stimulus/SV_PolicingMSA/TX_575/IMG_4_575.jpg","null","","","","","","3","","","","","",""
"dot matrix survey1","survey","85","370303","0.0-85.0","","656776a7904ae00d6b91d1dd","6568ad6677e50c0d89c7a320","8","","","","","","","","","","","","9135","","{""P0_Q0"":null,""P0_Q1"":{""wealthy"":3,""safe"":2,""walkable"":1,""traditional"":2,""diverse"":2}}","","","","","","3","[]","","","","",""
"dot matrix survey2","survey","86","377313","0.0-86.0","","656776a7904ae00d6b91d1dd","6568ad6677e50c0d89c7a320","8","","","","","","","","","","","","7002","","{""P0_Q0"":null,""P0_Q1"":{""violence"":2,""crime"":2,""drug"":2,""schools"":2,""opportunities"":2}}","","","","","","3","[]","","","","",""
"dot matrix survey3","survey","87","403073","0.0-87.0","","656776a7904ae00d6b91d1dd","6568ad6677e50c0d89c7a320","8","","","","","","","","","","","","25751","","{""P0_Q0"":null,""P0_Q1"":{""movein"":2,""moveout"":2,""shopping"":2,""walk"":1,""park"":2,""school"":2}}","","","","","","3","[]","","","","",""
"sliderTrial","html-slider-response","88","407290","0.0-88.0","","656776a7904ae00d6b91d1dd","6568ad6677e50c0d89c7a320","8","","","","","","","","","","","","4215","[""SV_PolicingMSA/TX_575/IMG_3_575.jpg"",""SV_PolicingMSA/TX_575/IMG_12_575.jpg"",""SV_PolicingMSA/TX_575/IMG_10_575.jpg"",""SV_PolicingMSA/TX_575/IMG_5_575.jpg"",""SV_PolicingMSA/TX_575/IMG_14_575.jpg"",""SV_PolicingMSA/TX_575/IMG_9_575.jpg"",""SV_PolicingMSA/TX_575/IMG_6_575.jpg"",""SV_PolicingMSA/TX_575/IMG_4_575.jpg""]","6","","","","","","3","","4","[""./rc_img/cop_condGroup_8_SafeStreets_autoscaled.png"",""./rc_img/cop_condGroup_8_CommunitySafety_autoscaled.png""]","2","",""
"sliderTrial","html-slider-response","89","409694","0.0-89.0","","656776a7904ae00d6b91d1dd","6568ad6677e50c0d89c7a320","8","","","","","","","","","","","","2401","[""SV_PolicingMSA/TX_575/IMG_3_575.jpg"",""SV_PolicingMSA/TX_575/IMG_12_575.jpg"",""SV_PolicingMSA/TX_575/IMG_10_575.jpg"",""SV_PolicingMSA/TX_575/IMG_5_575.jpg"",""SV_PolicingMSA/TX_575/IMG_14_575.jpg"",""SV_PolicingMSA/TX_575/IMG_9_575.jpg"",""SV_PolicingMSA/TX_575/IMG_6_575.jpg"",""SV_PolicingMSA/TX_575/IMG_4_575.jpg""]","6","","","","","","3","","4","[""./rc_img/cop_condGroup_10_SafeStreets_autoscaled.png"",""./rc_img/cop_condGroup_10_CommunitySafety_autoscaled.png""]","2","",""
"sliderTrial","html-slider-response","90","412527","0.0-90.0","","656776a7904ae00d6b91d1dd","6568ad6677e50c0d89c7a320","8","","","","","","","","","","","","2832","[""SV_PolicingMSA/TX_575/IMG_3_575.jpg"",""SV_PolicingMSA/TX_575/IMG_12_575.jpg"",""SV_PolicingMSA/TX_575/IMG_10_575.jpg"",""SV_PolicingMSA/TX_575/IMG_5_575.jpg"",""SV_PolicingMSA/TX_575/IMG_14_575.jpg"",""SV_PolicingMSA/TX_575/IMG_9_575.jpg"",""SV_PolicingMSA/TX_575/IMG_6_575.jpg"",""SV_PolicingMSA/TX_575/IMG_4_575.jpg""]","6","","","","","","3","","4","[""./rc_img/cop_condGroup_2_SafeStreets_autoscaled.png"",""./rc_img/cop_condGroup_2_CommunitySafety_autoscaled.png""]","2","",""
"sliderTrial","html-slider-response","91","414781","0.0-91.0","","656776a7904ae00d6b91d1dd","6568ad6677e50c0d89c7a320","8","","","","","","","","","","","","2253","[""SV_PolicingMSA/TX_575/IMG_3_575.jpg"",""SV_PolicingMSA/TX_575/IMG_12_575.jpg"",""SV_PolicingMSA/TX_575/IMG_10_575.jpg"",""SV_PolicingMSA/TX_575/IMG_5_575.jpg"",""SV_PolicingMSA/TX_575/IMG_14_575.jpg"",""SV_PolicingMSA/TX_575/IMG_9_575.jpg"",""SV_PolicingMSA/TX_575/IMG_6_575.jpg"",""SV_PolicingMSA/TX_575/IMG_4_575.jpg""]","6","","","","","","3","","4","[""./rc_img/cop_condGroup_18_SafeStreets_autoscaled.png"",""./rc_img/cop_condGroup_18_CommunitySafety_autoscaled.png""]","2","",""
"sliderTrial","html-slider-response","92","417925","0.0-92.0","","656776a7904ae00d6b91d1dd","6568ad6677e50c0d89c7a320","8","","","","","","","","","","","","3143","[""SV_PolicingMSA/TX_575/IMG_3_575.jpg"",""SV_PolicingMSA/TX_575/IMG_12_575.jpg"",""SV_PolicingMSA/TX_575/IMG_10_575.jpg"",""SV_PolicingMSA/TX_575/IMG_5_575.jpg"",""SV_PolicingMSA/TX_575/IMG_14_575.jpg"",""SV_PolicingMSA/TX_575/IMG_9_575.jpg"",""SV_PolicingMSA/TX_575/IMG_6_575.jpg"",""SV_PolicingMSA/TX_575/IMG_4_575.jpg""]","2","","","","","","3","","4","[""./rc_img/cop_condGroup_12_CommunitySafety_autoscaled.png"",""./rc_img/cop_condGroup_12_SafeStreets_autoscaled.png""]","2","",""
"before_SVSlide_prompt","html-button-response","93","420101","0.0-93.0","","656776a7904ae00d6b91d1dd","6568ad6677e50c0d89c7a320","8","","","","","","","","","","","","2175","Click [Next] to see the next neighborhood!","0","","","","","","","","","","","",""
"street view slide show","image-button-response","94","421104","0.0-94.0","","656776a7904ae00d6b91d1dd","6568ad6677e50c0d89c7a320","8","","","","","","","","","","","","null","stimulus/SV_PolicingMSA/TX_130/IMG_14_130.jpg","null","","","","","","0","","","","","",""
"street view slide show","image-button-response","95","422107","0.0-95.0","","656776a7904ae00d6b91d1dd","6568ad6677e50c0d89c7a320","8","","","","","","","","","","","","null","stimulus/SV_PolicingMSA/TX_130/IMG_13_130.jpg","null","","","","","","0","","","","","",""
"street view slide show","image-button-response","96","423112","0.0-96.0","","656776a7904ae00d6b91d1dd","6568ad6677e50c0d89c7a320","8","","","","","","","","","","","","null","stimulus/SV_PolicingMSA/TX_130/IMG_12_130.jpg","null","","","","","","0","","","","","",""
"street view slide show","image-button-response","97","424115","0.0-97.0","","656776a7904ae00d6b91d1dd","6568ad6677e50c0d89c7a320","8","","","","","","","","","","","","null","stimulus/SV_PolicingMSA/TX_130/IMG_8_130.jpg","null","","","","","","0","","","","","",""
"street view slide show","image-button-response","98","425116","0.0-98.0","","656776a7904ae00d6b91d1dd","6568ad6677e50c0d89c7a320","8","","","","","","","","","","","","null","stimulus/SV_PolicingMSA/TX_130/IMG_4_130.jpg","null","","","","","","0","","","","","",""
"street view slide show","image-button-response","99","426121","0.0-99.0","","656776a7904ae00d6b91d1dd","6568ad6677e50c0d89c7a320","8","","","","","","","","","","","","null","stimulus/SV_PolicingMSA/TX_130/IMG_10_130.jpg","null","","","","","","0","","","","","",""
"street view slide show","image-button-response","100","427127","0.0-100.0","","656776a7904ae00d6b91d1dd","6568ad6677e50c0d89c7a320","8","","","","","","","","","","","","null","stimulus/SV_PolicingMSA/TX_130/IMG_0_130.jpg","null","","","","","","0","","","","","",""
"street view slide show","image-button-response","101","428129","0.0-101.0","","656776a7904ae00d6b91d1dd","6568ad6677e50c0d89c7a320","8","","","","","","","","","","","","null","stimulus/SV_PolicingMSA/TX_130/IMG_7_130.jpg","null","","","","","","0","","","","","",""
"dot matrix survey1","survey","102","435694","0.0-102.0","","656776a7904ae00d6b91d1dd","6568ad6677e50c0d89c7a320","8","","","","","","","","","","","","7557","","{""P0_Q0"":null,""P0_Q1"":{""wealthy"":2,""safe"":2,""walkable"":1,""traditional"":2,""diverse"":2}}","","","","","","0","[]","","","","",""
"dot matrix survey2","survey","103","441640","0.0-103.0","","656776a7904ae00d6b91d1dd","6568ad6677e50c0d89c7a320","8","","","","","","","","","","","","5935","","{""P0_Q0"":null,""P0_Q1"":{""violence"":2,""crime"":2,""drug"":2,""schools"":2,""opportunities"":2}}","","","","","","0","[]","","","","",""
"dot matrix survey3","survey","104","454931","0.0-104.0","","656776a7904ae00d6b91d1dd","6568ad6677e50c0d89c7a320","8","","","","","","","","","","","","13282","","{""P0_Q0"":null,""P0_Q1"":{""movein"":1,""moveout"":3,""shopping"":2,""walk"":1,""park"":1,""school"":1}}","","","","","","0","[]","","","","",""
"sliderTrial","html-slider-response","105","457522","0.0-105.0","","656776a7904ae00d6b91d1dd","6568ad6677e50c0d89c7a320","8","","","","","","","","","","","","2589","[""SV_PolicingMSA/TX_130/IMG_14_130.jpg"",""SV_PolicingMSA/TX_130/IMG_13_130.jpg"",""SV_PolicingMSA/TX_130/IMG_12_130.jpg"",""SV_PolicingMSA/TX_130/IMG_8_130.jpg"",""SV_PolicingMSA/TX_130/IMG_4_130.jpg"",""SV_PolicingMSA/TX_130/IMG_10_130.jpg"",""SV_PolicingMSA/TX_130/IMG_0_130.jpg"",""SV_PolicingMSA/TX_130/IMG_7_130.jpg""]","2","","","","","","0","","4","[""./rc_img/cop_condGroup_9_CommunitySafety_autoscaled.png"",""./rc_img/cop_condGroup_9_SafeStreets_autoscaled.png""]","2","",""
"sliderTrial","html-slider-response","106","460025","0.0-106.0","","656776a7904ae00d6b91d1dd","6568ad6677e50c0d89c7a320","8","","","","","","","","","","","","2502","[""SV_PolicingMSA/TX_130/IMG_14_130.jpg"",""SV_PolicingMSA/TX_130/IMG_13_130.jpg"",""SV_PolicingMSA/TX_130/IMG_12_130.jpg"",""SV_PolicingMSA/TX_130/IMG_8_130.jpg"",""SV_PolicingMSA/TX_130/IMG_4_130.jpg"",""SV_PolicingMSA/TX_130/IMG_10_130.jpg"",""SV_PolicingMSA/TX_130/IMG_0_130.jpg"",""SV_PolicingMSA/TX_130/IMG_7_130.jpg""]","2","","","","","","0","","4","[""./rc_img/cop_condGroup_14_CommunitySafety_autoscaled.png"",""./rc_img/cop_condGroup_14_SafeStreets_autoscaled.png""]","2","",""
"sliderTrial_attention","html-slider-response","107","470039","0.0-107.0","","656776a7904ae00d6b91d1dd","6568ad6677e50c0d89c7a320","8","","","","","","","","","","","","null","[""SV_PolicingMSA/TX_130/IMG_14_130.jpg"",""SV_PolicingMSA/TX_130/IMG_13_130.jpg"",""SV_PolicingMSA/TX_130/IMG_12_130.jpg"",""SV_PolicingMSA/TX_130/IMG_8_130.jpg"",""SV_PolicingMSA/TX_130/IMG_4_130.jpg"",""SV_PolicingMSA/TX_130/IMG_10_130.jpg"",""SV_PolicingMSA/TX_130/IMG_0_130.jpg"",""SV_PolicingMSA/TX_130/IMG_7_130.jpg""]","null","","","","","","0","","4","[""./assets/img/attnchk.png"",""./assets/img/attnchk.png""]","","true",""
"sliderTrial","html-slider-response","108","481754","0.0-108.0","","656776a7904ae00d6b91d1dd","6568ad6677e50c0d89c7a320","8","","","","","","","","","","","","11712","[""SV_PolicingMSA/TX_130/IMG_14_130.jpg"",""SV_PolicingMSA/TX_130/IMG_13_130.jpg"",""SV_PolicingMSA/TX_130/IMG_12_130.jpg"",""SV_PolicingMSA/TX_130/IMG_8_130.jpg"",""SV_PolicingMSA/TX_130/IMG_4_130.jpg"",""SV_PolicingMSA/TX_130/IMG_10_130.jpg"",""SV_PolicingMSA/TX_130/IMG_0_130.jpg"",""SV_PolicingMSA/TX_130/IMG_7_130.jpg""]","2","","","","","","0","","4","[""./rc_img/cop_condGroup_17_CommunitySafety_autoscaled.png"",""./rc_img/cop_condGroup_17_SafeStreets_autoscaled.png""]","2","",""
"sliderTrial","html-slider-response","109","484681","0.0-109.0","","656776a7904ae00d6b91d1dd","6568ad6677e50c0d89c7a320","8","","","","","","","","","","","","2925","[""SV_PolicingMSA/TX_130/IMG_14_130.jpg"",""SV_PolicingMSA/TX_130/IMG_13_130.jpg"",""SV_PolicingMSA/TX_130/IMG_12_130.jpg"",""SV_PolicingMSA/TX_130/IMG_8_130.jpg"",""SV_PolicingMSA/TX_130/IMG_4_130.jpg"",""SV_PolicingMSA/TX_130/IMG_10_130.jpg"",""SV_PolicingMSA/TX_130/IMG_0_130.jpg"",""SV_PolicingMSA/TX_130/IMG_7_130.jpg""]","6","","","","","","0","","4","[""./rc_img/cop_condGroup_1_SafeStreets_autoscaled.png"",""./rc_img/cop_condGroup_1_CommunitySafety_autoscaled.png""]","2","",""
"sliderTrial","html-slider-response","110","487333","0.0-110.0","","656776a7904ae00d6b91d1dd","6568ad6677e50c0d89c7a320","8","","","","","","","","","","","","2651","[""SV_PolicingMSA/TX_130/IMG_14_130.jpg"",""SV_PolicingMSA/TX_130/IMG_13_130.jpg"",""SV_PolicingMSA/TX_130/IMG_12_130.jpg"",""SV_PolicingMSA/TX_130/IMG_8_130.jpg"",""SV_PolicingMSA/TX_130/IMG_4_130.jpg"",""SV_PolicingMSA/TX_130/IMG_10_130.jpg"",""SV_PolicingMSA/TX_130/IMG_0_130.jpg"",""SV_PolicingMSA/TX_130/IMG_7_130.jpg""]","2","","","","","","0","","4","[""./rc_img/cop_condGroup_16_CommunitySafety_autoscaled.png"",""./rc_img/cop_condGroup_16_SafeStreets_autoscaled.png""]","2","",""
"before_SVSlide_prompt","html-button-response","111","489404","0.0-111.0","","656776a7904ae00d6b91d1dd","6568ad6677e50c0d89c7a320","8","","","","","","","","","","","","2070","Click [Next] to see the next neighborhood!","0","","","","","","","","","","","",""
"street view slide show","image-button-response","112","490406","0.0-112.0","","656776a7904ae00d6b91d1dd","6568ad6677e50c0d89c7a320","8","","","","","","","","","","","","null","stimulus/SV_PolicingMSA/TX_298/IMG_0_298.jpg","null","","","","","","4","","","","","",""
"street view slide show","image-button-response","113","491408","0.0-113.0","","656776a7904ae00d6b91d1dd","6568ad6677e50c0d89c7a320","8","","","","","","","","","","","","null","stimulus/SV_PolicingMSA/TX_298/IMG_2_298.jpg","null","","","","","","4","","","","","",""
"street view slide show","image-button-response","114","492414","0.0-114.0","","656776a7904ae00d6b91d1dd","6568ad6677e50c0d89c7a320","8","","","","","","","","","","","","null","stimulus/SV_PolicingMSA/TX_298/IMG_13_298.jpg","null","","","","","","4","","","","","",""
"street view slide show","image-button-response","115","493415","0.0-115.0","","656776a7904ae00d6b91d1dd","6568ad6677e50c0d89c7a320","8","","","","","","","","","","","","null","stimulus/SV_PolicingMSA/TX_298/IMG_6_298.jpg","null","","","","","","4","","","","","",""
"street view slide show","image-button-response","116","494421","0.0-116.0","","656776a7904ae00d6b91d1dd","6568ad6677e50c0d89c7a320","8","","","","","","","","","","","","null","stimulus/SV_PolicingMSA/TX_298/IMG_8_298.jpg","null","","","","","","4","","","","","",""
"street view slide show","image-button-response","117","495422","0.0-117.0","","656776a7904ae00d6b91d1dd","6568ad6677e50c0d89c7a320","8","","","","","","","","","","","","null","stimulus/SV_PolicingMSA/TX_298/IMG_3_298.jpg","null","","","","","","4","","","","","",""
"street view slide show","image-button-response","118","496429","0.0-118.0","","656776a7904ae00d6b91d1dd","6568ad6677e50c0d89c7a320","8","","","","","","","","","","","","null","stimulus/SV_PolicingMSA/TX_298/IMG_11_298.jpg","null","","","","","","4","","","","","",""
"street view slide show","image-button-response","119","497431","0.0-119.0","","656776a7904ae00d6b91d1dd","6568ad6677e50c0d89c7a320","8","","","","","","","","","","","","null","stimulus/SV_PolicingMSA/TX_298/IMG_7_298.jpg","null","","","","","","4","","","","","",""
"dot matrix survey1","survey","120","505401","0.0-120.0","","656776a7904ae00d6b91d1dd","6568ad6677e50c0d89c7a320","8","","","","","","","","","","","","7963","","{""P0_Q0"":null,""P0_Q1"":{""wealthy"":3,""safe"":3,""walkable"":1,""traditional"":2,""diverse"":2}}","","","","","","4","[]","","","","",""
"dot matrix survey2","survey","121","513928","0.0-121.0","","656776a7904ae00d6b91d1dd","6568ad6677e50c0d89c7a320","8","","","","","","","","","","","","8518","","{""P0_Q0"":null,""P0_Q1"":{""violence"":2,""crime"":2,""drug"":2,""schools"":3,""opportunities"":3}}","","","","","","4","[]","","","","",""
"dot matrix survey3","survey","122","529978","0.0-122.0","","656776a7904ae00d6b91d1dd","6568ad6677e50c0d89c7a320","8","","","","","","","","","","","","16039","","{""P0_Q0"":null,""P0_Q1"":{""movein"":2,""moveout"":3,""shopping"":2,""walk"":1,""park"":2,""school"":1}}","","","","","","4","[]","","","","",""
"sliderTrial","html-slider-response","123","532901","0.0-123.0","","656776a7904ae00d6b91d1dd","6568ad6677e50c0d89c7a320","8","","","","","","","","","","","","2921","[""SV_PolicingMSA/TX_298/IMG_0_298.jpg"",""SV_PolicingMSA/TX_298/IMG_2_298.jpg"",""SV_PolicingMSA/TX_298/IMG_13_298.jpg"",""SV_PolicingMSA/TX_298/IMG_6_298.jpg"",""SV_PolicingMSA/TX_298/IMG_8_298.jpg"",""SV_PolicingMSA/TX_298/IMG_3_298.jpg"",""SV_PolicingMSA/TX_298/IMG_11_298.jpg"",""SV_PolicingMSA/TX_298/IMG_7_298.jpg""]","2","","","","","","4","","4","[""./rc_img/cop_condGroup_7_CommunitySafety_autoscaled.png"",""./rc_img/cop_condGroup_7_SafeStreets_autoscaled.png""]","2","",""
"sliderTrial","html-slider-response","124","535573","0.0-124.0","","656776a7904ae00d6b91d1dd","6568ad6677e50c0d89c7a320","8","","","","","","","","","","","","2669","[""SV_PolicingMSA/TX_298/IMG_0_298.jpg"",""SV_PolicingMSA/TX_298/IMG_2_298.jpg"",""SV_PolicingMSA/TX_298/IMG_13_298.jpg"",""SV_PolicingMSA/TX_298/IMG_6_298.jpg"",""SV_PolicingMSA/TX_298/IMG_8_298.jpg"",""SV_PolicingMSA/TX_298/IMG_3_298.jpg"",""SV_PolicingMSA/TX_298/IMG_11_298.jpg"",""SV_PolicingMSA/TX_298/IMG_7_298.jpg""]","6","","","","","","4","","4","[""./rc_img/cop_condGroup_20_SafeStreets_autoscaled.png"",""./rc_img/cop_condGroup_20_CommunitySafety_autoscaled.png""]","2","",""
"sliderTrial","html-slider-response","125","540555","0.0-125.0","","656776a7904ae00d6b91d1dd","6568ad6677e50c0d89c7a320","8","","","","","","","","","","","","4981","[""SV_PolicingMSA/TX_298/IMG_0_298.jpg"",""SV_PolicingMSA/TX_298/IMG_2_298.jpg"",""SV_PolicingMSA/TX_298/IMG_13_298.jpg"",""SV_PolicingMSA/TX_298/IMG_6_298.jpg"",""SV_PolicingMSA/TX_298/IMG_8_298.jpg"",""SV_PolicingMSA/TX_298/IMG_3_298.jpg"",""SV_PolicingMSA/TX_298/IMG_11_298.jpg"",""SV_PolicingMSA/TX_298/IMG_7_298.jpg""]","6","","","","","","4","","4","[""./rc_img/cop_condGroup_15_SafeStreets_autoscaled.png"",""./rc_img/cop_condGroup_15_CommunitySafety_autoscaled.png""]","2","",""
"sliderTrial","html-slider-response","126","544097","0.0-126.0","","656776a7904ae00d6b91d1dd","6568ad6677e50c0d89c7a320","8","","","","","","","","","","","","3540","[""SV_PolicingMSA/TX_298/IMG_0_298.jpg"",""SV_PolicingMSA/TX_298/IMG_2_298.jpg"",""SV_PolicingMSA/TX_298/IMG_13_298.jpg"",""SV_PolicingMSA/TX_298/IMG_6_298.jpg"",""SV_PolicingMSA/TX_298/IMG_8_298.jpg"",""SV_PolicingMSA/TX_298/IMG_3_298.jpg"",""SV_PolicingMSA/TX_298/IMG_11_298.jpg"",""SV_PolicingMSA/TX_298/IMG_7_298.jpg""]","6","","","","","","4","","4","[""./rc_img/cop_condGroup_4_SafeStreets_autoscaled.png"",""./rc_img/cop_condGroup_4_CommunitySafety_autoscaled.png""]","2","",""
"sliderTrial","html-slider-response","127","546450","0.0-127.0","","656776a7904ae00d6b91d1dd","6568ad6677e50c0d89c7a320","8","","","","","","","","","","","","2352","[""SV_PolicingMSA/TX_298/IMG_0_298.jpg"",""SV_PolicingMSA/TX_298/IMG_2_298.jpg"",""SV_PolicingMSA/TX_298/IMG_13_298.jpg"",""SV_PolicingMSA/TX_298/IMG_6_298.jpg"",""SV_PolicingMSA/TX_298/IMG_8_298.jpg"",""SV_PolicingMSA/TX_298/IMG_3_298.jpg"",""SV_PolicingMSA/TX_298/IMG_11_298.jpg"",""SV_PolicingMSA/TX_298/IMG_7_298.jpg""]","2","","","","","","4","","4","[""./rc_img/cop_condGroup_3_CommunitySafety_autoscaled.png"",""./rc_img/cop_condGroup_3_SafeStreets_autoscaled.png""]","2","",""
"before_SVSlide_prompt","html-button-response","128","547661","0.0-128.0","","656776a7904ae00d6b91d1dd","6568ad6677e50c0d89c7a320","8","","","","","","","","","","","","1211","Click [Next] to see the next neighborhood!","0","","","","","","","","","","","",""
"street view slide show","image-button-response","129","548666","0.0-129.0","","656776a7904ae00d6b91d1dd","6568ad6677e50c0d89c7a320","8","","","","","","","","","","","","null","stimulus/SV_PolicingMSA/TX_576/IMG_10_576.jpg","null","","","","","","2","","","","","",""
"street view slide show","image-button-response","130","549667","0.0-130.0","","656776a7904ae00d6b91d1dd","6568ad6677e50c0d89c7a320","8","","","","","","","","","","","","null","stimulus/SV_PolicingMSA/TX_576/IMG_0_576.jpg","null","","","","","","2","","","","","",""
"street view slide show","image-button-response","131","550673","0.0-131.0","","656776a7904ae00d6b91d1dd","6568ad6677e50c0d89c7a320","8","","","","","","","","","","","","null","stimulus/SV_PolicingMSA/TX_576/IMG_7_576.jpg","null","","","","","","2","","","","","",""
"street view slide show","image-button-response","132","551676","0.0-132.0","","656776a7904ae00d6b91d1dd","6568ad6677e50c0d89c7a320","8","","","","","","","","","","","","null","stimulus/SV_PolicingMSA/TX_576/IMG_6_576.jpg","null","","","","","","2","","","","","",""
"street view slide show","image-button-response","133","552682","0.0-133.0","","656776a7904ae00d6b91d1dd","6568ad6677e50c0d89c7a320","8","","","","","","","","","","","","null","stimulus/SV_PolicingMSA/TX_576/IMG_5_576.jpg","null","","","","","","2","","","","","",""
"street view slide show","image-button-response","134","553684","0.0-134.0","","656776a7904ae00d6b91d1dd","6568ad6677e50c0d89c7a320","8","","","","","","","","","","","","null","stimulus/SV_PolicingMSA/TX_576/IMG_13_576.jpg","null","","","","","","2","","","","","",""
"street view slide show","image-button-response","135","554691","0.0-135.0","","656776a7904ae00d6b91d1dd","6568ad6677e50c0d89c7a320","8","","","","","","","","","","","","null","stimulus/SV_PolicingMSA/TX_576/IMG_1_576.jpg","null","","","","","","2","","","","","",""
"street view slide show","image-button-response","136","555692","0.0-136.0","","656776a7904ae00d6b91d1dd","6568ad6677e50c0d89c7a320","8","","","","","","","","","","","","null","stimulus/SV_PolicingMSA/TX_576/IMG_11_576.jpg","null","","","","","","2","","","","","",""
"dot matrix survey1","survey","137","568687","0.0-137.0","","656776a7904ae00d6b91d1dd","6568ad6677e50c0d89c7a320","8","","","","","","","","","","","","12987","","{""P0_Q0"":null,""P0_Q1"":{""wealthy"":3,""safe"":2,""walkable"":0,""traditional"":2,""diverse"":1}}","","","","","","2","[]","","","","",""
"dot matrix survey2","survey","138","579033","0.0-138.0","","656776a7904ae00d6b91d1dd","6568ad6677e50c0d89c7a320","8","","","","","","","","","","","","10339","","{""P0_Q0"":null,""P0_Q1"":{""violence"":1,""crime"":1,""drug"":1,""schools"":2,""opportunities"":2}}","","","","","","2","[]","","","","",""
"dot matrix survey3","survey","139","591266","0.0-139.0","","656776a7904ae00d6b91d1dd","6568ad6677e50c0d89c7a320","8","","","","","","","","","","","","12223","","{""P0_Q0"":null,""P0_Q1"":{""movein"":2,""moveout"":3,""shopping"":3,""walk"":1,""park"":2,""school"":2}}","","","","","","2","[]","","","","",""
"sliderTrial","html-slider-response","140","594290","0.0-140.0","","656776a7904ae00d6b91d1dd","6568ad6677e50c0d89c7a320","8","","","","","","","","","","","","3023","[""SV_PolicingMSA/TX_576/IMG_10_576.jpg"",""SV_PolicingMSA/TX_576/IMG_0_576.jpg"",""SV_PolicingMSA/TX_576/IMG_7_576.jpg"",""SV_PolicingMSA/TX_576/IMG_6_576.jpg"",""SV_PolicingMSA/TX_576/IMG_5_576.jpg"",""SV_PolicingMSA/TX_576/IMG_13_576.jpg"",""SV_PolicingMSA/TX_576/IMG_1_576.jpg"",""SV_PolicingMSA/TX_576/IMG_11_576.jpg""]","2","","","","","","2","","4","[""./rc_img/cop_condGroup_9_CommunitySafety_autoscaled.png"",""./rc_img/cop_condGroup_9_SafeStreets_autoscaled.png""]","2","",""
"sliderTrial","html-slider-response","141","596430","0.0-141.0","","656776a7904ae00d6b91d1dd","6568ad6677e50c0d89c7a320","8","","","","","","","","","","","","2137","[""SV_PolicingMSA/TX_576/IMG_10_576.jpg"",""SV_PolicingMSA/TX_576/IMG_0_576.jpg"",""SV_PolicingMSA/TX_576/IMG_7_576.jpg"",""SV_PolicingMSA/TX_576/IMG_6_576.jpg"",""SV_PolicingMSA/TX_576/IMG_5_576.jpg"",""SV_PolicingMSA/TX_576/IMG_13_576.jpg"",""SV_PolicingMSA/TX_576/IMG_1_576.jpg"",""SV_PolicingMSA/TX_576/IMG_11_576.jpg""]","2","","","","","","2","","4","[""./rc_img/cop_condGroup_14_CommunitySafety_autoscaled.png"",""./rc_img/cop_condGroup_14_SafeStreets_autoscaled.png""]","2","",""
"sliderTrial","html-slider-response","142","599285","0.0-142.0","","656776a7904ae00d6b91d1dd","6568ad6677e50c0d89c7a320","8","","","","","","","","","","","","2854","[""SV_PolicingMSA/TX_576/IMG_10_576.jpg"",""SV_PolicingMSA/TX_576/IMG_0_576.jpg"",""SV_PolicingMSA/TX_576/IMG_7_576.jpg"",""SV_PolicingMSA/TX_576/IMG_6_576.jpg"",""SV_PolicingMSA/TX_576/IMG_5_576.jpg"",""SV_PolicingMSA/TX_576/IMG_13_576.jpg"",""SV_PolicingMSA/TX_576/IMG_1_576.jpg"",""SV_PolicingMSA/TX_576/IMG_11_576.jpg""]","2","","","","","","2","","4","[""./rc_img/cop_condGroup_17_CommunitySafety_autoscaled.png"",""./rc_img/cop_condGroup_17_SafeStreets_autoscaled.png""]","2","",""
"sliderTrial","html-slider-response","143","602403","0.0-143.0","","656776a7904ae00d6b91d1dd","6568ad6677e50c0d89c7a320","8","","","","","","","","","","","","3117","[""SV_PolicingMSA/TX_576/IMG_10_576.jpg"",""SV_PolicingMSA/TX_576/IMG_0_576.jpg"",""SV_PolicingMSA/TX_576/IMG_7_576.jpg"",""SV_PolicingMSA/TX_576/IMG_6_576.jpg"",""SV_PolicingMSA/TX_576/IMG_5_576.jpg"",""SV_PolicingMSA/TX_576/IMG_13_576.jpg"",""SV_PolicingMSA/TX_576/IMG_1_576.jpg"",""SV_PolicingMSA/TX_576/IMG_11_576.jpg""]","6","","","","","","2","","4","[""./rc_img/cop_condGroup_1_SafeStreets_autoscaled.png"",""./rc_img/cop_condGroup_1_CommunitySafety_autoscaled.png""]","2","",""
"sliderTrial","html-slider-response","144","606233","0.0-144.0","","656776a7904ae00d6b91d1dd","6568ad6677e50c0d89c7a320","8","","","","","","","","","","","","3829","[""SV_PolicingMSA/TX_576/IMG_10_576.jpg"",""SV_PolicingMSA/TX_576/IMG_0_576.jpg"",""SV_PolicingMSA/TX_576/IMG_7_576.jpg"",""SV_PolicingMSA/TX_576/IMG_6_576.jpg"",""SV_PolicingMSA/TX_576/IMG_5_576.jpg"",""SV_PolicingMSA/TX_576/IMG_13_576.jpg"",""SV_PolicingMSA/TX_576/IMG_1_576.jpg"",""SV_PolicingMSA/TX_576/IMG_11_576.jpg""]","2","","","","","","2","","4","[""./rc_img/cop_condGroup_16_CommunitySafety_autoscaled.png"",""./rc_img/cop_condGroup_16_SafeStreets_autoscaled.png""]","2","",""
"demographics","survey-html-form","145","618266","0.0-145.0","","656776a7904ae00d6b91d1dd","6568ad6677e50c0d89c7a320","8","","","","","","","","","","","","12031","","{""age"":""31"",""sex"":""male"",""gender"":""man"",""gender-self-describe"":"""",""zipcode"":""22180""}","","","","","","","","","","","",""
"demographics-list","survey","146","643715","0.0-146.0","","656776a7904ae00d6b91d1dd","6568ad6677e50c0d89c7a320","8","","","","","","","","","","","","25413","","{""P0_Q0"":null,""race-ethnicity"":[""White or of European ancestry"",""Hispanic or Latinx""],""education"":""Graduate & professional degrees"",""P1_Q0"":null,""ideology"":""Liberal"",""P2_Q0"":null,""num-moves"":1,""P3_Q0"":null,""social-ladder"":8}","","","","","","","[]","","","","",""
"end-survey","survey-text","147","649511","0.0-147.0","","656776a7904ae00d6b91d1dd","6568ad6677e50c0d89c7a320","8","","","","","","","","","","","","5786","","{""Q0"":""""}","","","","","","","","","","","","2"
"end-survey","html-button-response","148","656554","0.0-148.0","","656776a7904ae00d6b91d1dd","6568ad6677e50c0d89c7a320","8","","","","","","","","","","","","7042","
    You've reached the end of the survey. <br><br> 
    <b>Do not close or refresh this window.</b><br>
    On the next page, you will be automatically redirected to Prolific. <br><br>

    <div class=""alert alert-warning""><b>
    </div>
","0","","","","","","","","","","","",""
