"task","trial_type","trial_index","time_elapsed","internal_node_id","subject_id","study_id","session_id","section","width","height","webaudio","browser","browser_version","mobile","os","fullscreen","vsync_rate","webcam","microphone","rt","stimulus","response","success","timeout","failed_images","failed_audio","failed_video","block","accuracy","slider_start","choices","standardized_response","correct","num_attention_checks_correct"
"pavlovia-init","pavlovia","0","1201","0.0-0.0","","656776a7904ae00d6b91d1dd","6568adac8141dc6f6d24e0d8","10","","","","","","","","","","","","","","","","","","","","","","","","","",""
"browser-check","browser-check","1","2207","0.0-1.0","","656776a7904ae00d6b91d1dd","6568adac8141dc6f6d24e0d8","10","1440","718","true","chrome","119.0.0","false","Mac OS","true","60.07","true","true","","","","","","","","","","","","","","",""
"consent","html-button-response","2","25356","0.0-2.0","","656776a7904ae00d6b91d1dd","6568adac8141dc6f6d24e0d8","10","","","","","","","","","","","","23146","
        <div style=""font-size: 80%; max-width:700px"">
            <h2>CONSENT FORM</h2>
        
            <div style=""text-align: left"">
            <h4>DESCRIPTION</h4>
            <p>
            You will complete a short task where you give your impressions of various neighborhoods and assign individuals to those spaces, and answer some questions about your thoughts and opinions.<br>
            The University of Michigan Institutional Review Board Health Sciences and Behavioral Sciences has determined that this study is exempt from IRB oversight.
            </p>

            <h4>TIME INVOLVEMENT</h4>
            <p>Your participation will take approximately 15 minutes. You will receive $3.15 upon completion of the study.</p>
        
            <h4>RISKS AND BENEFITS</h4>
            <p>
            The risks associated with this study are minimal. The benefits which may reasonably be expected to result from this study are none. We cannot and do not guarantee or promise that you will receive any benefits from this study.
            </p>
          
            <h4>SUBJECT'S RIGHTS</h4>
            <p>
            If you have read this form and have decided to participate in this project, please understand your participation is voluntary and you have the right to withdraw your consent or discontinue participation at any time without penalty or loss of benefits to which you are otherwise entitled. The alternative is not to participate. You have the right to refuse to answer particular questions. Your individual privacy will be maintained in all published and written data resulting from the study.
            </p>

            <h4>HUMAN SUBJECT APPROVAL</h4>
            <p>
            This study is exempt from ongoing IRB review.
            </p>

            <h4>CONTACT INFORMATION</h4>
            If you have any questions, concerns or complaints about this research, its procedures, risks and benefits, contact the Protocol Director, Nicholas Camp, npcamp@umich.edu, (443) 851-6783. <br>

            If you have questions about your rights as a research participant, or wish to obtain information, ask questions or discuss any concerns about this study with someone other than the researcher(s), please contact the following:<br><br>
            University of Michigan<br>
            Health Sciences and Behavioral Sciences Institutional Review Board (IRB-HSBS)<br>
            2800 Plymouth Road<br>
            Building 520, Room 1169Ann Arbor, MI 48109-2800<br>
            Telephone: 734-936-0933 or toll free (866) 936-0933<br>
            Fax: 734-936-1852<br>
            E-mail: irbhsbs@umich.edu<br><br>

            You can also contact the University of Michigan Compliance Hotline at 1-866-990-0111. You may also print this consent form to keep.
            <br><br>
            <div class=""alert alert-warning""><b>
            Do you consent to participate in this study? If you consent to participate in this study, please click “Accept and Continue”. If you select ""Decline and Exit"", you will be exited from the survey. <br>
            </b></div>
            </div>
        </div>
    ","1","","","","","","","","","","","",""
"","preload","3","27150","0.0-3.0","","656776a7904ae00d6b91d1dd","6568adac8141dc6f6d24e0d8","10","","","","","","","","","","","","","","","true","false","[]","[]","[]","","","","","","",""
"instructions","html-button-response","4","92284","0.0-4.0","","656776a7904ae00d6b91d1dd","6568adac8141dc6f6d24e0d8","10","","","","","","","","","","","","65129","
        <div class=""text-container"">
        <h1>Welcome to the study!</h1>
        
        <div class=""text-left"">
            <p>
                In this study, we are interested in what people can tell about spaces from Google Street View images. <br> Google Street View takes pictures of streets used for Google Earth and Google Maps. <br>You’ll see Google Street View images of different places and answer some questions about each one.<br>
            </p>
        </div>
        <img src = ""assets/img/example.png"" width = 500px, height = auto>
        <br>
    <br>
    ","0","","","","","","","","","","","",""
"instructions","html-button-response","5","95442","0.0-5.0","","656776a7904ae00d6b91d1dd","6568adac8141dc6f6d24e0d8","10","","","","","","","","","","","","3156","
    <div class=""text-container"">
        <div class=""text-center"">
            <p>Please remember that your answers are completely anonymous.<br>Go with your gut response- there are no right or wrong answers!</p>
        </div>
    <br>
","0","","","","","","","","","","","",""
"before_SVSlide_prompt","html-button-response","6","97011","0.0-6.0","","656776a7904ae00d6b91d1dd","6568adac8141dc6f6d24e0d8","10","","","","","","","","","","","","1569","Click [Next] to see the next neighborhood!","0","","","","","","","","","","","",""
"street view slide show","image-button-response","7","98030","0.0-7.0","","656776a7904ae00d6b91d1dd","6568adac8141dc6f6d24e0d8","10","","","","","","","","","","","","null","stimulus/SV_PolicingMSA/FL_2544/IMG_2_2544.jpg","null","","","","","","3","","","","","",""
"street view slide show","image-button-response","8","99033","0.0-8.0","","656776a7904ae00d6b91d1dd","6568adac8141dc6f6d24e0d8","10","","","","","","","","","","","","null","stimulus/SV_PolicingMSA/FL_2544/IMG_14_2544.jpg","null","","","","","","3","","","","","",""
"street view slide show","image-button-response","9","100035","0.0-9.0","","656776a7904ae00d6b91d1dd","6568adac8141dc6f6d24e0d8","10","","","","","","","","","","","","null","stimulus/SV_PolicingMSA/FL_2544/IMG_11_2544.jpg","null","","","","","","3","","","","","",""
"street view slide show","image-button-response","10","101038","0.0-10.0","","656776a7904ae00d6b91d1dd","6568adac8141dc6f6d24e0d8","10","","","","","","","","","","","","null","stimulus/SV_PolicingMSA/FL_2544/IMG_6_2544.jpg","null","","","","","","3","","","","","",""
"street view slide show","image-button-response","11","102041","0.0-11.0","","656776a7904ae00d6b91d1dd","6568adac8141dc6f6d24e0d8","10","","","","","","","","","","","","null","stimulus/SV_PolicingMSA/FL_2544/IMG_12_2544.jpg","null","","","","","","3","","","","","",""
"street view slide show","image-button-response","12","103043","0.0-12.0","","656776a7904ae00d6b91d1dd","6568adac8141dc6f6d24e0d8","10","","","","","","","","","","","","null","stimulus/SV_PolicingMSA/FL_2544/IMG_10_2544.jpg","null","","","","","","3","","","","","",""
"street view slide show","image-button-response","13","104047","0.0-13.0","","656776a7904ae00d6b91d1dd","6568adac8141dc6f6d24e0d8","10","","","","","","","","","","","","null","stimulus/SV_PolicingMSA/FL_2544/IMG_1_2544.jpg","null","","","","","","3","","","","","",""
"street view slide show","image-button-response","14","105049","0.0-14.0","","656776a7904ae00d6b91d1dd","6568adac8141dc6f6d24e0d8","10","","","","","","","","","","","","null","stimulus/SV_PolicingMSA/FL_2544/IMG_3_2544.jpg","null","","","","","","3","","","","","",""
"dot matrix survey1","survey","15","306207","0.0-15.0","","656776a7904ae00d6b91d1dd","6568adac8141dc6f6d24e0d8","10","","","","","","","","","","","","201074","","{""P0_Q0"":null,""P0_Q1"":{""wealthy"":1,""safe"":2,""walkable"":0,""traditional"":2,""diverse"":2}}","","","","","","3","[]","","","","",""
"dot matrix survey2","survey","16","354738","0.0-16.0","","656776a7904ae00d6b91d1dd","6568adac8141dc6f6d24e0d8","10","","","","","","","","","","","","48518","","{""P0_Q0"":null,""P0_Q1"":{""violence"":2,""crime"":2,""drug"":2,""schools"":0,""opportunities"":0}}","","","","","","3","[]","","","","",""
"dot matrix survey3","survey","17","401417","0.0-17.0","","656776a7904ae00d6b91d1dd","6568adac8141dc6f6d24e0d8","10","","","","","","","","","","","","46667","","{""P0_Q0"":null,""P0_Q1"":{""movein"":0,""moveout"":4,""shopping"":0,""walk"":0,""park"":0,""school"":0}}","","","","","","3","[]","","","","",""
"sliderTrial","html-slider-response","18","429930","0.0-18.0","","656776a7904ae00d6b91d1dd","6568adac8141dc6f6d24e0d8","10","","","","","","","","","","","","28510","[""SV_PolicingMSA/FL_2544/IMG_2_2544.jpg"",""SV_PolicingMSA/FL_2544/IMG_14_2544.jpg"",""SV_PolicingMSA/FL_2544/IMG_11_2544.jpg"",""SV_PolicingMSA/FL_2544/IMG_6_2544.jpg"",""SV_PolicingMSA/FL_2544/IMG_12_2544.jpg"",""SV_PolicingMSA/FL_2544/IMG_10_2544.jpg"",""SV_PolicingMSA/FL_2544/IMG_1_2544.jpg"",""SV_PolicingMSA/FL_2544/IMG_3_2544.jpg""]","1","","","","","","3","","4","[""./rc_img/cop_condGroup_1_SafeStreets_autoscaled.png"",""./rc_img/cop_condGroup_1_CommunitySafety_autoscaled.png""]","7","",""
"sliderTrial","html-slider-response","19","441534","0.0-19.0","","656776a7904ae00d6b91d1dd","6568adac8141dc6f6d24e0d8","10","","","","","","","","","","","","11600","[""SV_PolicingMSA/FL_2544/IMG_2_2544.jpg"",""SV_PolicingMSA/FL_2544/IMG_14_2544.jpg"",""SV_PolicingMSA/FL_2544/IMG_11_2544.jpg"",""SV_PolicingMSA/FL_2544/IMG_6_2544.jpg"",""SV_PolicingMSA/FL_2544/IMG_12_2544.jpg"",""SV_PolicingMSA/FL_2544/IMG_10_2544.jpg"",""SV_PolicingMSA/FL_2544/IMG_1_2544.jpg"",""SV_PolicingMSA/FL_2544/IMG_3_2544.jpg""]","7","","","","","","3","","4","[""./rc_img/cop_condGroup_15_CommunitySafety_autoscaled.png"",""./rc_img/cop_condGroup_15_SafeStreets_autoscaled.png""]","7","",""
"sliderTrial","html-slider-response","20","449331","0.0-20.0","","656776a7904ae00d6b91d1dd","6568adac8141dc6f6d24e0d8","10","","","","","","","","","","","","7795","[""SV_PolicingMSA/FL_2544/IMG_2_2544.jpg"",""SV_PolicingMSA/FL_2544/IMG_14_2544.jpg"",""SV_PolicingMSA/FL_2544/IMG_11_2544.jpg"",""SV_PolicingMSA/FL_2544/IMG_6_2544.jpg"",""SV_PolicingMSA/FL_2544/IMG_12_2544.jpg"",""SV_PolicingMSA/FL_2544/IMG_10_2544.jpg"",""SV_PolicingMSA/FL_2544/IMG_1_2544.jpg"",""SV_PolicingMSA/FL_2544/IMG_3_2544.jpg""]","7","","","","","","3","","4","[""./rc_img/cop_condGroup_17_CommunitySafety_autoscaled.png"",""./rc_img/cop_condGroup_17_SafeStreets_autoscaled.png""]","7","",""
"sliderTrial","html-slider-response","21","455937","0.0-21.0","","656776a7904ae00d6b91d1dd","6568adac8141dc6f6d24e0d8","10","","","","","","","","","","","","6604","[""SV_PolicingMSA/FL_2544/IMG_2_2544.jpg"",""SV_PolicingMSA/FL_2544/IMG_14_2544.jpg"",""SV_PolicingMSA/FL_2544/IMG_11_2544.jpg"",""SV_PolicingMSA/FL_2544/IMG_6_2544.jpg"",""SV_PolicingMSA/FL_2544/IMG_12_2544.jpg"",""SV_PolicingMSA/FL_2544/IMG_10_2544.jpg"",""SV_PolicingMSA/FL_2544/IMG_1_2544.jpg"",""SV_PolicingMSA/FL_2544/IMG_3_2544.jpg""]","7","","","","","","3","","4","[""./rc_img/cop_condGroup_14_CommunitySafety_autoscaled.png"",""./rc_img/cop_condGroup_14_SafeStreets_autoscaled.png""]","7","",""
"sliderTrial","html-slider-response","22","460596","0.0-22.0","","656776a7904ae00d6b91d1dd","6568adac8141dc6f6d24e0d8","10","","","","","","","","","","","","4657","[""SV_PolicingMSA/FL_2544/IMG_2_2544.jpg"",""SV_PolicingMSA/FL_2544/IMG_14_2544.jpg"",""SV_PolicingMSA/FL_2544/IMG_11_2544.jpg"",""SV_PolicingMSA/FL_2544/IMG_6_2544.jpg"",""SV_PolicingMSA/FL_2544/IMG_12_2544.jpg"",""SV_PolicingMSA/FL_2544/IMG_10_2544.jpg"",""SV_PolicingMSA/FL_2544/IMG_1_2544.jpg"",""SV_PolicingMSA/FL_2544/IMG_3_2544.jpg""]","7","","","","","","3","","4","[""./rc_img/cop_condGroup_9_CommunitySafety_autoscaled.png"",""./rc_img/cop_condGroup_9_SafeStreets_autoscaled.png""]","7","",""
"before_SVSlide_prompt","html-button-response","23","462763","0.0-23.0","","656776a7904ae00d6b91d1dd","6568adac8141dc6f6d24e0d8","10","","","","","","","","","","","","2166","Click [Next] to see the next neighborhood!","0","","","","","","","","","","","",""
"street view slide show","image-button-response","24","463766","0.0-24.0","","656776a7904ae00d6b91d1dd","6568adac8141dc6f6d24e0d8","10","","","","","","","","","","","","null","stimulus/SV_PolicingMSA/FL_4528/IMG_7_4528.jpg","null","","","","","","1","","","","","",""
"street view slide show","image-button-response","25","464768","0.0-25.0","","656776a7904ae00d6b91d1dd","6568adac8141dc6f6d24e0d8","10","","","","","","","","","","","","null","stimulus/SV_PolicingMSA/FL_4528/IMG_6_4528.jpg","null","","","","","","1","","","","","",""
"street view slide show","image-button-response","26","465775","0.0-26.0","","656776a7904ae00d6b91d1dd","6568adac8141dc6f6d24e0d8","10","","","","","","","","","","","","null","stimulus/SV_PolicingMSA/FL_4528/IMG_10_4528.jpg","null","","","","","","1","","","","","",""
"street view slide show","image-button-response","27","466777","0.0-27.0","","656776a7904ae00d6b91d1dd","6568adac8141dc6f6d24e0d8","10","","","","","","","","","","","","null","stimulus/SV_PolicingMSA/FL_4528/IMG_9_4528.jpg","null","","","","","","1","","","","","",""
"street view slide show","image-button-response","28","467784","0.0-28.0","","656776a7904ae00d6b91d1dd","6568adac8141dc6f6d24e0d8","10","","","","","","","","","","","","null","stimulus/SV_PolicingMSA/FL_4528/IMG_8_4528.jpg","null","","","","","","1","","","","","",""
"street view slide show","image-button-response","29","468786","0.0-29.0","","656776a7904ae00d6b91d1dd","6568adac8141dc6f6d24e0d8","10","","","","","","","","","","","","null","stimulus/SV_PolicingMSA/FL_4528/IMG_1_4528.jpg","null","","","","","","1","","","","","",""
"street view slide show","image-button-response","30","469792","0.0-30.0","","656776a7904ae00d6b91d1dd","6568adac8141dc6f6d24e0d8","10","","","","","","","","","","","","null","stimulus/SV_PolicingMSA/FL_4528/IMG_14_4528.jpg","null","","","","","","1","","","","","",""
"street view slide show","image-button-response","31","470795","0.0-31.0","","656776a7904ae00d6b91d1dd","6568adac8141dc6f6d24e0d8","10","","","","","","","","","","","","null","stimulus/SV_PolicingMSA/FL_4528/IMG_3_4528.jpg","null","","","","","","1","","","","","",""
"dot matrix survey1","survey","32","507014","0.0-32.0","","656776a7904ae00d6b91d1dd","6568adac8141dc6f6d24e0d8","10","","","","","","","","","","","","36199","","{""P0_Q0"":null,""P0_Q1"":{""wealthy"":1,""safe"":1,""walkable"":0,""traditional"":1,""diverse"":1}}","","","","","","1","[]","","","","",""
"dot matrix survey2","survey","33","527989","0.0-33.0","","656776a7904ae00d6b91d1dd","6568adac8141dc6f6d24e0d8","10","","","","","","","","","","","","20965","","{""P0_Q0"":null,""P0_Q1"":{""violence"":2,""crime"":2,""drug"":2,""schools"":0,""opportunities"":0}}","","","","","","1","[]","","","","",""
"dot matrix survey3","survey","34","543058","0.0-34.0","","656776a7904ae00d6b91d1dd","6568adac8141dc6f6d24e0d8","10","","","","","","","","","","","","15060","","{""P0_Q0"":null,""P0_Q1"":{""movein"":0,""moveout"":4,""shopping"":0,""walk"":0,""park"":0,""school"":0}}","","","","","","1","[]","","","","",""
"sliderTrial_attention","html-slider-response","35","553065","0.0-35.0","","656776a7904ae00d6b91d1dd","6568adac8141dc6f6d24e0d8","10","","","","","","","","","","","","null","[""SV_PolicingMSA/FL_4528/IMG_7_4528.jpg"",""SV_PolicingMSA/FL_4528/IMG_6_4528.jpg"",""SV_PolicingMSA/FL_4528/IMG_10_4528.jpg"",""SV_PolicingMSA/FL_4528/IMG_9_4528.jpg"",""SV_PolicingMSA/FL_4528/IMG_8_4528.jpg"",""SV_PolicingMSA/FL_4528/IMG_1_4528.jpg"",""SV_PolicingMSA/FL_4528/IMG_14_4528.jpg"",""SV_PolicingMSA/FL_4528/IMG_3_4528.jpg""]","null","","","","","","1","","4","[""./assets/img/attnchk.png"",""./assets/img/attnchk.png""]","","true",""
"sliderTrial","html-slider-response","36","603240","0.0-36.0","","656776a7904ae00d6b91d1dd","6568adac8141dc6f6d24e0d8","10","","","","","","","","","","","","50171","[""SV_PolicingMSA/FL_4528/IMG_7_4528.jpg"",""SV_PolicingMSA/FL_4528/IMG_6_4528.jpg"",""SV_PolicingMSA/FL_4528/IMG_10_4528.jpg"",""SV_PolicingMSA/FL_4528/IMG_9_4528.jpg"",""SV_PolicingMSA/FL_4528/IMG_8_4528.jpg"",""SV_PolicingMSA/FL_4528/IMG_1_4528.jpg"",""SV_PolicingMSA/FL_4528/IMG_14_4528.jpg"",""SV_PolicingMSA/FL_4528/IMG_3_4528.jpg""]","1","","","","","","1","","4","[""./rc_img/cop_condGroup_13_SafeStreets_autoscaled.png"",""./rc_img/cop_condGroup_13_CommunitySafety_autoscaled.png""]","7","",""
"sliderTrial","html-slider-response","37","609621","0.0-37.0","","656776a7904ae00d6b91d1dd","6568adac8141dc6f6d24e0d8","10","","","","","","","","","","","","6379","[""SV_PolicingMSA/FL_4528/IMG_7_4528.jpg"",""SV_PolicingMSA/FL_4528/IMG_6_4528.jpg"",""SV_PolicingMSA/FL_4528/IMG_10_4528.jpg"",""SV_PolicingMSA/FL_4528/IMG_9_4528.jpg"",""SV_PolicingMSA/FL_4528/IMG_8_4528.jpg"",""SV_PolicingMSA/FL_4528/IMG_1_4528.jpg"",""SV_PolicingMSA/FL_4528/IMG_14_4528.jpg"",""SV_PolicingMSA/FL_4528/IMG_3_4528.jpg""]","1","","","","","","1","","4","[""./rc_img/cop_condGroup_11_SafeStreets_autoscaled.png"",""./rc_img/cop_condGroup_11_CommunitySafety_autoscaled.png""]","7","",""
"sliderTrial","html-slider-response","38","613446","0.0-38.0","","656776a7904ae00d6b91d1dd","6568adac8141dc6f6d24e0d8","10","","","","","","","","","","","","3824","[""SV_PolicingMSA/FL_4528/IMG_7_4528.jpg"",""SV_PolicingMSA/FL_4528/IMG_6_4528.jpg"",""SV_PolicingMSA/FL_4528/IMG_10_4528.jpg"",""SV_PolicingMSA/FL_4528/IMG_9_4528.jpg"",""SV_PolicingMSA/FL_4528/IMG_8_4528.jpg"",""SV_PolicingMSA/FL_4528/IMG_1_4528.jpg"",""SV_PolicingMSA/FL_4528/IMG_14_4528.jpg"",""SV_PolicingMSA/FL_4528/IMG_3_4528.jpg""]","1","","","","","","1","","4","[""./rc_img/cop_condGroup_19_SafeStreets_autoscaled.png"",""./rc_img/cop_condGroup_19_CommunitySafety_autoscaled.png""]","7","",""
"sliderTrial","html-slider-response","39","617095","0.0-39.0","","656776a7904ae00d6b91d1dd","6568adac8141dc6f6d24e0d8","10","","","","","","","","","","","","3647","[""SV_PolicingMSA/FL_4528/IMG_7_4528.jpg"",""SV_PolicingMSA/FL_4528/IMG_6_4528.jpg"",""SV_PolicingMSA/FL_4528/IMG_10_4528.jpg"",""SV_PolicingMSA/FL_4528/IMG_9_4528.jpg"",""SV_PolicingMSA/FL_4528/IMG_8_4528.jpg"",""SV_PolicingMSA/FL_4528/IMG_1_4528.jpg"",""SV_PolicingMSA/FL_4528/IMG_14_4528.jpg"",""SV_PolicingMSA/FL_4528/IMG_3_4528.jpg""]","7","","","","","","1","","4","[""./rc_img/cop_condGroup_5_CommunitySafety_autoscaled.png"",""./rc_img/cop_condGroup_5_SafeStreets_autoscaled.png""]","7","",""
"sliderTrial","html-slider-response","40","621523","0.0-40.0","","656776a7904ae00d6b91d1dd","6568adac8141dc6f6d24e0d8","10","","","","","","","","","","","","4425","[""SV_PolicingMSA/FL_4528/IMG_7_4528.jpg"",""SV_PolicingMSA/FL_4528/IMG_6_4528.jpg"",""SV_PolicingMSA/FL_4528/IMG_10_4528.jpg"",""SV_PolicingMSA/FL_4528/IMG_9_4528.jpg"",""SV_PolicingMSA/FL_4528/IMG_8_4528.jpg"",""SV_PolicingMSA/FL_4528/IMG_1_4528.jpg"",""SV_PolicingMSA/FL_4528/IMG_14_4528.jpg"",""SV_PolicingMSA/FL_4528/IMG_3_4528.jpg""]","1","","","","","","1","","4","[""./rc_img/cop_condGroup_12_SafeStreets_autoscaled.png"",""./rc_img/cop_condGroup_12_CommunitySafety_autoscaled.png""]","7","",""
"before_SVSlide_prompt","html-button-response","41","623777","0.0-41.0","","656776a7904ae00d6b91d1dd","6568adac8141dc6f6d24e0d8","10","","","","","","","","","","","","2253","Click [Next] to see the next neighborhood!","0","","","","","","","","","","","",""
"street view slide show","image-button-response","42","624781","0.0-42.0","","656776a7904ae00d6b91d1dd","6568adac8141dc6f6d24e0d8","10","","","","","","","","","","","","null","stimulus/SV_PolicingMSA/FL_4515/IMG_8_4515.jpg","null","","","","","","0","","","","","",""
"street view slide show","image-button-response","43","625785","0.0-43.0","","656776a7904ae00d6b91d1dd","6568adac8141dc6f6d24e0d8","10","","","","","","","","","","","","null","stimulus/SV_PolicingMSA/FL_4515/IMG_10_4515.jpg","null","","","","","","0","","","","","",""
"street view slide show","image-button-response","44","626793","0.0-44.0","","656776a7904ae00d6b91d1dd","6568adac8141dc6f6d24e0d8","10","","","","","","","","","","","","null","stimulus/SV_PolicingMSA/FL_4515/IMG_4_4515.jpg","null","","","","","","0","","","","","",""
"street view slide show","image-button-response","45","627794","0.0-45.0","","656776a7904ae00d6b91d1dd","6568adac8141dc6f6d24e0d8","10","","","","","","","","","","","","null","stimulus/SV_PolicingMSA/FL_4515/IMG_13_4515.jpg","null","","","","","","0","","","","","",""
"street view slide show","image-button-response","46","628801","0.0-46.0","","656776a7904ae00d6b91d1dd","6568adac8141dc6f6d24e0d8","10","","","","","","","","","","","","null","stimulus/SV_PolicingMSA/FL_4515/IMG_0_4515.jpg","null","","","","","","0","","","","","",""
"street view slide show","image-button-response","47","629803","0.0-47.0","","656776a7904ae00d6b91d1dd","6568adac8141dc6f6d24e0d8","10","","","","","","","","","","","","null","stimulus/SV_PolicingMSA/FL_4515/IMG_6_4515.jpg","null","","","","","","0","","","","","",""
"street view slide show","image-button-response","48","630810","0.0-48.0","","656776a7904ae00d6b91d1dd","6568adac8141dc6f6d24e0d8","10","","","","","","","","","","","","null","stimulus/SV_PolicingMSA/FL_4515/IMG_1_4515.jpg","null","","","","","","0","","","","","",""
"street view slide show","image-button-response","49","631812","0.0-49.0","","656776a7904ae00d6b91d1dd","6568adac8141dc6f6d24e0d8","10","","","","","","","","","","","","null","stimulus/SV_PolicingMSA/FL_4515/IMG_12_4515.jpg","null","","","","","","0","","","","","",""
"dot matrix survey1","survey","50","668488","0.0-50.0","","656776a7904ae00d6b91d1dd","6568adac8141dc6f6d24e0d8","10","","","","","","","","","","","","36658","","{""P0_Q0"":null,""P0_Q1"":{""wealthy"":2,""safe"":3,""walkable"":2,""traditional"":1,""diverse"":1}}","","","","","","0","[]","","","","",""
"dot matrix survey2","survey","51","686284","0.0-51.0","","656776a7904ae00d6b91d1dd","6568adac8141dc6f6d24e0d8","10","","","","","","","","","","","","17787","","{""P0_Q0"":null,""P0_Q1"":{""violence"":1,""crime"":1,""drug"":1,""schools"":0,""opportunities"":0}}","","","","","","0","[]","","","","",""
"dot matrix survey3","survey","52","706305","0.0-52.0","","656776a7904ae00d6b91d1dd","6568adac8141dc6f6d24e0d8","10","","","","","","","","","","","","20011","","{""P0_Q0"":null,""P0_Q1"":{""movein"":0,""moveout"":4,""shopping"":0,""walk"":0,""park"":0,""school"":0}}","","","","","","0","[]","","","","",""
"sliderTrial","html-slider-response","53","713870","0.0-53.0","","656776a7904ae00d6b91d1dd","6568adac8141dc6f6d24e0d8","10","","","","","","","","","","","","7562","[""SV_PolicingMSA/FL_4515/IMG_8_4515.jpg"",""SV_PolicingMSA/FL_4515/IMG_10_4515.jpg"",""SV_PolicingMSA/FL_4515/IMG_4_4515.jpg"",""SV_PolicingMSA/FL_4515/IMG_13_4515.jpg"",""SV_PolicingMSA/FL_4515/IMG_0_4515.jpg"",""SV_PolicingMSA/FL_4515/IMG_6_4515.jpg"",""SV_PolicingMSA/FL_4515/IMG_1_4515.jpg"",""SV_PolicingMSA/FL_4515/IMG_12_4515.jpg""]","1","","","","","","0","","4","[""./rc_img/cop_condGroup_20_SafeStreets_autoscaled.png"",""./rc_img/cop_condGroup_20_CommunitySafety_autoscaled.png""]","7","",""
"sliderTrial","html-slider-response","54","717619","0.0-54.0","","656776a7904ae00d6b91d1dd","6568adac8141dc6f6d24e0d8","10","","","","","","","","","","","","3747","[""SV_PolicingMSA/FL_4515/IMG_8_4515.jpg"",""SV_PolicingMSA/FL_4515/IMG_10_4515.jpg"",""SV_PolicingMSA/FL_4515/IMG_4_4515.jpg"",""SV_PolicingMSA/FL_4515/IMG_13_4515.jpg"",""SV_PolicingMSA/FL_4515/IMG_0_4515.jpg"",""SV_PolicingMSA/FL_4515/IMG_6_4515.jpg"",""SV_PolicingMSA/FL_4515/IMG_1_4515.jpg"",""SV_PolicingMSA/FL_4515/IMG_12_4515.jpg""]","7","","","","","","0","","4","[""./rc_img/cop_condGroup_3_CommunitySafety_autoscaled.png"",""./rc_img/cop_condGroup_3_SafeStreets_autoscaled.png""]","7","",""
"sliderTrial","html-slider-response","55","722000","0.0-55.0","","656776a7904ae00d6b91d1dd","6568adac8141dc6f6d24e0d8","10","","","","","","","","","","","","4380","[""SV_PolicingMSA/FL_4515/IMG_8_4515.jpg"",""SV_PolicingMSA/FL_4515/IMG_10_4515.jpg"",""SV_PolicingMSA/FL_4515/IMG_4_4515.jpg"",""SV_PolicingMSA/FL_4515/IMG_13_4515.jpg"",""SV_PolicingMSA/FL_4515/IMG_0_4515.jpg"",""SV_PolicingMSA/FL_4515/IMG_6_4515.jpg"",""SV_PolicingMSA/FL_4515/IMG_1_4515.jpg"",""SV_PolicingMSA/FL_4515/IMG_12_4515.jpg""]","7","","","","","","0","","4","[""./rc_img/cop_condGroup_16_CommunitySafety_autoscaled.png"",""./rc_img/cop_condGroup_16_SafeStreets_autoscaled.png""]","7","",""
"sliderTrial","html-slider-response","56","727115","0.0-56.0","","656776a7904ae00d6b91d1dd","6568adac8141dc6f6d24e0d8","10","","","","","","","","","","","","5113","[""SV_PolicingMSA/FL_4515/IMG_8_4515.jpg"",""SV_PolicingMSA/FL_4515/IMG_10_4515.jpg"",""SV_PolicingMSA/FL_4515/IMG_4_4515.jpg"",""SV_PolicingMSA/FL_4515/IMG_13_4515.jpg"",""SV_PolicingMSA/FL_4515/IMG_0_4515.jpg"",""SV_PolicingMSA/FL_4515/IMG_6_4515.jpg"",""SV_PolicingMSA/FL_4515/IMG_1_4515.jpg"",""SV_PolicingMSA/FL_4515/IMG_12_4515.jpg""]","7","","","","","","0","","4","[""./rc_img/cop_condGroup_8_CommunitySafety_autoscaled.png"",""./rc_img/cop_condGroup_8_SafeStreets_autoscaled.png""]","7","",""
"sliderTrial_attention","html-slider-response","57","737121","0.0-57.0","","656776a7904ae00d6b91d1dd","6568adac8141dc6f6d24e0d8","10","","","","","","","","","","","","null","[""SV_PolicingMSA/FL_4515/IMG_8_4515.jpg"",""SV_PolicingMSA/FL_4515/IMG_10_4515.jpg"",""SV_PolicingMSA/FL_4515/IMG_4_4515.jpg"",""SV_PolicingMSA/FL_4515/IMG_13_4515.jpg"",""SV_PolicingMSA/FL_4515/IMG_0_4515.jpg"",""SV_PolicingMSA/FL_4515/IMG_6_4515.jpg"",""SV_PolicingMSA/FL_4515/IMG_1_4515.jpg"",""SV_PolicingMSA/FL_4515/IMG_12_4515.jpg""]","null","","","","","","0","","4","[""./assets/img/attnchk.png"",""./assets/img/attnchk.png""]","","true",""
"sliderTrial","html-slider-response","58","743540","0.0-58.0","","656776a7904ae00d6b91d1dd","6568adac8141dc6f6d24e0d8","10","","","","","","","","","","","","6417","[""SV_PolicingMSA/FL_4515/IMG_8_4515.jpg"",""SV_PolicingMSA/FL_4515/IMG_10_4515.jpg"",""SV_PolicingMSA/FL_4515/IMG_4_4515.jpg"",""SV_PolicingMSA/FL_4515/IMG_13_4515.jpg"",""SV_PolicingMSA/FL_4515/IMG_0_4515.jpg"",""SV_PolicingMSA/FL_4515/IMG_6_4515.jpg"",""SV_PolicingMSA/FL_4515/IMG_1_4515.jpg"",""SV_PolicingMSA/FL_4515/IMG_12_4515.jpg""]","1","","","","","","0","","4","[""./rc_img/cop_condGroup_4_SafeStreets_autoscaled.png"",""./rc_img/cop_condGroup_4_CommunitySafety_autoscaled.png""]","7","",""
"before_SVSlide_prompt","html-button-response","59","745282","0.0-59.0","","656776a7904ae00d6b91d1dd","6568adac8141dc6f6d24e0d8","10","","","","","","","","","","","","1740","Click [Next] to see the next neighborhood!","0","","","","","","","","","","","",""
"street view slide show","image-button-response","60","746285","0.0-60.0","","656776a7904ae00d6b91d1dd","6568adac8141dc6f6d24e0d8","10","","","","","","","","","","","","null","stimulus/SV_PolicingMSA/FL_5080/IMG_8_5080.jpg","null","","","","","","2","","","","","",""
"street view slide show","image-button-response","61","747288","0.0-61.0","","656776a7904ae00d6b91d1dd","6568adac8141dc6f6d24e0d8","10","","","","","","","","","","","","null","stimulus/SV_PolicingMSA/FL_5080/IMG_7_5080.jpg","null","","","","","","2","","","","","",""
"street view slide show","image-button-response","62","748295","0.0-62.0","","656776a7904ae00d6b91d1dd","6568adac8141dc6f6d24e0d8","10","","","","","","","","","","","","null","stimulus/SV_PolicingMSA/FL_5080/IMG_3_5080.jpg","null","","","","","","2","","","","","",""
"street view slide show","image-button-response","63","749297","0.0-63.0","","656776a7904ae00d6b91d1dd","6568adac8141dc6f6d24e0d8","10","","","","","","","","","","","","null","stimulus/SV_PolicingMSA/FL_5080/IMG_10_5080.jpg","null","","","","","","2","","","","","",""
"street view slide show","image-button-response","64","750302","0.0-64.0","","656776a7904ae00d6b91d1dd","6568adac8141dc6f6d24e0d8","10","","","","","","","","","","","","null","stimulus/SV_PolicingMSA/FL_5080/IMG_9_5080.jpg","null","","","","","","2","","","","","",""
"street view slide show","image-button-response","65","751304","0.0-65.0","","656776a7904ae00d6b91d1dd","6568adac8141dc6f6d24e0d8","10","","","","","","","","","","","","null","stimulus/SV_PolicingMSA/FL_5080/IMG_6_5080.jpg","null","","","","","","2","","","","","",""
"street view slide show","image-button-response","66","752311","0.0-66.0","","656776a7904ae00d6b91d1dd","6568adac8141dc6f6d24e0d8","10","","","","","","","","","","","","null","stimulus/SV_PolicingMSA/FL_5080/IMG_13_5080.jpg","null","","","","","","2","","","","","",""
"street view slide show","image-button-response","67","753313","0.0-67.0","","656776a7904ae00d6b91d1dd","6568adac8141dc6f6d24e0d8","10","","","","","","","","","","","","null","stimulus/SV_PolicingMSA/FL_5080/IMG_1_5080.jpg","null","","","","","","2","","","","","",""
"dot matrix survey1","survey","68","772913","0.0-68.0","","656776a7904ae00d6b91d1dd","6568adac8141dc6f6d24e0d8","10","","","","","","","","","","","","19584","","{""P0_Q0"":null,""P0_Q1"":{""wealthy"":2,""safe"":3,""walkable"":2,""traditional"":2,""diverse"":2}}","","","","","","2","[]","","","","",""
"dot matrix survey2","survey","69","789803","0.0-69.0","","656776a7904ae00d6b91d1dd","6568adac8141dc6f6d24e0d8","10","","","","","","","","","","","","16879","","{""P0_Q0"":null,""P0_Q1"":{""violence"":0,""crime"":0,""drug"":0,""schools"":2,""opportunities"":2}}","","","","","","2","[]","","","","",""
"dot matrix survey3","survey","70","801208","0.0-70.0","","656776a7904ae00d6b91d1dd","6568adac8141dc6f6d24e0d8","10","","","","","","","","","","","","11390","","{""P0_Q0"":null,""P0_Q1"":{""movein"":0,""moveout"":4,""shopping"":0,""walk"":0,""park"":0,""school"":0}}","","","","","","2","[]","","","","",""
"sliderTrial","html-slider-response","71","813069","0.0-71.0","","656776a7904ae00d6b91d1dd","6568adac8141dc6f6d24e0d8","10","","","","","","","","","","","","11847","[""SV_PolicingMSA/FL_5080/IMG_8_5080.jpg"",""SV_PolicingMSA/FL_5080/IMG_7_5080.jpg"",""SV_PolicingMSA/FL_5080/IMG_3_5080.jpg"",""SV_PolicingMSA/FL_5080/IMG_10_5080.jpg"",""SV_PolicingMSA/FL_5080/IMG_9_5080.jpg"",""SV_PolicingMSA/FL_5080/IMG_6_5080.jpg"",""SV_PolicingMSA/FL_5080/IMG_13_5080.jpg"",""SV_PolicingMSA/FL_5080/IMG_1_5080.jpg""]","7","","","","","","2","","4","[""./rc_img/cop_condGroup_10_CommunitySafety_autoscaled.png"",""./rc_img/cop_condGroup_10_SafeStreets_autoscaled.png""]","7","",""
"sliderTrial","html-slider-response","72","817332","0.0-72.0","","656776a7904ae00d6b91d1dd","6568adac8141dc6f6d24e0d8","10","","","","","","","","","","","","4261","[""SV_PolicingMSA/FL_5080/IMG_8_5080.jpg"",""SV_PolicingMSA/FL_5080/IMG_7_5080.jpg"",""SV_PolicingMSA/FL_5080/IMG_3_5080.jpg"",""SV_PolicingMSA/FL_5080/IMG_10_5080.jpg"",""SV_PolicingMSA/FL_5080/IMG_9_5080.jpg"",""SV_PolicingMSA/FL_5080/IMG_6_5080.jpg"",""SV_PolicingMSA/FL_5080/IMG_13_5080.jpg"",""SV_PolicingMSA/FL_5080/IMG_1_5080.jpg""]","1","","","","","","2","","4","[""./rc_img/cop_condGroup_6_SafeStreets_autoscaled.png"",""./rc_img/cop_condGroup_6_CommunitySafety_autoscaled.png""]","7","",""
"sliderTrial","html-slider-response","73","821099","0.0-73.0","","656776a7904ae00d6b91d1dd","6568adac8141dc6f6d24e0d8","10","","","","","","","","","","","","3765","[""SV_PolicingMSA/FL_5080/IMG_8_5080.jpg"",""SV_PolicingMSA/FL_5080/IMG_7_5080.jpg"",""SV_PolicingMSA/FL_5080/IMG_3_5080.jpg"",""SV_PolicingMSA/FL_5080/IMG_10_5080.jpg"",""SV_PolicingMSA/FL_5080/IMG_9_5080.jpg"",""SV_PolicingMSA/FL_5080/IMG_6_5080.jpg"",""SV_PolicingMSA/FL_5080/IMG_13_5080.jpg"",""SV_PolicingMSA/FL_5080/IMG_1_5080.jpg""]","7","","","","","","2","","4","[""./rc_img/cop_condGroup_2_CommunitySafety_autoscaled.png"",""./rc_img/cop_condGroup_2_SafeStreets_autoscaled.png""]","7","",""
"sliderTrial","html-slider-response","74","825467","0.0-74.0","","656776a7904ae00d6b91d1dd","6568adac8141dc6f6d24e0d8","10","","","","","","","","","","","","4366","[""SV_PolicingMSA/FL_5080/IMG_8_5080.jpg"",""SV_PolicingMSA/FL_5080/IMG_7_5080.jpg"",""SV_PolicingMSA/FL_5080/IMG_3_5080.jpg"",""SV_PolicingMSA/FL_5080/IMG_10_5080.jpg"",""SV_PolicingMSA/FL_5080/IMG_9_5080.jpg"",""SV_PolicingMSA/FL_5080/IMG_6_5080.jpg"",""SV_PolicingMSA/FL_5080/IMG_13_5080.jpg"",""SV_PolicingMSA/FL_5080/IMG_1_5080.jpg""]","7","","","","","","2","","4","[""./rc_img/cop_condGroup_18_CommunitySafety_autoscaled.png"",""./rc_img/cop_condGroup_18_SafeStreets_autoscaled.png""]","7","",""
"sliderTrial","html-slider-response","75","828745","0.0-75.0","","656776a7904ae00d6b91d1dd","6568adac8141dc6f6d24e0d8","10","","","","","","","","","","","","3277","[""SV_PolicingMSA/FL_5080/IMG_8_5080.jpg"",""SV_PolicingMSA/FL_5080/IMG_7_5080.jpg"",""SV_PolicingMSA/FL_5080/IMG_3_5080.jpg"",""SV_PolicingMSA/FL_5080/IMG_10_5080.jpg"",""SV_PolicingMSA/FL_5080/IMG_9_5080.jpg"",""SV_PolicingMSA/FL_5080/IMG_6_5080.jpg"",""SV_PolicingMSA/FL_5080/IMG_13_5080.jpg"",""SV_PolicingMSA/FL_5080/IMG_1_5080.jpg""]","7","","","","","","2","","4","[""./rc_img/cop_condGroup_7_CommunitySafety_autoscaled.png"",""./rc_img/cop_condGroup_7_SafeStreets_autoscaled.png""]","7","",""
"half-way","html-button-response","76","844499","0.0-76.0","","656776a7904ae00d6b91d1dd","6568adac8141dc6f6d24e0d8","10","","","","","","","","","","","","null","
    <h3>You are now half way through the study.</h3>
    <p>Please take a quick, 15-second break before you continue.</p>
    <img src='assets/img/countdown-15.gif'>
    <p>The study will automatically advance forward after the countdown is complete. <br> However, you may click ""Next"" to advance forward now if you wish.</p>
    ","null","","","","","","","","","","","",""
"before_SVSlide_prompt","html-button-response","77","846447","0.0-77.0","","656776a7904ae00d6b91d1dd","6568adac8141dc6f6d24e0d8","10","","","","","","","","","","","","1935","Click [Next] to see the next neighborhood!","0","","","","","","","","","","","",""
"street view slide show","image-button-response","78","847482","0.0-78.0","","656776a7904ae00d6b91d1dd","6568adac8141dc6f6d24e0d8","10","","","","","","","","","","","","null","stimulus/SV_PolicingMSA/FL_1410/IMG_8_1410.jpg","null","","","","","","2","","","","","",""
"street view slide show","image-button-response","79","848485","0.0-79.0","","656776a7904ae00d6b91d1dd","6568adac8141dc6f6d24e0d8","10","","","","","","","","","","","","null","stimulus/SV_PolicingMSA/FL_1410/IMG_9_1410.jpg","null","","","","","","2","","","","","",""
"street view slide show","image-button-response","80","849491","0.0-80.0","","656776a7904ae00d6b91d1dd","6568adac8141dc6f6d24e0d8","10","","","","","","","","","","","","null","stimulus/SV_PolicingMSA/FL_1410/IMG_1_1410.jpg","null","","","","","","2","","","","","",""
"street view slide show","image-button-response","81","850492","0.0-81.0","","656776a7904ae00d6b91d1dd","6568adac8141dc6f6d24e0d8","10","","","","","","","","","","","","null","stimulus/SV_PolicingMSA/FL_1410/IMG_5_1410.jpg","null","","","","","","2","","","","","",""
"street view slide show","image-button-response","82","851498","0.0-82.0","","656776a7904ae00d6b91d1dd","6568adac8141dc6f6d24e0d8","10","","","","","","","","","","","","null","stimulus/SV_PolicingMSA/FL_1410/IMG_10_1410.jpg","null","","","","","","2","","","","","",""
"street view slide show","image-button-response","83","852500","0.0-83.0","","656776a7904ae00d6b91d1dd","6568adac8141dc6f6d24e0d8","10","","","","","","","","","","","","null","stimulus/SV_PolicingMSA/FL_1410/IMG_11_1410.jpg","null","","","","","","2","","","","","",""
"street view slide show","image-button-response","84","853503","0.0-84.0","","656776a7904ae00d6b91d1dd","6568adac8141dc6f6d24e0d8","10","","","","","","","","","","","","null","stimulus/SV_PolicingMSA/FL_1410/IMG_4_1410.jpg","null","","","","","","2","","","","","",""
"street view slide show","image-button-response","85","854506","0.0-85.0","","656776a7904ae00d6b91d1dd","6568adac8141dc6f6d24e0d8","10","","","","","","","","","","","","null","stimulus/SV_PolicingMSA/FL_1410/IMG_6_1410.jpg","null","","","","","","2","","","","","",""
"dot matrix survey1","survey","86","907012","0.0-86.0","","656776a7904ae00d6b91d1dd","6568adac8141dc6f6d24e0d8","10","","","","","","","","","","","","52490","","{""P0_Q0"":null,""P0_Q1"":{""wealthy"":2,""safe"":3,""walkable"":3,""traditional"":2,""diverse"":2}}","","","","","","2","[]","","","","",""
"dot matrix survey2","survey","87","918032","0.0-87.0","","656776a7904ae00d6b91d1dd","6568adac8141dc6f6d24e0d8","10","","","","","","","","","","","","11012","","{""P0_Q0"":null,""P0_Q1"":{""violence"":1,""crime"":1,""drug"":1,""schools"":2,""opportunities"":2}}","","","","","","2","[]","","","","",""
"dot matrix survey3","survey","88","928409","0.0-88.0","","656776a7904ae00d6b91d1dd","6568adac8141dc6f6d24e0d8","10","","","","","","","","","","","","10369","","{""P0_Q0"":null,""P0_Q1"":{""movein"":0,""moveout"":4,""shopping"":0,""walk"":0,""park"":0,""school"":0}}","","","","","","2","[]","","","","",""
"sliderTrial","html-slider-response","89","935221","0.0-89.0","","656776a7904ae00d6b91d1dd","6568adac8141dc6f6d24e0d8","10","","","","","","","","","","","","6810","[""SV_PolicingMSA/FL_1410/IMG_8_1410.jpg"",""SV_PolicingMSA/FL_1410/IMG_9_1410.jpg"",""SV_PolicingMSA/FL_1410/IMG_1_1410.jpg"",""SV_PolicingMSA/FL_1410/IMG_5_1410.jpg"",""SV_PolicingMSA/FL_1410/IMG_10_1410.jpg"",""SV_PolicingMSA/FL_1410/IMG_11_1410.jpg"",""SV_PolicingMSA/FL_1410/IMG_4_1410.jpg"",""SV_PolicingMSA/FL_1410/IMG_6_1410.jpg""]","1","","","","","","2","","4","[""./rc_img/cop_condGroup_20_SafeStreets_autoscaled.png"",""./rc_img/cop_condGroup_20_CommunitySafety_autoscaled.png""]","7","",""
"sliderTrial","html-slider-response","90","938234","0.0-90.0","","656776a7904ae00d6b91d1dd","6568adac8141dc6f6d24e0d8","10","","","","","","","","","","","","3012","[""SV_PolicingMSA/FL_1410/IMG_8_1410.jpg"",""SV_PolicingMSA/FL_1410/IMG_9_1410.jpg"",""SV_PolicingMSA/FL_1410/IMG_1_1410.jpg"",""SV_PolicingMSA/FL_1410/IMG_5_1410.jpg"",""SV_PolicingMSA/FL_1410/IMG_10_1410.jpg"",""SV_PolicingMSA/FL_1410/IMG_11_1410.jpg"",""SV_PolicingMSA/FL_1410/IMG_4_1410.jpg"",""SV_PolicingMSA/FL_1410/IMG_6_1410.jpg""]","7","","","","","","2","","4","[""./rc_img/cop_condGroup_3_CommunitySafety_autoscaled.png"",""./rc_img/cop_condGroup_3_SafeStreets_autoscaled.png""]","7","",""
"sliderTrial","html-slider-response","91","946729","0.0-91.0","","656776a7904ae00d6b91d1dd","6568adac8141dc6f6d24e0d8","10","","","","","","","","","","","","8493","[""SV_PolicingMSA/FL_1410/IMG_8_1410.jpg"",""SV_PolicingMSA/FL_1410/IMG_9_1410.jpg"",""SV_PolicingMSA/FL_1410/IMG_1_1410.jpg"",""SV_PolicingMSA/FL_1410/IMG_5_1410.jpg"",""SV_PolicingMSA/FL_1410/IMG_10_1410.jpg"",""SV_PolicingMSA/FL_1410/IMG_11_1410.jpg"",""SV_PolicingMSA/FL_1410/IMG_4_1410.jpg"",""SV_PolicingMSA/FL_1410/IMG_6_1410.jpg""]","7","","","","","","2","","4","[""./rc_img/cop_condGroup_16_CommunitySafety_autoscaled.png"",""./rc_img/cop_condGroup_16_SafeStreets_autoscaled.png""]","7","",""
"sliderTrial","html-slider-response","92","951601","0.0-92.0","","656776a7904ae00d6b91d1dd","6568adac8141dc6f6d24e0d8","10","","","","","","","","","","","","4870","[""SV_PolicingMSA/FL_1410/IMG_8_1410.jpg"",""SV_PolicingMSA/FL_1410/IMG_9_1410.jpg"",""SV_PolicingMSA/FL_1410/IMG_1_1410.jpg"",""SV_PolicingMSA/FL_1410/IMG_5_1410.jpg"",""SV_PolicingMSA/FL_1410/IMG_10_1410.jpg"",""SV_PolicingMSA/FL_1410/IMG_11_1410.jpg"",""SV_PolicingMSA/FL_1410/IMG_4_1410.jpg"",""SV_PolicingMSA/FL_1410/IMG_6_1410.jpg""]","7","","","","","","2","","4","[""./rc_img/cop_condGroup_8_CommunitySafety_autoscaled.png"",""./rc_img/cop_condGroup_8_SafeStreets_autoscaled.png""]","7","",""
"sliderTrial","html-slider-response","93","956577","0.0-93.0","","656776a7904ae00d6b91d1dd","6568adac8141dc6f6d24e0d8","10","","","","","","","","","","","","4974","[""SV_PolicingMSA/FL_1410/IMG_8_1410.jpg"",""SV_PolicingMSA/FL_1410/IMG_9_1410.jpg"",""SV_PolicingMSA/FL_1410/IMG_1_1410.jpg"",""SV_PolicingMSA/FL_1410/IMG_5_1410.jpg"",""SV_PolicingMSA/FL_1410/IMG_10_1410.jpg"",""SV_PolicingMSA/FL_1410/IMG_11_1410.jpg"",""SV_PolicingMSA/FL_1410/IMG_4_1410.jpg"",""SV_PolicingMSA/FL_1410/IMG_6_1410.jpg""]","1","","","","","","2","","4","[""./rc_img/cop_condGroup_4_SafeStreets_autoscaled.png"",""./rc_img/cop_condGroup_4_CommunitySafety_autoscaled.png""]","7","",""
"before_SVSlide_prompt","html-button-response","94","958643","0.0-94.0","","656776a7904ae00d6b91d1dd","6568adac8141dc6f6d24e0d8","10","","","","","","","","","","","","2064","Click [Next] to see the next neighborhood!","0","","","","","","","","","","","",""
"street view slide show","image-button-response","95","959646","0.0-95.0","","656776a7904ae00d6b91d1dd","6568adac8141dc6f6d24e0d8","10","","","","","","","","","","","","null","stimulus/SV_PolicingMSA/FL_4062/IMG_9_4062.jpg","null","","","","","","3","","","","","",""
"street view slide show","image-button-response","96","960651","0.0-96.0","","656776a7904ae00d6b91d1dd","6568adac8141dc6f6d24e0d8","10","","","","","","","","","","","","null","stimulus/SV_PolicingMSA/FL_4062/IMG_7_4062.jpg","null","","","","","","3","","","","","",""
"street view slide show","image-button-response","97","961658","0.0-97.0","","656776a7904ae00d6b91d1dd","6568adac8141dc6f6d24e0d8","10","","","","","","","","","","","","null","stimulus/SV_PolicingMSA/FL_4062/IMG_11_4062.jpg","null","","","","","","3","","","","","",""
"street view slide show","image-button-response","98","962665","0.0-98.0","","656776a7904ae00d6b91d1dd","6568adac8141dc6f6d24e0d8","10","","","","","","","","","","","","null","stimulus/SV_PolicingMSA/FL_4062/IMG_8_4062.jpg","null","","","","","","3","","","","","",""
"street view slide show","image-button-response","99","963672","0.0-99.0","","656776a7904ae00d6b91d1dd","6568adac8141dc6f6d24e0d8","10","","","","","","","","","","","","null","stimulus/SV_PolicingMSA/FL_4062/IMG_6_4062.jpg","null","","","","","","3","","","","","",""
"street view slide show","image-button-response","100","964679","0.0-100.0","","656776a7904ae00d6b91d1dd","6568adac8141dc6f6d24e0d8","10","","","","","","","","","","","","null","stimulus/SV_PolicingMSA/FL_4062/IMG_14_4062.jpg","null","","","","","","3","","","","","",""
"street view slide show","image-button-response","101","965682","0.0-101.0","","656776a7904ae00d6b91d1dd","6568adac8141dc6f6d24e0d8","10","","","","","","","","","","","","null","stimulus/SV_PolicingMSA/FL_4062/IMG_2_4062.jpg","null","","","","","","3","","","","","",""
"street view slide show","image-button-response","102","966684","0.0-102.0","","656776a7904ae00d6b91d1dd","6568adac8141dc6f6d24e0d8","10","","","","","","","","","","","","null","stimulus/SV_PolicingMSA/FL_4062/IMG_3_4062.jpg","null","","","","","","3","","","","","",""
"dot matrix survey1","survey","103","982845","0.0-103.0","","656776a7904ae00d6b91d1dd","6568adac8141dc6f6d24e0d8","10","","","","","","","","","","","","16142","","{""P0_Q0"":null,""P0_Q1"":{""wealthy"":3,""safe"":3,""walkable"":3,""traditional"":3,""diverse"":1}}","","","","","","3","[]","","","","",""
"dot matrix survey2","survey","104","994752","0.0-104.0","","656776a7904ae00d6b91d1dd","6568adac8141dc6f6d24e0d8","10","","","","","","","","","","","","11895","","{""P0_Q0"":null,""P0_Q1"":{""violence"":0,""crime"":0,""drug"":0,""schools"":3,""opportunities"":3}}","","","","","","3","[]","","","","",""
"dot matrix survey3","survey","105","1022673","0.0-105.0","","656776a7904ae00d6b91d1dd","6568adac8141dc6f6d24e0d8","10","","","","","","","","","","","","27911","","{""P0_Q0"":null,""P0_Q1"":{""movein"":1,""moveout"":3,""shopping"":0,""walk"":0,""park"":0,""school"":0}}","","","","","","3","[]","","","","",""
"sliderTrial","html-slider-response","106","1027527","0.0-106.0","","656776a7904ae00d6b91d1dd","6568adac8141dc6f6d24e0d8","10","","","","","","","","","","","","4852","[""SV_PolicingMSA/FL_4062/IMG_9_4062.jpg"",""SV_PolicingMSA/FL_4062/IMG_7_4062.jpg"",""SV_PolicingMSA/FL_4062/IMG_11_4062.jpg"",""SV_PolicingMSA/FL_4062/IMG_8_4062.jpg"",""SV_PolicingMSA/FL_4062/IMG_6_4062.jpg"",""SV_PolicingMSA/FL_4062/IMG_14_4062.jpg"",""SV_PolicingMSA/FL_4062/IMG_2_4062.jpg"",""SV_PolicingMSA/FL_4062/IMG_3_4062.jpg""]","1","","","","","","3","","4","[""./rc_img/cop_condGroup_13_SafeStreets_autoscaled.png"",""./rc_img/cop_condGroup_13_CommunitySafety_autoscaled.png""]","7","",""
"sliderTrial","html-slider-response","107","1031022","0.0-107.0","","656776a7904ae00d6b91d1dd","6568adac8141dc6f6d24e0d8","10","","","","","","","","","","","","3493","[""SV_PolicingMSA/FL_4062/IMG_9_4062.jpg"",""SV_PolicingMSA/FL_4062/IMG_7_4062.jpg"",""SV_PolicingMSA/FL_4062/IMG_11_4062.jpg"",""SV_PolicingMSA/FL_4062/IMG_8_4062.jpg"",""SV_PolicingMSA/FL_4062/IMG_6_4062.jpg"",""SV_PolicingMSA/FL_4062/IMG_14_4062.jpg"",""SV_PolicingMSA/FL_4062/IMG_2_4062.jpg"",""SV_PolicingMSA/FL_4062/IMG_3_4062.jpg""]","1","","","","","","3","","4","[""./rc_img/cop_condGroup_11_SafeStreets_autoscaled.png"",""./rc_img/cop_condGroup_11_CommunitySafety_autoscaled.png""]","7","",""
"sliderTrial","html-slider-response","108","1034574","0.0-108.0","","656776a7904ae00d6b91d1dd","6568adac8141dc6f6d24e0d8","10","","","","","","","","","","","","3550","[""SV_PolicingMSA/FL_4062/IMG_9_4062.jpg"",""SV_PolicingMSA/FL_4062/IMG_7_4062.jpg"",""SV_PolicingMSA/FL_4062/IMG_11_4062.jpg"",""SV_PolicingMSA/FL_4062/IMG_8_4062.jpg"",""SV_PolicingMSA/FL_4062/IMG_6_4062.jpg"",""SV_PolicingMSA/FL_4062/IMG_14_4062.jpg"",""SV_PolicingMSA/FL_4062/IMG_2_4062.jpg"",""SV_PolicingMSA/FL_4062/IMG_3_4062.jpg""]","1","","","","","","3","","4","[""./rc_img/cop_condGroup_19_SafeStreets_autoscaled.png"",""./rc_img/cop_condGroup_19_CommunitySafety_autoscaled.png""]","7","",""
"sliderTrial","html-slider-response","109","1038166","0.0-109.0","","656776a7904ae00d6b91d1dd","6568adac8141dc6f6d24e0d8","10","","","","","","","","","","","","3590","[""SV_PolicingMSA/FL_4062/IMG_9_4062.jpg"",""SV_PolicingMSA/FL_4062/IMG_7_4062.jpg"",""SV_PolicingMSA/FL_4062/IMG_11_4062.jpg"",""SV_PolicingMSA/FL_4062/IMG_8_4062.jpg"",""SV_PolicingMSA/FL_4062/IMG_6_4062.jpg"",""SV_PolicingMSA/FL_4062/IMG_14_4062.jpg"",""SV_PolicingMSA/FL_4062/IMG_2_4062.jpg"",""SV_PolicingMSA/FL_4062/IMG_3_4062.jpg""]","7","","","","","","3","","4","[""./rc_img/cop_condGroup_5_CommunitySafety_autoscaled.png"",""./rc_img/cop_condGroup_5_SafeStreets_autoscaled.png""]","7","",""
"sliderTrial","html-slider-response","110","1042070","0.0-110.0","","656776a7904ae00d6b91d1dd","6568adac8141dc6f6d24e0d8","10","","","","","","","","","","","","3902","[""SV_PolicingMSA/FL_4062/IMG_9_4062.jpg"",""SV_PolicingMSA/FL_4062/IMG_7_4062.jpg"",""SV_PolicingMSA/FL_4062/IMG_11_4062.jpg"",""SV_PolicingMSA/FL_4062/IMG_8_4062.jpg"",""SV_PolicingMSA/FL_4062/IMG_6_4062.jpg"",""SV_PolicingMSA/FL_4062/IMG_14_4062.jpg"",""SV_PolicingMSA/FL_4062/IMG_2_4062.jpg"",""SV_PolicingMSA/FL_4062/IMG_3_4062.jpg""]","1","","","","","","3","","4","[""./rc_img/cop_condGroup_12_SafeStreets_autoscaled.png"",""./rc_img/cop_condGroup_12_CommunitySafety_autoscaled.png""]","7","",""
"before_SVSlide_prompt","html-button-response","111","1043800","0.0-111.0","","656776a7904ae00d6b91d1dd","6568adac8141dc6f6d24e0d8","10","","","","","","","","","","","","1729","Click [Next] to see the next neighborhood!","0","","","","","","","","","","","",""
"street view slide show","image-button-response","112","1044803","0.0-112.0","","656776a7904ae00d6b91d1dd","6568adac8141dc6f6d24e0d8","10","","","","","","","","","","","","null","stimulus/SV_PolicingMSA/FL_4023/IMG_4_4023.jpg","null","","","","","","4","","","","","",""
"street view slide show","image-button-response","113","1045807","0.0-113.0","","656776a7904ae00d6b91d1dd","6568adac8141dc6f6d24e0d8","10","","","","","","","","","","","","null","stimulus/SV_PolicingMSA/FL_4023/IMG_10_4023.jpg","null","","","","","","4","","","","","",""
"street view slide show","image-button-response","114","1046814","0.0-114.0","","656776a7904ae00d6b91d1dd","6568adac8141dc6f6d24e0d8","10","","","","","","","","","","","","null","stimulus/SV_PolicingMSA/FL_4023/IMG_1_4023.jpg","null","","","","","","4","","","","","",""
"street view slide show","image-button-response","115","1047817","0.0-115.0","","656776a7904ae00d6b91d1dd","6568adac8141dc6f6d24e0d8","10","","","","","","","","","","","","null","stimulus/SV_PolicingMSA/FL_4023/IMG_2_4023.jpg","null","","","","","","4","","","","","",""
"street view slide show","image-button-response","116","1048824","0.0-116.0","","656776a7904ae00d6b91d1dd","6568adac8141dc6f6d24e0d8","10","","","","","","","","","","","","null","stimulus/SV_PolicingMSA/FL_4023/IMG_5_4023.jpg","null","","","","","","4","","","","","",""
"street view slide show","image-button-response","117","1049826","0.0-117.0","","656776a7904ae00d6b91d1dd","6568adac8141dc6f6d24e0d8","10","","","","","","","","","","","","null","stimulus/SV_PolicingMSA/FL_4023/IMG_12_4023.jpg","null","","","","","","4","","","","","",""
"street view slide show","image-button-response","118","1050832","0.0-118.0","","656776a7904ae00d6b91d1dd","6568adac8141dc6f6d24e0d8","10","","","","","","","","","","","","null","stimulus/SV_PolicingMSA/FL_4023/IMG_6_4023.jpg","null","","","","","","4","","","","","",""
"street view slide show","image-button-response","119","1051835","0.0-119.0","","656776a7904ae00d6b91d1dd","6568adac8141dc6f6d24e0d8","10","","","","","","","","","","","","null","stimulus/SV_PolicingMSA/FL_4023/IMG_9_4023.jpg","null","","","","","","4","","","","","",""
"dot matrix survey1","survey","120","1079674","0.0-120.0","","656776a7904ae00d6b91d1dd","6568adac8141dc6f6d24e0d8","10","","","","","","","","","","","","27824","","{""P0_Q0"":null,""P0_Q1"":{""wealthy"":1,""safe"":2,""walkable"":1,""traditional"":2,""diverse"":3}}","","","","","","4","[]","","","","",""
"dot matrix survey2","survey","121","1093459","0.0-121.0","","656776a7904ae00d6b91d1dd","6568adac8141dc6f6d24e0d8","10","","","","","","","","","","","","13776","","{""P0_Q0"":null,""P0_Q1"":{""violence"":1,""crime"":1,""drug"":1,""schools"":1,""opportunities"":1}}","","","","","","4","[]","","","","",""
"dot matrix survey3","survey","122","1102374","0.0-122.0","","656776a7904ae00d6b91d1dd","6568adac8141dc6f6d24e0d8","10","","","","","","","","","","","","8906","","{""P0_Q0"":null,""P0_Q1"":{""movein"":0,""moveout"":4,""shopping"":0,""walk"":0,""park"":0,""school"":0}}","","","","","","4","[]","","","","",""
"sliderTrial","html-slider-response","123","1105819","0.0-123.0","","656776a7904ae00d6b91d1dd","6568adac8141dc6f6d24e0d8","10","","","","","","","","","","","","3444","[""SV_PolicingMSA/FL_4023/IMG_4_4023.jpg"",""SV_PolicingMSA/FL_4023/IMG_10_4023.jpg"",""SV_PolicingMSA/FL_4023/IMG_1_4023.jpg"",""SV_PolicingMSA/FL_4023/IMG_2_4023.jpg"",""SV_PolicingMSA/FL_4023/IMG_5_4023.jpg"",""SV_PolicingMSA/FL_4023/IMG_12_4023.jpg"",""SV_PolicingMSA/FL_4023/IMG_6_4023.jpg"",""SV_PolicingMSA/FL_4023/IMG_9_4023.jpg""]","7","","","","","","4","","4","[""./rc_img/cop_condGroup_10_CommunitySafety_autoscaled.png"",""./rc_img/cop_condGroup_10_SafeStreets_autoscaled.png""]","7","",""
"sliderTrial","html-slider-response","124","1110324","0.0-124.0","","656776a7904ae00d6b91d1dd","6568adac8141dc6f6d24e0d8","10","","","","","","","","","","","","4503","[""SV_PolicingMSA/FL_4023/IMG_4_4023.jpg"",""SV_PolicingMSA/FL_4023/IMG_10_4023.jpg"",""SV_PolicingMSA/FL_4023/IMG_1_4023.jpg"",""SV_PolicingMSA/FL_4023/IMG_2_4023.jpg"",""SV_PolicingMSA/FL_4023/IMG_5_4023.jpg"",""SV_PolicingMSA/FL_4023/IMG_12_4023.jpg"",""SV_PolicingMSA/FL_4023/IMG_6_4023.jpg"",""SV_PolicingMSA/FL_4023/IMG_9_4023.jpg""]","1","","","","","","4","","4","[""./rc_img/cop_condGroup_6_SafeStreets_autoscaled.png"",""./rc_img/cop_condGroup_6_CommunitySafety_autoscaled.png""]","7","",""
"sliderTrial","html-slider-response","125","1113915","0.0-125.0","","656776a7904ae00d6b91d1dd","6568adac8141dc6f6d24e0d8","10","","","","","","","","","","","","3587","[""SV_PolicingMSA/FL_4023/IMG_4_4023.jpg"",""SV_PolicingMSA/FL_4023/IMG_10_4023.jpg"",""SV_PolicingMSA/FL_4023/IMG_1_4023.jpg"",""SV_PolicingMSA/FL_4023/IMG_2_4023.jpg"",""SV_PolicingMSA/FL_4023/IMG_5_4023.jpg"",""SV_PolicingMSA/FL_4023/IMG_12_4023.jpg"",""SV_PolicingMSA/FL_4023/IMG_6_4023.jpg"",""SV_PolicingMSA/FL_4023/IMG_9_4023.jpg""]","7","","","","","","4","","4","[""./rc_img/cop_condGroup_2_CommunitySafety_autoscaled.png"",""./rc_img/cop_condGroup_2_SafeStreets_autoscaled.png""]","7","",""
"sliderTrial","html-slider-response","126","1118059","0.0-126.0","","656776a7904ae00d6b91d1dd","6568adac8141dc6f6d24e0d8","10","","","","","","","","","","","","4142","[""SV_PolicingMSA/FL_4023/IMG_4_4023.jpg"",""SV_PolicingMSA/FL_4023/IMG_10_4023.jpg"",""SV_PolicingMSA/FL_4023/IMG_1_4023.jpg"",""SV_PolicingMSA/FL_4023/IMG_2_4023.jpg"",""SV_PolicingMSA/FL_4023/IMG_5_4023.jpg"",""SV_PolicingMSA/FL_4023/IMG_12_4023.jpg"",""SV_PolicingMSA/FL_4023/IMG_6_4023.jpg"",""SV_PolicingMSA/FL_4023/IMG_9_4023.jpg""]","7","","","","","","4","","4","[""./rc_img/cop_condGroup_18_CommunitySafety_autoscaled.png"",""./rc_img/cop_condGroup_18_SafeStreets_autoscaled.png""]","7","",""
"sliderTrial","html-slider-response","127","1126819","0.0-127.0","","656776a7904ae00d6b91d1dd","6568adac8141dc6f6d24e0d8","10","","","","","","","","","","","","8758","[""SV_PolicingMSA/FL_4023/IMG_4_4023.jpg"",""SV_PolicingMSA/FL_4023/IMG_10_4023.jpg"",""SV_PolicingMSA/FL_4023/IMG_1_4023.jpg"",""SV_PolicingMSA/FL_4023/IMG_2_4023.jpg"",""SV_PolicingMSA/FL_4023/IMG_5_4023.jpg"",""SV_PolicingMSA/FL_4023/IMG_12_4023.jpg"",""SV_PolicingMSA/FL_4023/IMG_6_4023.jpg"",""SV_PolicingMSA/FL_4023/IMG_9_4023.jpg""]","7","","","","","","4","","4","[""./rc_img/cop_condGroup_7_CommunitySafety_autoscaled.png"",""./rc_img/cop_condGroup_7_SafeStreets_autoscaled.png""]","7","",""
"before_SVSlide_prompt","html-button-response","128","1128661","0.0-128.0","","656776a7904ae00d6b91d1dd","6568adac8141dc6f6d24e0d8","10","","","","","","","","","","","","1841","Click [Next] to see the next neighborhood!","0","","","","","","","","","","","",""
"street view slide show","image-button-response","129","1129666","0.0-129.0","","656776a7904ae00d6b91d1dd","6568adac8141dc6f6d24e0d8","10","","","","","","","","","","","","null","stimulus/SV_PolicingMSA/FL_4887/IMG_11_4887.jpg","null","","","","","","5","","","","","",""
"street view slide show","image-button-response","130","1130669","0.0-130.0","","656776a7904ae00d6b91d1dd","6568adac8141dc6f6d24e0d8","10","","","","","","","","","","","","null","stimulus/SV_PolicingMSA/FL_4887/IMG_7_4887.jpg","null","","","","","","5","","","","","",""
"street view slide show","image-button-response","131","1131675","0.0-131.0","","656776a7904ae00d6b91d1dd","6568adac8141dc6f6d24e0d8","10","","","","","","","","","","","","null","stimulus/SV_PolicingMSA/FL_4887/IMG_9_4887.jpg","null","","","","","","5","","","","","",""
"street view slide show","image-button-response","132","1132677","0.0-132.0","","656776a7904ae00d6b91d1dd","6568adac8141dc6f6d24e0d8","10","","","","","","","","","","","","null","stimulus/SV_PolicingMSA/FL_4887/IMG_6_4887.jpg","null","","","","","","5","","","","","",""
"street view slide show","image-button-response","133","1133684","0.0-133.0","","656776a7904ae00d6b91d1dd","6568adac8141dc6f6d24e0d8","10","","","","","","","","","","","","null","stimulus/SV_PolicingMSA/FL_4887/IMG_10_4887.jpg","null","","","","","","5","","","","","",""
"street view slide show","image-button-response","134","1134687","0.0-134.0","","656776a7904ae00d6b91d1dd","6568adac8141dc6f6d24e0d8","10","","","","","","","","","","","","null","stimulus/SV_PolicingMSA/FL_4887/IMG_2_4887.jpg","null","","","","","","5","","","","","",""
"street view slide show","image-button-response","135","1135693","0.0-135.0","","656776a7904ae00d6b91d1dd","6568adac8141dc6f6d24e0d8","10","","","","","","","","","","","","null","stimulus/SV_PolicingMSA/FL_4887/IMG_0_4887.jpg","null","","","","","","5","","","","","",""
"street view slide show","image-button-response","136","1136695","0.0-136.0","","656776a7904ae00d6b91d1dd","6568adac8141dc6f6d24e0d8","10","","","","","","","","","","","","null","stimulus/SV_PolicingMSA/FL_4887/IMG_8_4887.jpg","null","","","","","","5","","","","","",""
"dot matrix survey1","survey","137","1166690","0.0-137.0","","656776a7904ae00d6b91d1dd","6568adac8141dc6f6d24e0d8","10","","","","","","","","","","","","29977","","{""P0_Q0"":null,""P0_Q1"":{""wealthy"":2,""safe"":3,""walkable"":3,""traditional"":3,""diverse"":1}}","","","","","","5","[]","","","","",""
"dot matrix survey2","survey","138","1175056","0.0-138.0","","656776a7904ae00d6b91d1dd","6568adac8141dc6f6d24e0d8","10","","","","","","","","","","","","8360","","{""P0_Q0"":null,""P0_Q1"":{""violence"":1,""crime"":1,""drug"":1,""schools"":2,""opportunities"":2}}","","","","","","5","[]","","","","",""
"dot matrix survey3","survey","139","1186261","0.0-139.0","","656776a7904ae00d6b91d1dd","6568adac8141dc6f6d24e0d8","10","","","","","","","","","","","","11197","","{""P0_Q0"":null,""P0_Q1"":{""movein"":1,""moveout"":3,""shopping"":0,""walk"":0,""park"":0,""school"":0}}","","","","","","5","[]","","","","",""
"sliderTrial","html-slider-response","140","1192155","0.0-140.0","","656776a7904ae00d6b91d1dd","6568adac8141dc6f6d24e0d8","10","","","","","","","","","","","","5892","[""SV_PolicingMSA/FL_4887/IMG_11_4887.jpg"",""SV_PolicingMSA/FL_4887/IMG_7_4887.jpg"",""SV_PolicingMSA/FL_4887/IMG_9_4887.jpg"",""SV_PolicingMSA/FL_4887/IMG_6_4887.jpg"",""SV_PolicingMSA/FL_4887/IMG_10_4887.jpg"",""SV_PolicingMSA/FL_4887/IMG_2_4887.jpg"",""SV_PolicingMSA/FL_4887/IMG_0_4887.jpg"",""SV_PolicingMSA/FL_4887/IMG_8_4887.jpg""]","1","","","","","","5","","4","[""./rc_img/cop_condGroup_1_SafeStreets_autoscaled.png"",""./rc_img/cop_condGroup_1_CommunitySafety_autoscaled.png""]","7","",""
"sliderTrial","html-slider-response","141","1197233","0.0-141.0","","656776a7904ae00d6b91d1dd","6568adac8141dc6f6d24e0d8","10","","","","","","","","","","","","5076","[""SV_PolicingMSA/FL_4887/IMG_11_4887.jpg"",""SV_PolicingMSA/FL_4887/IMG_7_4887.jpg"",""SV_PolicingMSA/FL_4887/IMG_9_4887.jpg"",""SV_PolicingMSA/FL_4887/IMG_6_4887.jpg"",""SV_PolicingMSA/FL_4887/IMG_10_4887.jpg"",""SV_PolicingMSA/FL_4887/IMG_2_4887.jpg"",""SV_PolicingMSA/FL_4887/IMG_0_4887.jpg"",""SV_PolicingMSA/FL_4887/IMG_8_4887.jpg""]","7","","","","","","5","","4","[""./rc_img/cop_condGroup_15_CommunitySafety_autoscaled.png"",""./rc_img/cop_condGroup_15_SafeStreets_autoscaled.png""]","7","",""
"sliderTrial","html-slider-response","142","1200817","0.0-142.0","","656776a7904ae00d6b91d1dd","6568adac8141dc6f6d24e0d8","10","","","","","","","","","","","","3582","[""SV_PolicingMSA/FL_4887/IMG_11_4887.jpg"",""SV_PolicingMSA/FL_4887/IMG_7_4887.jpg"",""SV_PolicingMSA/FL_4887/IMG_9_4887.jpg"",""SV_PolicingMSA/FL_4887/IMG_6_4887.jpg"",""SV_PolicingMSA/FL_4887/IMG_10_4887.jpg"",""SV_PolicingMSA/FL_4887/IMG_2_4887.jpg"",""SV_PolicingMSA/FL_4887/IMG_0_4887.jpg"",""SV_PolicingMSA/FL_4887/IMG_8_4887.jpg""]","7","","","","","","5","","4","[""./rc_img/cop_condGroup_17_CommunitySafety_autoscaled.png"",""./rc_img/cop_condGroup_17_SafeStreets_autoscaled.png""]","7","",""
"sliderTrial","html-slider-response","143","1204385","0.0-143.0","","656776a7904ae00d6b91d1dd","6568adac8141dc6f6d24e0d8","10","","","","","","","","","","","","3566","[""SV_PolicingMSA/FL_4887/IMG_11_4887.jpg"",""SV_PolicingMSA/FL_4887/IMG_7_4887.jpg"",""SV_PolicingMSA/FL_4887/IMG_9_4887.jpg"",""SV_PolicingMSA/FL_4887/IMG_6_4887.jpg"",""SV_PolicingMSA/FL_4887/IMG_10_4887.jpg"",""SV_PolicingMSA/FL_4887/IMG_2_4887.jpg"",""SV_PolicingMSA/FL_4887/IMG_0_4887.jpg"",""SV_PolicingMSA/FL_4887/IMG_8_4887.jpg""]","7","","","","","","5","","4","[""./rc_img/cop_condGroup_14_CommunitySafety_autoscaled.png"",""./rc_img/cop_condGroup_14_SafeStreets_autoscaled.png""]","7","",""
"sliderTrial","html-slider-response","144","1209029","0.0-144.0","","656776a7904ae00d6b91d1dd","6568adac8141dc6f6d24e0d8","10","","","","","","","","","","","","4643","[""SV_PolicingMSA/FL_4887/IMG_11_4887.jpg"",""SV_PolicingMSA/FL_4887/IMG_7_4887.jpg"",""SV_PolicingMSA/FL_4887/IMG_9_4887.jpg"",""SV_PolicingMSA/FL_4887/IMG_6_4887.jpg"",""SV_PolicingMSA/FL_4887/IMG_10_4887.jpg"",""SV_PolicingMSA/FL_4887/IMG_2_4887.jpg"",""SV_PolicingMSA/FL_4887/IMG_0_4887.jpg"",""SV_PolicingMSA/FL_4887/IMG_8_4887.jpg""]","7","","","","","","5","","4","[""./rc_img/cop_condGroup_9_CommunitySafety_autoscaled.png"",""./rc_img/cop_condGroup_9_SafeStreets_autoscaled.png""]","7","",""
"demographics","survey-html-form","145","1263099","0.0-145.0","","656776a7904ae00d6b91d1dd","6568adac8141dc6f6d24e0d8","10","","","","","","","","","","","","54056","","{""age"":""55"",""sex"":""female"",""gender"":""woman"",""gender-self-describe"":"""",""zipcode"":""28262""}","","","","","","","","","","","",""
"demographics-list","survey","146","1328334","0.0-146.0","","656776a7904ae00d6b91d1dd","6568adac8141dc6f6d24e0d8","10","","","","","","","","","","","","65199","","{""P0_Q0"":null,""race-ethnicity"":[""South East Asian""],""education"":""Bachelor’s degree"",""P1_Q0"":null,""ideology"":""Moderate"",""P2_Q0"":null,""num-moves"":2,""P3_Q0"":null,""social-ladder"":3}","","","","","","","[]","","","","",""
"end-survey","survey-text","147","1340579","0.0-147.0","","656776a7904ae00d6b91d1dd","6568adac8141dc6f6d24e0d8","10","","","","","","","","","","","","12221","","{""Q0"":""no""}","","","","","","","","","","","","2"
"end-survey","html-button-response","148","1348848","0.0-148.0","","656776a7904ae00d6b91d1dd","6568adac8141dc6f6d24e0d8","10","","","","","","","","","","","","8260","
    You've reached the end of the survey. <br><br> 
    <b>Do not close or refresh this window.</b><br>
    On the next page, you will be automatically redirected to Prolific. <br><br>

    <div class=""alert alert-warning""><b>
    </div>
","0","","","","","","","","","","","",""
