"task","trial_type","trial_index","time_elapsed","internal_node_id","subject_id","study_id","session_id","section","width","height","webaudio","browser","browser_version","mobile","os","fullscreen","vsync_rate","webcam","microphone","rt","stimulus","response","success","timeout","failed_images","failed_audio","failed_video","block","accuracy","slider_start","choices","correct","standardized_response","num_attention_checks_correct"
"pavlovia-init","pavlovia","0","1300","0.0-0.0","","656776a7904ae00d6b91d1dd","6568aa415bf7d1b82e42e951","4","","","","","","","","","","","","","","","","","","","","","","","","","",""
"browser-check","browser-check","1","3246","0.0-1.0","","656776a7904ae00d6b91d1dd","6568aa415bf7d1b82e42e951","4","2560","1287","true","firefox","120.0.0","false","Windows 10","true","30.96","false","false","","","","","","","","","","","","","","",""
"consent","html-button-response","2","13020","0.0-2.0","","656776a7904ae00d6b91d1dd","6568aa415bf7d1b82e42e951","4","","","","","","","","","","","","9771","
        <div style=""font-size: 80%; max-width:700px"">
            <h2>CONSENT FORM</h2>
        
            <div style=""text-align: left"">
            <h4>DESCRIPTION</h4>
            <p>
            You will complete a short task where you give your impressions of various neighborhoods and assign individuals to those spaces, and answer some questions about your thoughts and opinions.<br>
            The University of Michigan Institutional Review Board Health Sciences and Behavioral Sciences has determined that this study is exempt from IRB oversight.
            </p>

            <h4>TIME INVOLVEMENT</h4>
            <p>Your participation will take approximately 15 minutes. You will receive $3.15 upon completion of the study.</p>
        
            <h4>RISKS AND BENEFITS</h4>
            <p>
            The risks associated with this study are minimal. The benefits which may reasonably be expected to result from this study are none. We cannot and do not guarantee or promise that you will receive any benefits from this study.
            </p>
          
            <h4>SUBJECT'S RIGHTS</h4>
            <p>
            If you have read this form and have decided to participate in this project, please understand your participation is voluntary and you have the right to withdraw your consent or discontinue participation at any time without penalty or loss of benefits to which you are otherwise entitled. The alternative is not to participate. You have the right to refuse to answer particular questions. Your individual privacy will be maintained in all published and written data resulting from the study.
            </p>

            <h4>HUMAN SUBJECT APPROVAL</h4>
            <p>
            This study is exempt from ongoing IRB review.
            </p>

            <h4>CONTACT INFORMATION</h4>
            If you have any questions, concerns or complaints about this research, its procedures, risks and benefits, contact the Protocol Director, Nicholas Camp, npcamp@umich.edu, (443) 851-6783. <br>

            If you have questions about your rights as a research participant, or wish to obtain information, ask questions or discuss any concerns about this study with someone other than the researcher(s), please contact the following:<br><br>
            University of Michigan<br>
            Health Sciences and Behavioral Sciences Institutional Review Board (IRB-HSBS)<br>
            2800 Plymouth Road<br>
            Building 520, Room 1169Ann Arbor, MI 48109-2800<br>
            Telephone: 734-936-0933 or toll free (866) 936-0933<br>
            Fax: 734-936-1852<br>
            E-mail: irbhsbs@umich.edu<br><br>

            You can also contact the University of Michigan Compliance Hotline at 1-866-990-0111. You may also print this consent form to keep.
            <br><br>
            <div class=""alert alert-warning""><b>
            Do you consent to participate in this study? If you consent to participate in this study, please click “Accept and Continue”. If you select ""Decline and Exit"", you will be exited from the survey. <br>
            </b></div>
            </div>
        </div>
    ","1","","","","","","","","","","","",""
"","preload","3","14850","0.0-3.0","","656776a7904ae00d6b91d1dd","6568aa415bf7d1b82e42e951","4","","","","","","","","","","","","","","","true","false","[]","[]","[]","","","","","","",""
"instructions","html-button-response","4","27668","0.0-4.0","","656776a7904ae00d6b91d1dd","6568aa415bf7d1b82e42e951","4","","","","","","","","","","","","12816","
        <div class=""text-container"">
        <h1>Welcome to the study!</h1>
        
        <div class=""text-left"">
            <p>
                In this study, we are interested in what people can tell about spaces from Google Street View images. <br> Google Street View takes pictures of streets used for Google Earth and Google Maps. <br>You’ll see Google Street View images of different places and answer some questions about each one.<br>
            </p>
        </div>
        <img src = ""assets/img/example.png"" width = 500px, height = auto>
        <br>
    <br>
    ","0","","","","","","","","","","","",""
"instructions","html-button-response","5","31772","0.0-5.0","","656776a7904ae00d6b91d1dd","6568aa415bf7d1b82e42e951","4","","","","","","","","","","","","4102","
    <div class=""text-container"">
        <div class=""text-center"">
            <p>Please remember that your answers are completely anonymous.<br>Go with your gut response- there are no right or wrong answers!</p>
        </div>
    <br>
","0","","","","","","","","","","","",""
"before_SVSlide_prompt","html-button-response","6","33598","0.0-6.0","","656776a7904ae00d6b91d1dd","6568aa415bf7d1b82e42e951","4","","","","","","","","","","","","1827","Click [Next] to see the next neighborhood!","0","","","","","","","","","","","",""
"street view slide show","image-button-response","7","34610","0.0-7.0","","656776a7904ae00d6b91d1dd","6568aa415bf7d1b82e42e951","4","","","","","","","","","","","","null","stimulus/SV_PolicingMSA/CO_252/IMG_14_252.jpg","null","","","","","","0","","","","","",""
"street view slide show","image-button-response","8","35627","0.0-8.0","","656776a7904ae00d6b91d1dd","6568aa415bf7d1b82e42e951","4","","","","","","","","","","","","null","stimulus/SV_PolicingMSA/CO_252/IMG_3_252.jpg","null","","","","","","0","","","","","",""
"street view slide show","image-button-response","9","36638","0.0-9.0","","656776a7904ae00d6b91d1dd","6568aa415bf7d1b82e42e951","4","","","","","","","","","","","","null","stimulus/SV_PolicingMSA/CO_252/IMG_11_252.jpg","null","","","","","","0","","","","","",""
"street view slide show","image-button-response","10","37653","0.0-10.0","","656776a7904ae00d6b91d1dd","6568aa415bf7d1b82e42e951","4","","","","","","","","","","","","null","stimulus/SV_PolicingMSA/CO_252/IMG_6_252.jpg","null","","","","","","0","","","","","",""
"street view slide show","image-button-response","11","38666","0.0-11.0","","656776a7904ae00d6b91d1dd","6568aa415bf7d1b82e42e951","4","","","","","","","","","","","","null","stimulus/SV_PolicingMSA/CO_252/IMG_0_252.jpg","null","","","","","","0","","","","","",""
"street view slide show","image-button-response","12","39676","0.0-12.0","","656776a7904ae00d6b91d1dd","6568aa415bf7d1b82e42e951","4","","","","","","","","","","","","null","stimulus/SV_PolicingMSA/CO_252/IMG_8_252.jpg","null","","","","","","0","","","","","",""
"street view slide show","image-button-response","13","40694","0.0-13.0","","656776a7904ae00d6b91d1dd","6568aa415bf7d1b82e42e951","4","","","","","","","","","","","","null","stimulus/SV_PolicingMSA/CO_252/IMG_7_252.jpg","null","","","","","","0","","","","","",""
"street view slide show","image-button-response","14","41708","0.0-14.0","","656776a7904ae00d6b91d1dd","6568aa415bf7d1b82e42e951","4","","","","","","","","","","","","null","stimulus/SV_PolicingMSA/CO_252/IMG_12_252.jpg","null","","","","","","0","","","","","",""
"dot matrix survey1","survey","15","74202","0.0-15.0","","656776a7904ae00d6b91d1dd","6568aa415bf7d1b82e42e951","4","","","","","","","","","","","","32466","","{""P0_Q0"":null,""P0_Q1"":{""wealthy"":1,""safe"":1,""walkable"":2,""traditional"":2,""diverse"":1}}","","","","","","0","[]","","","","",""
"dot matrix survey2","survey","16","91883","0.0-16.0","","656776a7904ae00d6b91d1dd","6568aa415bf7d1b82e42e951","4","","","","","","","","","","","","17669","","{""P0_Q0"":null,""P0_Q1"":{""violence"":2,""crime"":3,""drug"":2,""schools"":2,""opportunities"":2}}","","","","","","0","[]","","","","",""
"dot matrix survey3","survey","17","116689","0.0-17.0","","656776a7904ae00d6b91d1dd","6568aa415bf7d1b82e42e951","4","","","","","","","","","","","","24799","","{""P0_Q0"":null,""P0_Q1"":{""movein"":1,""moveout"":3,""shopping"":1,""walk"":0,""park"":1,""school"":1}}","","","","","","0","[]","","","","",""
"sliderTrial_attention","html-slider-response","18","126702","0.0-18.0","","656776a7904ae00d6b91d1dd","6568aa415bf7d1b82e42e951","4","","","","","","","","","","","","null","[""SV_PolicingMSA/CO_252/IMG_14_252.jpg"",""SV_PolicingMSA/CO_252/IMG_3_252.jpg"",""SV_PolicingMSA/CO_252/IMG_11_252.jpg"",""SV_PolicingMSA/CO_252/IMG_6_252.jpg"",""SV_PolicingMSA/CO_252/IMG_0_252.jpg"",""SV_PolicingMSA/CO_252/IMG_8_252.jpg"",""SV_PolicingMSA/CO_252/IMG_7_252.jpg"",""SV_PolicingMSA/CO_252/IMG_12_252.jpg""]","null","","","","","","0","","4","[""./assets/img/attnchk.png"",""./assets/img/attnchk.png""]","true","",""
"sliderTrial","html-slider-response","19","140077","0.0-19.0","","656776a7904ae00d6b91d1dd","6568aa415bf7d1b82e42e951","4","","","","","","","","","","","","13370","[""SV_PolicingMSA/CO_252/IMG_14_252.jpg"",""SV_PolicingMSA/CO_252/IMG_3_252.jpg"",""SV_PolicingMSA/CO_252/IMG_11_252.jpg"",""SV_PolicingMSA/CO_252/IMG_6_252.jpg"",""SV_PolicingMSA/CO_252/IMG_0_252.jpg"",""SV_PolicingMSA/CO_252/IMG_8_252.jpg"",""SV_PolicingMSA/CO_252/IMG_7_252.jpg"",""SV_PolicingMSA/CO_252/IMG_12_252.jpg""]","4","","","","","","0","","4","[""./rc_img/cop_condGroup_4_SafeStreets_autoscaled.png"",""./rc_img/cop_condGroup_4_CommunitySafety_autoscaled.png""]","","4",""
"sliderTrial","html-slider-response","20","152443","0.0-20.0","","656776a7904ae00d6b91d1dd","6568aa415bf7d1b82e42e951","4","","","","","","","","","","","","12365","[""SV_PolicingMSA/CO_252/IMG_14_252.jpg"",""SV_PolicingMSA/CO_252/IMG_3_252.jpg"",""SV_PolicingMSA/CO_252/IMG_11_252.jpg"",""SV_PolicingMSA/CO_252/IMG_6_252.jpg"",""SV_PolicingMSA/CO_252/IMG_0_252.jpg"",""SV_PolicingMSA/CO_252/IMG_8_252.jpg"",""SV_PolicingMSA/CO_252/IMG_7_252.jpg"",""SV_PolicingMSA/CO_252/IMG_12_252.jpg""]","4","","","","","","0","","4","[""./rc_img/cop_condGroup_2_SafeStreets_autoscaled.png"",""./rc_img/cop_condGroup_2_CommunitySafety_autoscaled.png""]","","4",""
"sliderTrial","html-slider-response","21","156482","0.0-21.0","","656776a7904ae00d6b91d1dd","6568aa415bf7d1b82e42e951","4","","","","","","","","","","","","4039","[""SV_PolicingMSA/CO_252/IMG_14_252.jpg"",""SV_PolicingMSA/CO_252/IMG_3_252.jpg"",""SV_PolicingMSA/CO_252/IMG_11_252.jpg"",""SV_PolicingMSA/CO_252/IMG_6_252.jpg"",""SV_PolicingMSA/CO_252/IMG_0_252.jpg"",""SV_PolicingMSA/CO_252/IMG_8_252.jpg"",""SV_PolicingMSA/CO_252/IMG_7_252.jpg"",""SV_PolicingMSA/CO_252/IMG_12_252.jpg""]","4","","","","","","0","","4","[""./rc_img/cop_condGroup_3_SafeStreets_autoscaled.png"",""./rc_img/cop_condGroup_3_CommunitySafety_autoscaled.png""]","","4",""
"sliderTrial","html-slider-response","22","158331","0.0-22.0","","656776a7904ae00d6b91d1dd","6568aa415bf7d1b82e42e951","4","","","","","","","","","","","","1847","[""SV_PolicingMSA/CO_252/IMG_14_252.jpg"",""SV_PolicingMSA/CO_252/IMG_3_252.jpg"",""SV_PolicingMSA/CO_252/IMG_11_252.jpg"",""SV_PolicingMSA/CO_252/IMG_6_252.jpg"",""SV_PolicingMSA/CO_252/IMG_0_252.jpg"",""SV_PolicingMSA/CO_252/IMG_8_252.jpg"",""SV_PolicingMSA/CO_252/IMG_7_252.jpg"",""SV_PolicingMSA/CO_252/IMG_12_252.jpg""]","4","","","","","","0","","4","[""./rc_img/cop_condGroup_1_SafeStreets_autoscaled.png"",""./rc_img/cop_condGroup_1_CommunitySafety_autoscaled.png""]","","4",""
"sliderTrial","html-slider-response","23","164217","0.0-23.0","","656776a7904ae00d6b91d1dd","6568aa415bf7d1b82e42e951","4","","","","","","","","","","","","5884","[""SV_PolicingMSA/CO_252/IMG_14_252.jpg"",""SV_PolicingMSA/CO_252/IMG_3_252.jpg"",""SV_PolicingMSA/CO_252/IMG_11_252.jpg"",""SV_PolicingMSA/CO_252/IMG_6_252.jpg"",""SV_PolicingMSA/CO_252/IMG_0_252.jpg"",""SV_PolicingMSA/CO_252/IMG_8_252.jpg"",""SV_PolicingMSA/CO_252/IMG_7_252.jpg"",""SV_PolicingMSA/CO_252/IMG_12_252.jpg""]","4","","","","","","0","","4","[""./rc_img/cop_condGroup_6_SafeStreets_autoscaled.png"",""./rc_img/cop_condGroup_6_CommunitySafety_autoscaled.png""]","","4",""
"before_SVSlide_prompt","html-button-response","24","166379","0.0-24.0","","656776a7904ae00d6b91d1dd","6568aa415bf7d1b82e42e951","4","","","","","","","","","","","","2160","Click [Next] to see the next neighborhood!","0","","","","","","","","","","","",""
"street view slide show","image-button-response","25","167385","0.0-25.0","","656776a7904ae00d6b91d1dd","6568aa415bf7d1b82e42e951","4","","","","","","","","","","","","null","stimulus/SV_PolicingMSA/CO_674/IMG_8_674.jpg","null","","","","","","4","","","","","",""
"street view slide show","image-button-response","26","168402","0.0-26.0","","656776a7904ae00d6b91d1dd","6568aa415bf7d1b82e42e951","4","","","","","","","","","","","","null","stimulus/SV_PolicingMSA/CO_674/IMG_4_674.jpg","null","","","","","","4","","","","","",""
"street view slide show","image-button-response","27","169408","0.0-27.0","","656776a7904ae00d6b91d1dd","6568aa415bf7d1b82e42e951","4","","","","","","","","","","","","null","stimulus/SV_PolicingMSA/CO_674/IMG_13_674.jpg","null","","","","","","4","","","","","",""
"street view slide show","image-button-response","28","170425","0.0-28.0","","656776a7904ae00d6b91d1dd","6568aa415bf7d1b82e42e951","4","","","","","","","","","","","","null","stimulus/SV_PolicingMSA/CO_674/IMG_7_674.jpg","null","","","","","","4","","","","","",""
"street view slide show","image-button-response","29","171442","0.0-29.0","","656776a7904ae00d6b91d1dd","6568aa415bf7d1b82e42e951","4","","","","","","","","","","","","null","stimulus/SV_PolicingMSA/CO_674/IMG_0_674.jpg","null","","","","","","4","","","","","",""
"street view slide show","image-button-response","30","172461","0.0-30.0","","656776a7904ae00d6b91d1dd","6568aa415bf7d1b82e42e951","4","","","","","","","","","","","","null","stimulus/SV_PolicingMSA/CO_674/IMG_2_674.jpg","null","","","","","","4","","","","","",""
"street view slide show","image-button-response","31","173475","0.0-31.0","","656776a7904ae00d6b91d1dd","6568aa415bf7d1b82e42e951","4","","","","","","","","","","","","null","stimulus/SV_PolicingMSA/CO_674/IMG_10_674.jpg","null","","","","","","4","","","","","",""
"street view slide show","image-button-response","32","174481","0.0-32.0","","656776a7904ae00d6b91d1dd","6568aa415bf7d1b82e42e951","4","","","","","","","","","","","","null","stimulus/SV_PolicingMSA/CO_674/IMG_14_674.jpg","null","","","","","","4","","","","","",""
"dot matrix survey1","survey","33","186656","0.0-33.0","","656776a7904ae00d6b91d1dd","6568aa415bf7d1b82e42e951","4","","","","","","","","","","","","12156","","{""P0_Q0"":null,""P0_Q1"":{""wealthy"":3,""safe"":3,""walkable"":3,""traditional"":3,""diverse"":3}}","","","","","","4","[]","","","","",""
"dot matrix survey2","survey","34","202780","0.0-34.0","","656776a7904ae00d6b91d1dd","6568aa415bf7d1b82e42e951","4","","","","","","","","","","","","16114","","{""P0_Q0"":null,""P0_Q1"":{""violence"":1,""crime"":1,""drug"":1,""schools"":3,""opportunities"":2}}","","","","","","4","[]","","","","",""
"dot matrix survey3","survey","35","224794","0.0-35.0","","656776a7904ae00d6b91d1dd","6568aa415bf7d1b82e42e951","4","","","","","","","","","","","","22001","","{""P0_Q0"":null,""P0_Q1"":{""movein"":3,""moveout"":1,""shopping"":3,""walk"":2,""park"":2,""school"":3}}","","","","","","4","[]","","","","",""
"sliderTrial","html-slider-response","36","230978","0.0-36.0","","656776a7904ae00d6b91d1dd","6568aa415bf7d1b82e42e951","4","","","","","","","","","","","","6182","[""SV_PolicingMSA/CO_674/IMG_8_674.jpg"",""SV_PolicingMSA/CO_674/IMG_4_674.jpg"",""SV_PolicingMSA/CO_674/IMG_13_674.jpg"",""SV_PolicingMSA/CO_674/IMG_7_674.jpg"",""SV_PolicingMSA/CO_674/IMG_0_674.jpg"",""SV_PolicingMSA/CO_674/IMG_2_674.jpg"",""SV_PolicingMSA/CO_674/IMG_10_674.jpg"",""SV_PolicingMSA/CO_674/IMG_14_674.jpg""]","3","","","","","","4","","4","[""./rc_img/cop_condGroup_16_CommunitySafety_autoscaled.png"",""./rc_img/cop_condGroup_16_SafeStreets_autoscaled.png""]","","3",""
"sliderTrial","html-slider-response","37","235393","0.0-37.0","","656776a7904ae00d6b91d1dd","6568aa415bf7d1b82e42e951","4","","","","","","","","","","","","4414","[""SV_PolicingMSA/CO_674/IMG_8_674.jpg"",""SV_PolicingMSA/CO_674/IMG_4_674.jpg"",""SV_PolicingMSA/CO_674/IMG_13_674.jpg"",""SV_PolicingMSA/CO_674/IMG_7_674.jpg"",""SV_PolicingMSA/CO_674/IMG_0_674.jpg"",""SV_PolicingMSA/CO_674/IMG_2_674.jpg"",""SV_PolicingMSA/CO_674/IMG_10_674.jpg"",""SV_PolicingMSA/CO_674/IMG_14_674.jpg""]","5","","","","","","4","","4","[""./rc_img/cop_condGroup_10_SafeStreets_autoscaled.png"",""./rc_img/cop_condGroup_10_CommunitySafety_autoscaled.png""]","","3",""
"sliderTrial","html-slider-response","38","238521","0.0-38.0","","656776a7904ae00d6b91d1dd","6568aa415bf7d1b82e42e951","4","","","","","","","","","","","","3127","[""SV_PolicingMSA/CO_674/IMG_8_674.jpg"",""SV_PolicingMSA/CO_674/IMG_4_674.jpg"",""SV_PolicingMSA/CO_674/IMG_13_674.jpg"",""SV_PolicingMSA/CO_674/IMG_7_674.jpg"",""SV_PolicingMSA/CO_674/IMG_0_674.jpg"",""SV_PolicingMSA/CO_674/IMG_2_674.jpg"",""SV_PolicingMSA/CO_674/IMG_10_674.jpg"",""SV_PolicingMSA/CO_674/IMG_14_674.jpg""]","3","","","","","","4","","4","[""./rc_img/cop_condGroup_14_CommunitySafety_autoscaled.png"",""./rc_img/cop_condGroup_14_SafeStreets_autoscaled.png""]","","3",""
"sliderTrial","html-slider-response","39","241890","0.0-39.0","","656776a7904ae00d6b91d1dd","6568aa415bf7d1b82e42e951","4","","","","","","","","","","","","3367","[""SV_PolicingMSA/CO_674/IMG_8_674.jpg"",""SV_PolicingMSA/CO_674/IMG_4_674.jpg"",""SV_PolicingMSA/CO_674/IMG_13_674.jpg"",""SV_PolicingMSA/CO_674/IMG_7_674.jpg"",""SV_PolicingMSA/CO_674/IMG_0_674.jpg"",""SV_PolicingMSA/CO_674/IMG_2_674.jpg"",""SV_PolicingMSA/CO_674/IMG_10_674.jpg"",""SV_PolicingMSA/CO_674/IMG_14_674.jpg""]","3","","","","","","4","","4","[""./rc_img/cop_condGroup_11_CommunitySafety_autoscaled.png"",""./rc_img/cop_condGroup_11_SafeStreets_autoscaled.png""]","","3",""
"sliderTrial","html-slider-response","40","246705","0.0-40.0","","656776a7904ae00d6b91d1dd","6568aa415bf7d1b82e42e951","4","","","","","","","","","","","","4814","[""SV_PolicingMSA/CO_674/IMG_8_674.jpg"",""SV_PolicingMSA/CO_674/IMG_4_674.jpg"",""SV_PolicingMSA/CO_674/IMG_13_674.jpg"",""SV_PolicingMSA/CO_674/IMG_7_674.jpg"",""SV_PolicingMSA/CO_674/IMG_0_674.jpg"",""SV_PolicingMSA/CO_674/IMG_2_674.jpg"",""SV_PolicingMSA/CO_674/IMG_10_674.jpg"",""SV_PolicingMSA/CO_674/IMG_14_674.jpg""]","4","","","","","","4","","4","[""./rc_img/cop_condGroup_17_SafeStreets_autoscaled.png"",""./rc_img/cop_condGroup_17_CommunitySafety_autoscaled.png""]","","4",""
"before_SVSlide_prompt","html-button-response","41","249754","0.0-41.0","","656776a7904ae00d6b91d1dd","6568aa415bf7d1b82e42e951","4","","","","","","","","","","","","3048","Click [Next] to see the next neighborhood!","0","","","","","","","","","","","",""
"street view slide show","image-button-response","42","250761","0.0-42.0","","656776a7904ae00d6b91d1dd","6568aa415bf7d1b82e42e951","4","","","","","","","","","","","","null","stimulus/SV_PolicingMSA/CO_368/IMG_4_368.jpg","null","","","","","","1","","","","","",""
"street view slide show","image-button-response","43","251782","0.0-43.0","","656776a7904ae00d6b91d1dd","6568aa415bf7d1b82e42e951","4","","","","","","","","","","","","null","stimulus/SV_PolicingMSA/CO_368/IMG_7_368.jpg","null","","","","","","1","","","","","",""
"street view slide show","image-button-response","44","252798","0.0-44.0","","656776a7904ae00d6b91d1dd","6568aa415bf7d1b82e42e951","4","","","","","","","","","","","","null","stimulus/SV_PolicingMSA/CO_368/IMG_6_368.jpg","null","","","","","","1","","","","","",""
"street view slide show","image-button-response","45","253809","0.0-45.0","","656776a7904ae00d6b91d1dd","6568aa415bf7d1b82e42e951","4","","","","","","","","","","","","null","stimulus/SV_PolicingMSA/CO_368/IMG_1_368.jpg","null","","","","","","1","","","","","",""
"street view slide show","image-button-response","46","254827","0.0-46.0","","656776a7904ae00d6b91d1dd","6568aa415bf7d1b82e42e951","4","","","","","","","","","","","","null","stimulus/SV_PolicingMSA/CO_368/IMG_10_368.jpg","null","","","","","","1","","","","","",""
"street view slide show","image-button-response","47","255836","0.0-47.0","","656776a7904ae00d6b91d1dd","6568aa415bf7d1b82e42e951","4","","","","","","","","","","","","null","stimulus/SV_PolicingMSA/CO_368/IMG_9_368.jpg","null","","","","","","1","","","","","",""
"street view slide show","image-button-response","48","256847","0.0-48.0","","656776a7904ae00d6b91d1dd","6568aa415bf7d1b82e42e951","4","","","","","","","","","","","","null","stimulus/SV_PolicingMSA/CO_368/IMG_2_368.jpg","null","","","","","","1","","","","","",""
"street view slide show","image-button-response","49","257859","0.0-49.0","","656776a7904ae00d6b91d1dd","6568aa415bf7d1b82e42e951","4","","","","","","","","","","","","null","stimulus/SV_PolicingMSA/CO_368/IMG_11_368.jpg","null","","","","","","1","","","","","",""
"dot matrix survey1","survey","50","271724","0.0-50.0","","656776a7904ae00d6b91d1dd","6568aa415bf7d1b82e42e951","4","","","","","","","","","","","","13854","","{""P0_Q0"":null,""P0_Q1"":{""wealthy"":1,""safe"":1,""walkable"":0,""traditional"":0,""diverse"":2}}","","","","","","1","[]","","","","",""
"dot matrix survey2","survey","51","289662","0.0-51.0","","656776a7904ae00d6b91d1dd","6568aa415bf7d1b82e42e951","4","","","","","","","","","","","","17926","","{""P0_Q0"":null,""P0_Q1"":{""violence"":2,""crime"":3,""drug"":3,""schools"":1,""opportunities"":1}}","","","","","","1","[]","","","","",""
"dot matrix survey3","survey","52","302911","0.0-52.0","","656776a7904ae00d6b91d1dd","6568aa415bf7d1b82e42e951","4","","","","","","","","","","","","13239","","{""P0_Q0"":null,""P0_Q1"":{""movein"":0,""moveout"":4,""shopping"":0,""walk"":0,""park"":0,""school"":0}}","","","","","","1","[]","","","","",""
"sliderTrial_attention","html-slider-response","53","312923","0.0-53.0","","656776a7904ae00d6b91d1dd","6568aa415bf7d1b82e42e951","4","","","","","","","","","","","","null","[""SV_PolicingMSA/CO_368/IMG_4_368.jpg"",""SV_PolicingMSA/CO_368/IMG_7_368.jpg"",""SV_PolicingMSA/CO_368/IMG_6_368.jpg"",""SV_PolicingMSA/CO_368/IMG_1_368.jpg"",""SV_PolicingMSA/CO_368/IMG_10_368.jpg"",""SV_PolicingMSA/CO_368/IMG_9_368.jpg"",""SV_PolicingMSA/CO_368/IMG_2_368.jpg"",""SV_PolicingMSA/CO_368/IMG_11_368.jpg""]","null","","","","","","1","","4","[""./assets/img/attnchk.png"",""./assets/img/attnchk.png""]","true","",""
"sliderTrial","html-slider-response","54","315712","0.0-54.0","","656776a7904ae00d6b91d1dd","6568aa415bf7d1b82e42e951","4","","","","","","","","","","","","2786","[""SV_PolicingMSA/CO_368/IMG_4_368.jpg"",""SV_PolicingMSA/CO_368/IMG_7_368.jpg"",""SV_PolicingMSA/CO_368/IMG_6_368.jpg"",""SV_PolicingMSA/CO_368/IMG_1_368.jpg"",""SV_PolicingMSA/CO_368/IMG_10_368.jpg"",""SV_PolicingMSA/CO_368/IMG_9_368.jpg"",""SV_PolicingMSA/CO_368/IMG_2_368.jpg"",""SV_PolicingMSA/CO_368/IMG_11_368.jpg""]","4","","","","","","1","","4","[""./rc_img/cop_condGroup_7_CommunitySafety_autoscaled.png"",""./rc_img/cop_condGroup_7_SafeStreets_autoscaled.png""]","","4",""
"sliderTrial","html-slider-response","55","318244","0.0-55.0","","656776a7904ae00d6b91d1dd","6568aa415bf7d1b82e42e951","4","","","","","","","","","","","","2529","[""SV_PolicingMSA/CO_368/IMG_4_368.jpg"",""SV_PolicingMSA/CO_368/IMG_7_368.jpg"",""SV_PolicingMSA/CO_368/IMG_6_368.jpg"",""SV_PolicingMSA/CO_368/IMG_1_368.jpg"",""SV_PolicingMSA/CO_368/IMG_10_368.jpg"",""SV_PolicingMSA/CO_368/IMG_9_368.jpg"",""SV_PolicingMSA/CO_368/IMG_2_368.jpg"",""SV_PolicingMSA/CO_368/IMG_11_368.jpg""]","4","","","","","","1","","4","[""./rc_img/cop_condGroup_8_CommunitySafety_autoscaled.png"",""./rc_img/cop_condGroup_8_SafeStreets_autoscaled.png""]","","4",""
"sliderTrial","html-slider-response","56","321098","0.0-56.0","","656776a7904ae00d6b91d1dd","6568aa415bf7d1b82e42e951","4","","","","","","","","","","","","2853","[""SV_PolicingMSA/CO_368/IMG_4_368.jpg"",""SV_PolicingMSA/CO_368/IMG_7_368.jpg"",""SV_PolicingMSA/CO_368/IMG_6_368.jpg"",""SV_PolicingMSA/CO_368/IMG_1_368.jpg"",""SV_PolicingMSA/CO_368/IMG_10_368.jpg"",""SV_PolicingMSA/CO_368/IMG_9_368.jpg"",""SV_PolicingMSA/CO_368/IMG_2_368.jpg"",""SV_PolicingMSA/CO_368/IMG_11_368.jpg""]","4","","","","","","1","","4","[""./rc_img/cop_condGroup_5_CommunitySafety_autoscaled.png"",""./rc_img/cop_condGroup_5_SafeStreets_autoscaled.png""]","","4",""
"sliderTrial","html-slider-response","57","324737","0.0-57.0","","656776a7904ae00d6b91d1dd","6568aa415bf7d1b82e42e951","4","","","","","","","","","","","","3638","[""SV_PolicingMSA/CO_368/IMG_4_368.jpg"",""SV_PolicingMSA/CO_368/IMG_7_368.jpg"",""SV_PolicingMSA/CO_368/IMG_6_368.jpg"",""SV_PolicingMSA/CO_368/IMG_1_368.jpg"",""SV_PolicingMSA/CO_368/IMG_10_368.jpg"",""SV_PolicingMSA/CO_368/IMG_9_368.jpg"",""SV_PolicingMSA/CO_368/IMG_2_368.jpg"",""SV_PolicingMSA/CO_368/IMG_11_368.jpg""]","4","","","","","","1","","4","[""./rc_img/cop_condGroup_12_CommunitySafety_autoscaled.png"",""./rc_img/cop_condGroup_12_SafeStreets_autoscaled.png""]","","4",""
"sliderTrial","html-slider-response","58","326822","0.0-58.0","","656776a7904ae00d6b91d1dd","6568aa415bf7d1b82e42e951","4","","","","","","","","","","","","2083","[""SV_PolicingMSA/CO_368/IMG_4_368.jpg"",""SV_PolicingMSA/CO_368/IMG_7_368.jpg"",""SV_PolicingMSA/CO_368/IMG_6_368.jpg"",""SV_PolicingMSA/CO_368/IMG_1_368.jpg"",""SV_PolicingMSA/CO_368/IMG_10_368.jpg"",""SV_PolicingMSA/CO_368/IMG_9_368.jpg"",""SV_PolicingMSA/CO_368/IMG_2_368.jpg"",""SV_PolicingMSA/CO_368/IMG_11_368.jpg""]","4","","","","","","1","","4","[""./rc_img/cop_condGroup_9_SafeStreets_autoscaled.png"",""./rc_img/cop_condGroup_9_CommunitySafety_autoscaled.png""]","","4",""
"before_SVSlide_prompt","html-button-response","59","328393","0.0-59.0","","656776a7904ae00d6b91d1dd","6568aa415bf7d1b82e42e951","4","","","","","","","","","","","","1569","Click [Next] to see the next neighborhood!","0","","","","","","","","","","","",""
"street view slide show","image-button-response","60","329400","0.0-60.0","","656776a7904ae00d6b91d1dd","6568aa415bf7d1b82e42e951","4","","","","","","","","","","","","null","stimulus/SV_PolicingMSA/CO_1308/IMG_4_1308.jpg","null","","","","","","3","","","","","",""
"street view slide show","image-button-response","61","330412","0.0-61.0","","656776a7904ae00d6b91d1dd","6568aa415bf7d1b82e42e951","4","","","","","","","","","","","","null","stimulus/SV_PolicingMSA/CO_1308/IMG_3_1308.jpg","null","","","","","","3","","","","","",""
"street view slide show","image-button-response","62","331422","0.0-62.0","","656776a7904ae00d6b91d1dd","6568aa415bf7d1b82e42e951","4","","","","","","","","","","","","null","stimulus/SV_PolicingMSA/CO_1308/IMG_8_1308.jpg","null","","","","","","3","","","","","",""
"street view slide show","image-button-response","63","332440","0.0-63.0","","656776a7904ae00d6b91d1dd","6568aa415bf7d1b82e42e951","4","","","","","","","","","","","","null","stimulus/SV_PolicingMSA/CO_1308/IMG_14_1308.jpg","null","","","","","","3","","","","","",""
"street view slide show","image-button-response","64","333458","0.0-64.0","","656776a7904ae00d6b91d1dd","6568aa415bf7d1b82e42e951","4","","","","","","","","","","","","null","stimulus/SV_PolicingMSA/CO_1308/IMG_0_1308.jpg","null","","","","","","3","","","","","",""
"street view slide show","image-button-response","65","334480","0.0-65.0","","656776a7904ae00d6b91d1dd","6568aa415bf7d1b82e42e951","4","","","","","","","","","","","","null","stimulus/SV_PolicingMSA/CO_1308/IMG_2_1308.jpg","null","","","","","","3","","","","","",""
"street view slide show","image-button-response","66","335489","0.0-66.0","","656776a7904ae00d6b91d1dd","6568aa415bf7d1b82e42e951","4","","","","","","","","","","","","null","stimulus/SV_PolicingMSA/CO_1308/IMG_13_1308.jpg","null","","","","","","3","","","","","",""
"street view slide show","image-button-response","67","336502","0.0-67.0","","656776a7904ae00d6b91d1dd","6568aa415bf7d1b82e42e951","4","","","","","","","","","","","","null","stimulus/SV_PolicingMSA/CO_1308/IMG_11_1308.jpg","null","","","","","","3","","","","","",""
"dot matrix survey1","survey","68","353689","0.0-68.0","","656776a7904ae00d6b91d1dd","6568aa415bf7d1b82e42e951","4","","","","","","","","","","","","17167","","{""P0_Q0"":null,""P0_Q1"":{""wealthy"":2,""safe"":2,""walkable"":2,""traditional"":1,""diverse"":3}}","","","","","","3","[]","","","","",""
"dot matrix survey2","survey","69","367462","0.0-69.0","","656776a7904ae00d6b91d1dd","6568aa415bf7d1b82e42e951","4","","","","","","","","","","","","13765","","{""P0_Q0"":null,""P0_Q1"":{""violence"":2,""crime"":2,""drug"":3,""schools"":1,""opportunities"":3}}","","","","","","3","[]","","","","",""
"dot matrix survey3","survey","70","388911","0.0-70.0","","656776a7904ae00d6b91d1dd","6568aa415bf7d1b82e42e951","4","","","","","","","","","","","","21443","","{""P0_Q0"":null,""P0_Q1"":{""movein"":0,""moveout"":2,""shopping"":2,""walk"":2,""park"":1,""school"":2}}","","","","","","3","[]","","","","",""
"sliderTrial","html-slider-response","71","392161","0.0-71.0","","656776a7904ae00d6b91d1dd","6568aa415bf7d1b82e42e951","4","","","","","","","","","","","","3248","[""SV_PolicingMSA/CO_1308/IMG_4_1308.jpg"",""SV_PolicingMSA/CO_1308/IMG_3_1308.jpg"",""SV_PolicingMSA/CO_1308/IMG_8_1308.jpg"",""SV_PolicingMSA/CO_1308/IMG_14_1308.jpg"",""SV_PolicingMSA/CO_1308/IMG_0_1308.jpg"",""SV_PolicingMSA/CO_1308/IMG_2_1308.jpg"",""SV_PolicingMSA/CO_1308/IMG_13_1308.jpg"",""SV_PolicingMSA/CO_1308/IMG_11_1308.jpg""]","4","","","","","","3","","4","[""./rc_img/cop_condGroup_18_CommunitySafety_autoscaled.png"",""./rc_img/cop_condGroup_18_SafeStreets_autoscaled.png""]","","4",""
"sliderTrial","html-slider-response","72","393353","0.0-72.0","","656776a7904ae00d6b91d1dd","6568aa415bf7d1b82e42e951","4","","","","","","","","","","","","1191","[""SV_PolicingMSA/CO_1308/IMG_4_1308.jpg"",""SV_PolicingMSA/CO_1308/IMG_3_1308.jpg"",""SV_PolicingMSA/CO_1308/IMG_8_1308.jpg"",""SV_PolicingMSA/CO_1308/IMG_14_1308.jpg"",""SV_PolicingMSA/CO_1308/IMG_0_1308.jpg"",""SV_PolicingMSA/CO_1308/IMG_2_1308.jpg"",""SV_PolicingMSA/CO_1308/IMG_13_1308.jpg"",""SV_PolicingMSA/CO_1308/IMG_11_1308.jpg""]","4","","","","","","3","","4","[""./rc_img/cop_condGroup_15_CommunitySafety_autoscaled.png"",""./rc_img/cop_condGroup_15_SafeStreets_autoscaled.png""]","","4",""
"sliderTrial","html-slider-response","73","394424","0.0-73.0","","656776a7904ae00d6b91d1dd","6568aa415bf7d1b82e42e951","4","","","","","","","","","","","","1071","[""SV_PolicingMSA/CO_1308/IMG_4_1308.jpg"",""SV_PolicingMSA/CO_1308/IMG_3_1308.jpg"",""SV_PolicingMSA/CO_1308/IMG_8_1308.jpg"",""SV_PolicingMSA/CO_1308/IMG_14_1308.jpg"",""SV_PolicingMSA/CO_1308/IMG_0_1308.jpg"",""SV_PolicingMSA/CO_1308/IMG_2_1308.jpg"",""SV_PolicingMSA/CO_1308/IMG_13_1308.jpg"",""SV_PolicingMSA/CO_1308/IMG_11_1308.jpg""]","4","","","","","","3","","4","[""./rc_img/cop_condGroup_13_CommunitySafety_autoscaled.png"",""./rc_img/cop_condGroup_13_SafeStreets_autoscaled.png""]","","4",""
"sliderTrial","html-slider-response","74","395280","0.0-74.0","","656776a7904ae00d6b91d1dd","6568aa415bf7d1b82e42e951","4","","","","","","","","","","","","854","[""SV_PolicingMSA/CO_1308/IMG_4_1308.jpg"",""SV_PolicingMSA/CO_1308/IMG_3_1308.jpg"",""SV_PolicingMSA/CO_1308/IMG_8_1308.jpg"",""SV_PolicingMSA/CO_1308/IMG_14_1308.jpg"",""SV_PolicingMSA/CO_1308/IMG_0_1308.jpg"",""SV_PolicingMSA/CO_1308/IMG_2_1308.jpg"",""SV_PolicingMSA/CO_1308/IMG_13_1308.jpg"",""SV_PolicingMSA/CO_1308/IMG_11_1308.jpg""]","4","","","","","","3","","4","[""./rc_img/cop_condGroup_20_CommunitySafety_autoscaled.png"",""./rc_img/cop_condGroup_20_SafeStreets_autoscaled.png""]","","4",""
"sliderTrial","html-slider-response","75","396313","0.0-75.0","","656776a7904ae00d6b91d1dd","6568aa415bf7d1b82e42e951","4","","","","","","","","","","","","1033","[""SV_PolicingMSA/CO_1308/IMG_4_1308.jpg"",""SV_PolicingMSA/CO_1308/IMG_3_1308.jpg"",""SV_PolicingMSA/CO_1308/IMG_8_1308.jpg"",""SV_PolicingMSA/CO_1308/IMG_14_1308.jpg"",""SV_PolicingMSA/CO_1308/IMG_0_1308.jpg"",""SV_PolicingMSA/CO_1308/IMG_2_1308.jpg"",""SV_PolicingMSA/CO_1308/IMG_13_1308.jpg"",""SV_PolicingMSA/CO_1308/IMG_11_1308.jpg""]","4","","","","","","3","","4","[""./rc_img/cop_condGroup_19_SafeStreets_autoscaled.png"",""./rc_img/cop_condGroup_19_CommunitySafety_autoscaled.png""]","","4",""
"half-way","html-button-response","76","412078","0.0-76.0","","656776a7904ae00d6b91d1dd","6568aa415bf7d1b82e42e951","4","","","","","","","","","","","","null","
    <h3>You are now half way through the study.</h3>
    <p>Please take a quick, 15-second break before you continue.</p>
    <img src='assets/img/countdown-15.gif'>
    <p>The study will automatically advance forward after the countdown is complete. <br> However, you may click ""Next"" to advance forward now if you wish.</p>
    ","null","","","","","","","","","","","",""
"before_SVSlide_prompt","html-button-response","77","415962","0.0-77.0","","656776a7904ae00d6b91d1dd","6568aa415bf7d1b82e42e951","4","","","","","","","","","","","","3879","Click [Next] to see the next neighborhood!","0","","","","","","","","","","","",""
"street view slide show","image-button-response","78","416978","0.0-78.0","","656776a7904ae00d6b91d1dd","6568aa415bf7d1b82e42e951","4","","","","","","","","","","","","null","stimulus/SV_PolicingMSA/CO_649/IMG_11_649.jpg","null","","","","","","2","","","","","",""
"street view slide show","image-button-response","79","417984","0.0-79.0","","656776a7904ae00d6b91d1dd","6568aa415bf7d1b82e42e951","4","","","","","","","","","","","","null","stimulus/SV_PolicingMSA/CO_649/IMG_6_649.jpg","null","","","","","","2","","","","","",""
"street view slide show","image-button-response","80","418996","0.0-80.0","","656776a7904ae00d6b91d1dd","6568aa415bf7d1b82e42e951","4","","","","","","","","","","","","null","stimulus/SV_PolicingMSA/CO_649/IMG_14_649.jpg","null","","","","","","2","","","","","",""
"street view slide show","image-button-response","81","420006","0.0-81.0","","656776a7904ae00d6b91d1dd","6568aa415bf7d1b82e42e951","4","","","","","","","","","","","","null","stimulus/SV_PolicingMSA/CO_649/IMG_9_649.jpg","null","","","","","","2","","","","","",""
"street view slide show","image-button-response","82","421021","0.0-82.0","","656776a7904ae00d6b91d1dd","6568aa415bf7d1b82e42e951","4","","","","","","","","","","","","null","stimulus/SV_PolicingMSA/CO_649/IMG_12_649.jpg","null","","","","","","2","","","","","",""
"street view slide show","image-button-response","83","422040","0.0-83.0","","656776a7904ae00d6b91d1dd","6568aa415bf7d1b82e42e951","4","","","","","","","","","","","","null","stimulus/SV_PolicingMSA/CO_649/IMG_3_649.jpg","null","","","","","","2","","","","","",""
"street view slide show","image-button-response","84","423055","0.0-84.0","","656776a7904ae00d6b91d1dd","6568aa415bf7d1b82e42e951","4","","","","","","","","","","","","null","stimulus/SV_PolicingMSA/CO_649/IMG_4_649.jpg","null","","","","","","2","","","","","",""
"street view slide show","image-button-response","85","424075","0.0-85.0","","656776a7904ae00d6b91d1dd","6568aa415bf7d1b82e42e951","4","","","","","","","","","","","","null","stimulus/SV_PolicingMSA/CO_649/IMG_8_649.jpg","null","","","","","","2","","","","","",""
"dot matrix survey1","survey","86","436775","0.0-86.0","","656776a7904ae00d6b91d1dd","6568aa415bf7d1b82e42e951","4","","","","","","","","","","","","12680","","{""P0_Q0"":null,""P0_Q1"":{""wealthy"":2,""safe"":2,""walkable"":2,""traditional"":2,""diverse"":3}}","","","","","","2","[]","","","","",""
"dot matrix survey2","survey","87","449182","0.0-87.0","","656776a7904ae00d6b91d1dd","6568aa415bf7d1b82e42e951","4","","","","","","","","","","","","12398","","{""P0_Q0"":null,""P0_Q1"":{""violence"":2,""crime"":2,""drug"":2,""schools"":2,""opportunities"":2}}","","","","","","2","[]","","","","",""
"dot matrix survey3","survey","88","468286","0.0-88.0","","656776a7904ae00d6b91d1dd","6568aa415bf7d1b82e42e951","4","","","","","","","","","","","","19099","","{""P0_Q0"":null,""P0_Q1"":{""movein"":2,""moveout"":2,""shopping"":1,""walk"":1,""park"":1,""school"":1}}","","","","","","2","[]","","","","",""
"sliderTrial","html-slider-response","89","473042","0.0-89.0","","656776a7904ae00d6b91d1dd","6568aa415bf7d1b82e42e951","4","","","","","","","","","","","","4755","[""SV_PolicingMSA/CO_649/IMG_11_649.jpg"",""SV_PolicingMSA/CO_649/IMG_6_649.jpg"",""SV_PolicingMSA/CO_649/IMG_14_649.jpg"",""SV_PolicingMSA/CO_649/IMG_9_649.jpg"",""SV_PolicingMSA/CO_649/IMG_12_649.jpg"",""SV_PolicingMSA/CO_649/IMG_3_649.jpg"",""SV_PolicingMSA/CO_649/IMG_4_649.jpg"",""SV_PolicingMSA/CO_649/IMG_8_649.jpg""]","4","","","","","","2","","4","[""./rc_img/cop_condGroup_16_CommunitySafety_autoscaled.png"",""./rc_img/cop_condGroup_16_SafeStreets_autoscaled.png""]","","4",""
"sliderTrial","html-slider-response","90","474041","0.0-90.0","","656776a7904ae00d6b91d1dd","6568aa415bf7d1b82e42e951","4","","","","","","","","","","","","997","[""SV_PolicingMSA/CO_649/IMG_11_649.jpg"",""SV_PolicingMSA/CO_649/IMG_6_649.jpg"",""SV_PolicingMSA/CO_649/IMG_14_649.jpg"",""SV_PolicingMSA/CO_649/IMG_9_649.jpg"",""SV_PolicingMSA/CO_649/IMG_12_649.jpg"",""SV_PolicingMSA/CO_649/IMG_3_649.jpg"",""SV_PolicingMSA/CO_649/IMG_4_649.jpg"",""SV_PolicingMSA/CO_649/IMG_8_649.jpg""]","4","","","","","","2","","4","[""./rc_img/cop_condGroup_10_SafeStreets_autoscaled.png"",""./rc_img/cop_condGroup_10_CommunitySafety_autoscaled.png""]","","4",""
"sliderTrial","html-slider-response","91","475104","0.0-91.0","","656776a7904ae00d6b91d1dd","6568aa415bf7d1b82e42e951","4","","","","","","","","","","","","1063","[""SV_PolicingMSA/CO_649/IMG_11_649.jpg"",""SV_PolicingMSA/CO_649/IMG_6_649.jpg"",""SV_PolicingMSA/CO_649/IMG_14_649.jpg"",""SV_PolicingMSA/CO_649/IMG_9_649.jpg"",""SV_PolicingMSA/CO_649/IMG_12_649.jpg"",""SV_PolicingMSA/CO_649/IMG_3_649.jpg"",""SV_PolicingMSA/CO_649/IMG_4_649.jpg"",""SV_PolicingMSA/CO_649/IMG_8_649.jpg""]","4","","","","","","2","","4","[""./rc_img/cop_condGroup_14_CommunitySafety_autoscaled.png"",""./rc_img/cop_condGroup_14_SafeStreets_autoscaled.png""]","","4",""
"sliderTrial","html-slider-response","92","476234","0.0-92.0","","656776a7904ae00d6b91d1dd","6568aa415bf7d1b82e42e951","4","","","","","","","","","","","","1128","[""SV_PolicingMSA/CO_649/IMG_11_649.jpg"",""SV_PolicingMSA/CO_649/IMG_6_649.jpg"",""SV_PolicingMSA/CO_649/IMG_14_649.jpg"",""SV_PolicingMSA/CO_649/IMG_9_649.jpg"",""SV_PolicingMSA/CO_649/IMG_12_649.jpg"",""SV_PolicingMSA/CO_649/IMG_3_649.jpg"",""SV_PolicingMSA/CO_649/IMG_4_649.jpg"",""SV_PolicingMSA/CO_649/IMG_8_649.jpg""]","4","","","","","","2","","4","[""./rc_img/cop_condGroup_11_CommunitySafety_autoscaled.png"",""./rc_img/cop_condGroup_11_SafeStreets_autoscaled.png""]","","4",""
"sliderTrial","html-slider-response","93","477194","0.0-93.0","","656776a7904ae00d6b91d1dd","6568aa415bf7d1b82e42e951","4","","","","","","","","","","","","960","[""SV_PolicingMSA/CO_649/IMG_11_649.jpg"",""SV_PolicingMSA/CO_649/IMG_6_649.jpg"",""SV_PolicingMSA/CO_649/IMG_14_649.jpg"",""SV_PolicingMSA/CO_649/IMG_9_649.jpg"",""SV_PolicingMSA/CO_649/IMG_12_649.jpg"",""SV_PolicingMSA/CO_649/IMG_3_649.jpg"",""SV_PolicingMSA/CO_649/IMG_4_649.jpg"",""SV_PolicingMSA/CO_649/IMG_8_649.jpg""]","4","","","","","","2","","4","[""./rc_img/cop_condGroup_17_SafeStreets_autoscaled.png"",""./rc_img/cop_condGroup_17_CommunitySafety_autoscaled.png""]","","4",""
"before_SVSlide_prompt","html-button-response","94","479072","0.0-94.0","","656776a7904ae00d6b91d1dd","6568aa415bf7d1b82e42e951","4","","","","","","","","","","","","1877","Click [Next] to see the next neighborhood!","0","","","","","","","","","","","",""
"street view slide show","image-button-response","95","480088","0.0-95.0","","656776a7904ae00d6b91d1dd","6568aa415bf7d1b82e42e951","4","","","","","","","","","","","","null","stimulus/SV_PolicingMSA/CO_543/IMG_10_543.jpg","null","","","","","","2","","","","","",""
"street view slide show","image-button-response","96","481097","0.0-96.0","","656776a7904ae00d6b91d1dd","6568aa415bf7d1b82e42e951","4","","","","","","","","","","","","null","stimulus/SV_PolicingMSA/CO_543/IMG_6_543.jpg","null","","","","","","2","","","","","",""
"street view slide show","image-button-response","97","482108","0.0-97.0","","656776a7904ae00d6b91d1dd","6568aa415bf7d1b82e42e951","4","","","","","","","","","","","","null","stimulus/SV_PolicingMSA/CO_543/IMG_14_543.jpg","null","","","","","","2","","","","","",""
"street view slide show","image-button-response","98","483117","0.0-98.0","","656776a7904ae00d6b91d1dd","6568aa415bf7d1b82e42e951","4","","","","","","","","","","","","null","stimulus/SV_PolicingMSA/CO_543/IMG_0_543.jpg","null","","","","","","2","","","","","",""
"street view slide show","image-button-response","99","484125","0.0-99.0","","656776a7904ae00d6b91d1dd","6568aa415bf7d1b82e42e951","4","","","","","","","","","","","","null","stimulus/SV_PolicingMSA/CO_543/IMG_5_543.jpg","null","","","","","","2","","","","","",""
"street view slide show","image-button-response","100","485134","0.0-100.0","","656776a7904ae00d6b91d1dd","6568aa415bf7d1b82e42e951","4","","","","","","","","","","","","null","stimulus/SV_PolicingMSA/CO_543/IMG_9_543.jpg","null","","","","","","2","","","","","",""
"street view slide show","image-button-response","101","486145","0.0-101.0","","656776a7904ae00d6b91d1dd","6568aa415bf7d1b82e42e951","4","","","","","","","","","","","","null","stimulus/SV_PolicingMSA/CO_543/IMG_1_543.jpg","null","","","","","","2","","","","","",""
"street view slide show","image-button-response","102","487154","0.0-102.0","","656776a7904ae00d6b91d1dd","6568aa415bf7d1b82e42e951","4","","","","","","","","","","","","null","stimulus/SV_PolicingMSA/CO_543/IMG_13_543.jpg","null","","","","","","2","","","","","",""
"dot matrix survey1","survey","103","499813","0.0-103.0","","656776a7904ae00d6b91d1dd","6568aa415bf7d1b82e42e951","4","","","","","","","","","","","","12644","","{""P0_Q0"":null,""P0_Q1"":{""wealthy"":1,""safe"":2,""walkable"":2,""traditional"":2,""diverse"":2}}","","","","","","2","[]","","","","",""
"dot matrix survey2","survey","104","509109","0.0-104.0","","656776a7904ae00d6b91d1dd","6568aa415bf7d1b82e42e951","4","","","","","","","","","","","","9288","","{""P0_Q0"":null,""P0_Q1"":{""violence"":2,""crime"":2,""drug"":2,""schools"":2,""opportunities"":2}}","","","","","","2","[]","","","","",""
"dot matrix survey3","survey","105","527562","0.0-105.0","","656776a7904ae00d6b91d1dd","6568aa415bf7d1b82e42e951","4","","","","","","","","","","","","18445","","{""P0_Q0"":null,""P0_Q1"":{""movein"":2,""moveout"":2,""shopping"":3,""walk"":2,""park"":3,""school"":3}}","","","","","","2","[]","","","","",""
"sliderTrial","html-slider-response","106","533104","0.0-106.0","","656776a7904ae00d6b91d1dd","6568aa415bf7d1b82e42e951","4","","","","","","","","","","","","5542","[""SV_PolicingMSA/CO_543/IMG_10_543.jpg"",""SV_PolicingMSA/CO_543/IMG_6_543.jpg"",""SV_PolicingMSA/CO_543/IMG_14_543.jpg"",""SV_PolicingMSA/CO_543/IMG_0_543.jpg"",""SV_PolicingMSA/CO_543/IMG_5_543.jpg"",""SV_PolicingMSA/CO_543/IMG_9_543.jpg"",""SV_PolicingMSA/CO_543/IMG_1_543.jpg"",""SV_PolicingMSA/CO_543/IMG_13_543.jpg""]","3","","","","","","2","","4","[""./rc_img/cop_condGroup_4_SafeStreets_autoscaled.png"",""./rc_img/cop_condGroup_4_CommunitySafety_autoscaled.png""]","","5",""
"sliderTrial","html-slider-response","107","535056","0.0-107.0","","656776a7904ae00d6b91d1dd","6568aa415bf7d1b82e42e951","4","","","","","","","","","","","","1952","[""SV_PolicingMSA/CO_543/IMG_10_543.jpg"",""SV_PolicingMSA/CO_543/IMG_6_543.jpg"",""SV_PolicingMSA/CO_543/IMG_14_543.jpg"",""SV_PolicingMSA/CO_543/IMG_0_543.jpg"",""SV_PolicingMSA/CO_543/IMG_5_543.jpg"",""SV_PolicingMSA/CO_543/IMG_9_543.jpg"",""SV_PolicingMSA/CO_543/IMG_1_543.jpg"",""SV_PolicingMSA/CO_543/IMG_13_543.jpg""]","5","","","","","","2","","4","[""./rc_img/cop_condGroup_2_SafeStreets_autoscaled.png"",""./rc_img/cop_condGroup_2_CommunitySafety_autoscaled.png""]","","3",""
"sliderTrial","html-slider-response","108","538092","0.0-108.0","","656776a7904ae00d6b91d1dd","6568aa415bf7d1b82e42e951","4","","","","","","","","","","","","3035","[""SV_PolicingMSA/CO_543/IMG_10_543.jpg"",""SV_PolicingMSA/CO_543/IMG_6_543.jpg"",""SV_PolicingMSA/CO_543/IMG_14_543.jpg"",""SV_PolicingMSA/CO_543/IMG_0_543.jpg"",""SV_PolicingMSA/CO_543/IMG_5_543.jpg"",""SV_PolicingMSA/CO_543/IMG_9_543.jpg"",""SV_PolicingMSA/CO_543/IMG_1_543.jpg"",""SV_PolicingMSA/CO_543/IMG_13_543.jpg""]","3","","","","","","2","","4","[""./rc_img/cop_condGroup_3_SafeStreets_autoscaled.png"",""./rc_img/cop_condGroup_3_CommunitySafety_autoscaled.png""]","","5",""
"sliderTrial","html-slider-response","109","542055","0.0-109.0","","656776a7904ae00d6b91d1dd","6568aa415bf7d1b82e42e951","4","","","","","","","","","","","","3962","[""SV_PolicingMSA/CO_543/IMG_10_543.jpg"",""SV_PolicingMSA/CO_543/IMG_6_543.jpg"",""SV_PolicingMSA/CO_543/IMG_14_543.jpg"",""SV_PolicingMSA/CO_543/IMG_0_543.jpg"",""SV_PolicingMSA/CO_543/IMG_5_543.jpg"",""SV_PolicingMSA/CO_543/IMG_9_543.jpg"",""SV_PolicingMSA/CO_543/IMG_1_543.jpg"",""SV_PolicingMSA/CO_543/IMG_13_543.jpg""]","5","","","","","","2","","4","[""./rc_img/cop_condGroup_1_SafeStreets_autoscaled.png"",""./rc_img/cop_condGroup_1_CommunitySafety_autoscaled.png""]","","3",""
"sliderTrial","html-slider-response","110","543216","0.0-110.0","","656776a7904ae00d6b91d1dd","6568aa415bf7d1b82e42e951","4","","","","","","","","","","","","1160","[""SV_PolicingMSA/CO_543/IMG_10_543.jpg"",""SV_PolicingMSA/CO_543/IMG_6_543.jpg"",""SV_PolicingMSA/CO_543/IMG_14_543.jpg"",""SV_PolicingMSA/CO_543/IMG_0_543.jpg"",""SV_PolicingMSA/CO_543/IMG_5_543.jpg"",""SV_PolicingMSA/CO_543/IMG_9_543.jpg"",""SV_PolicingMSA/CO_543/IMG_1_543.jpg"",""SV_PolicingMSA/CO_543/IMG_13_543.jpg""]","4","","","","","","2","","4","[""./rc_img/cop_condGroup_6_SafeStreets_autoscaled.png"",""./rc_img/cop_condGroup_6_CommunitySafety_autoscaled.png""]","","4",""
"before_SVSlide_prompt","html-button-response","111","544735","0.0-111.0","","656776a7904ae00d6b91d1dd","6568aa415bf7d1b82e42e951","4","","","","","","","","","","","","1519","Click [Next] to see the next neighborhood!","0","","","","","","","","","","","",""
"street view slide show","image-button-response","112","545753","0.0-112.0","","656776a7904ae00d6b91d1dd","6568aa415bf7d1b82e42e951","4","","","","","","","","","","","","null","stimulus/SV_PolicingMSA/CO_572/IMG_3_572.jpg","null","","","","","","5","","","","","",""
"street view slide show","image-button-response","113","546769","0.0-113.0","","656776a7904ae00d6b91d1dd","6568aa415bf7d1b82e42e951","4","","","","","","","","","","","","null","stimulus/SV_PolicingMSA/CO_572/IMG_8_572.jpg","null","","","","","","5","","","","","",""
"street view slide show","image-button-response","114","547784","0.0-114.0","","656776a7904ae00d6b91d1dd","6568aa415bf7d1b82e42e951","4","","","","","","","","","","","","null","stimulus/SV_PolicingMSA/CO_572/IMG_14_572.jpg","null","","","","","","5","","","","","",""
"street view slide show","image-button-response","115","548802","0.0-115.0","","656776a7904ae00d6b91d1dd","6568aa415bf7d1b82e42e951","4","","","","","","","","","","","","null","stimulus/SV_PolicingMSA/CO_572/IMG_4_572.jpg","null","","","","","","5","","","","","",""
"street view slide show","image-button-response","116","549815","0.0-116.0","","656776a7904ae00d6b91d1dd","6568aa415bf7d1b82e42e951","4","","","","","","","","","","","","null","stimulus/SV_PolicingMSA/CO_572/IMG_11_572.jpg","null","","","","","","5","","","","","",""
"street view slide show","image-button-response","117","550825","0.0-117.0","","656776a7904ae00d6b91d1dd","6568aa415bf7d1b82e42e951","4","","","","","","","","","","","","null","stimulus/SV_PolicingMSA/CO_572/IMG_5_572.jpg","null","","","","","","5","","","","","",""
"street view slide show","image-button-response","118","551846","0.0-118.0","","656776a7904ae00d6b91d1dd","6568aa415bf7d1b82e42e951","4","","","","","","","","","","","","null","stimulus/SV_PolicingMSA/CO_572/IMG_1_572.jpg","null","","","","","","5","","","","","",""
"street view slide show","image-button-response","119","552861","0.0-119.0","","656776a7904ae00d6b91d1dd","6568aa415bf7d1b82e42e951","4","","","","","","","","","","","","null","stimulus/SV_PolicingMSA/CO_572/IMG_2_572.jpg","null","","","","","","5","","","","","",""
"dot matrix survey1","survey","120","567515","0.0-120.0","","656776a7904ae00d6b91d1dd","6568aa415bf7d1b82e42e951","4","","","","","","","","","","","","14638","","{""P0_Q0"":null,""P0_Q1"":{""wealthy"":2,""safe"":3,""walkable"":3,""traditional"":4,""diverse"":2}}","","","","","","5","[]","","","","",""
"dot matrix survey2","survey","121","577213","0.0-121.0","","656776a7904ae00d6b91d1dd","6568aa415bf7d1b82e42e951","4","","","","","","","","","","","","9685","","{""P0_Q0"":null,""P0_Q1"":{""violence"":1,""crime"":1,""drug"":1,""schools"":2,""opportunities"":2}}","","","","","","5","[]","","","","",""
"dot matrix survey3","survey","122","594507","0.0-122.0","","656776a7904ae00d6b91d1dd","6568aa415bf7d1b82e42e951","4","","","","","","","","","","","","17286","","{""P0_Q0"":null,""P0_Q1"":{""movein"":3,""moveout"":1,""shopping"":3,""walk"":3,""park"":3,""school"":3}}","","","","","","5","[]","","","","",""
"sliderTrial","html-slider-response","123","598448","0.0-123.0","","656776a7904ae00d6b91d1dd","6568aa415bf7d1b82e42e951","4","","","","","","","","","","","","3940","[""SV_PolicingMSA/CO_572/IMG_3_572.jpg"",""SV_PolicingMSA/CO_572/IMG_8_572.jpg"",""SV_PolicingMSA/CO_572/IMG_14_572.jpg"",""SV_PolicingMSA/CO_572/IMG_4_572.jpg"",""SV_PolicingMSA/CO_572/IMG_11_572.jpg"",""SV_PolicingMSA/CO_572/IMG_5_572.jpg"",""SV_PolicingMSA/CO_572/IMG_1_572.jpg"",""SV_PolicingMSA/CO_572/IMG_2_572.jpg""]","4","","","","","","5","","4","[""./rc_img/cop_condGroup_18_CommunitySafety_autoscaled.png"",""./rc_img/cop_condGroup_18_SafeStreets_autoscaled.png""]","","4",""
"sliderTrial","html-slider-response","124","601024","0.0-124.0","","656776a7904ae00d6b91d1dd","6568aa415bf7d1b82e42e951","4","","","","","","","","","","","","2574","[""SV_PolicingMSA/CO_572/IMG_3_572.jpg"",""SV_PolicingMSA/CO_572/IMG_8_572.jpg"",""SV_PolicingMSA/CO_572/IMG_14_572.jpg"",""SV_PolicingMSA/CO_572/IMG_4_572.jpg"",""SV_PolicingMSA/CO_572/IMG_11_572.jpg"",""SV_PolicingMSA/CO_572/IMG_5_572.jpg"",""SV_PolicingMSA/CO_572/IMG_1_572.jpg"",""SV_PolicingMSA/CO_572/IMG_2_572.jpg""]","4","","","","","","5","","4","[""./rc_img/cop_condGroup_15_CommunitySafety_autoscaled.png"",""./rc_img/cop_condGroup_15_SafeStreets_autoscaled.png""]","","4",""
"sliderTrial","html-slider-response","125","605514","0.0-125.0","","656776a7904ae00d6b91d1dd","6568aa415bf7d1b82e42e951","4","","","","","","","","","","","","4490","[""SV_PolicingMSA/CO_572/IMG_3_572.jpg"",""SV_PolicingMSA/CO_572/IMG_8_572.jpg"",""SV_PolicingMSA/CO_572/IMG_14_572.jpg"",""SV_PolicingMSA/CO_572/IMG_4_572.jpg"",""SV_PolicingMSA/CO_572/IMG_11_572.jpg"",""SV_PolicingMSA/CO_572/IMG_5_572.jpg"",""SV_PolicingMSA/CO_572/IMG_1_572.jpg"",""SV_PolicingMSA/CO_572/IMG_2_572.jpg""]","3","","","","","","5","","4","[""./rc_img/cop_condGroup_13_CommunitySafety_autoscaled.png"",""./rc_img/cop_condGroup_13_SafeStreets_autoscaled.png""]","","3",""
"sliderTrial","html-slider-response","126","607256","0.0-126.0","","656776a7904ae00d6b91d1dd","6568aa415bf7d1b82e42e951","4","","","","","","","","","","","","1741","[""SV_PolicingMSA/CO_572/IMG_3_572.jpg"",""SV_PolicingMSA/CO_572/IMG_8_572.jpg"",""SV_PolicingMSA/CO_572/IMG_14_572.jpg"",""SV_PolicingMSA/CO_572/IMG_4_572.jpg"",""SV_PolicingMSA/CO_572/IMG_11_572.jpg"",""SV_PolicingMSA/CO_572/IMG_5_572.jpg"",""SV_PolicingMSA/CO_572/IMG_1_572.jpg"",""SV_PolicingMSA/CO_572/IMG_2_572.jpg""]","4","","","","","","5","","4","[""./rc_img/cop_condGroup_20_CommunitySafety_autoscaled.png"",""./rc_img/cop_condGroup_20_SafeStreets_autoscaled.png""]","","4",""
"sliderTrial","html-slider-response","127","610119","0.0-127.0","","656776a7904ae00d6b91d1dd","6568aa415bf7d1b82e42e951","4","","","","","","","","","","","","2863","[""SV_PolicingMSA/CO_572/IMG_3_572.jpg"",""SV_PolicingMSA/CO_572/IMG_8_572.jpg"",""SV_PolicingMSA/CO_572/IMG_14_572.jpg"",""SV_PolicingMSA/CO_572/IMG_4_572.jpg"",""SV_PolicingMSA/CO_572/IMG_11_572.jpg"",""SV_PolicingMSA/CO_572/IMG_5_572.jpg"",""SV_PolicingMSA/CO_572/IMG_1_572.jpg"",""SV_PolicingMSA/CO_572/IMG_2_572.jpg""]","4","","","","","","5","","4","[""./rc_img/cop_condGroup_19_SafeStreets_autoscaled.png"",""./rc_img/cop_condGroup_19_CommunitySafety_autoscaled.png""]","","4",""
"before_SVSlide_prompt","html-button-response","128","611895","0.0-128.0","","656776a7904ae00d6b91d1dd","6568aa415bf7d1b82e42e951","4","","","","","","","","","","","","1775","Click [Next] to see the next neighborhood!","0","","","","","","","","","","","",""
"street view slide show","image-button-response","129","612912","0.0-129.0","","656776a7904ae00d6b91d1dd","6568aa415bf7d1b82e42e951","4","","","","","","","","","","","","null","stimulus/SV_PolicingMSA/CO_1325/IMG_13_1325.jpg","null","","","","","","3","","","","","",""
"street view slide show","image-button-response","130","613924","0.0-130.0","","656776a7904ae00d6b91d1dd","6568aa415bf7d1b82e42e951","4","","","","","","","","","","","","null","stimulus/SV_PolicingMSA/CO_1325/IMG_5_1325.jpg","null","","","","","","3","","","","","",""
"street view slide show","image-button-response","131","614943","0.0-131.0","","656776a7904ae00d6b91d1dd","6568aa415bf7d1b82e42e951","4","","","","","","","","","","","","null","stimulus/SV_PolicingMSA/CO_1325/IMG_3_1325.jpg","null","","","","","","3","","","","","",""
"street view slide show","image-button-response","132","615957","0.0-132.0","","656776a7904ae00d6b91d1dd","6568aa415bf7d1b82e42e951","4","","","","","","","","","","","","null","stimulus/SV_PolicingMSA/CO_1325/IMG_9_1325.jpg","null","","","","","","3","","","","","",""
"street view slide show","image-button-response","133","616968","0.0-133.0","","656776a7904ae00d6b91d1dd","6568aa415bf7d1b82e42e951","4","","","","","","","","","","","","null","stimulus/SV_PolicingMSA/CO_1325/IMG_14_1325.jpg","null","","","","","","3","","","","","",""
"street view slide show","image-button-response","134","617989","0.0-134.0","","656776a7904ae00d6b91d1dd","6568aa415bf7d1b82e42e951","4","","","","","","","","","","","","null","stimulus/SV_PolicingMSA/CO_1325/IMG_11_1325.jpg","null","","","","","","3","","","","","",""
"street view slide show","image-button-response","135","619005","0.0-135.0","","656776a7904ae00d6b91d1dd","6568aa415bf7d1b82e42e951","4","","","","","","","","","","","","null","stimulus/SV_PolicingMSA/CO_1325/IMG_1_1325.jpg","null","","","","","","3","","","","","",""
"street view slide show","image-button-response","136","620022","0.0-136.0","","656776a7904ae00d6b91d1dd","6568aa415bf7d1b82e42e951","4","","","","","","","","","","","","null","stimulus/SV_PolicingMSA/CO_1325/IMG_8_1325.jpg","null","","","","","","3","","","","","",""
"dot matrix survey1","survey","137","627079","0.0-137.0","","656776a7904ae00d6b91d1dd","6568aa415bf7d1b82e42e951","4","","","","","","","","","","","","7040","","{""P0_Q0"":null,""P0_Q1"":{""wealthy"":2,""safe"":2,""walkable"":2,""traditional"":2,""diverse"":2}}","","","","","","3","[]","","","","",""
"dot matrix survey2","survey","138","639814","0.0-138.0","","656776a7904ae00d6b91d1dd","6568aa415bf7d1b82e42e951","4","","","","","","","","","","","","12726","","{""P0_Q0"":null,""P0_Q1"":{""violence"":1,""crime"":1,""drug"":1,""schools"":2,""opportunities"":2}}","","","","","","3","[]","","","","",""
"dot matrix survey3","survey","139","648801","0.0-139.0","","656776a7904ae00d6b91d1dd","6568aa415bf7d1b82e42e951","4","","","","","","","","","","","","8978","","{""P0_Q0"":null,""P0_Q1"":{""movein"":2,""moveout"":2,""shopping"":2,""walk"":2,""park"":2,""school"":2}}","","","","","","3","[]","","","","",""
"sliderTrial","html-slider-response","140","654255","0.0-140.0","","656776a7904ae00d6b91d1dd","6568aa415bf7d1b82e42e951","4","","","","","","","","","","","","5453","[""SV_PolicingMSA/CO_1325/IMG_13_1325.jpg"",""SV_PolicingMSA/CO_1325/IMG_5_1325.jpg"",""SV_PolicingMSA/CO_1325/IMG_3_1325.jpg"",""SV_PolicingMSA/CO_1325/IMG_9_1325.jpg"",""SV_PolicingMSA/CO_1325/IMG_14_1325.jpg"",""SV_PolicingMSA/CO_1325/IMG_11_1325.jpg"",""SV_PolicingMSA/CO_1325/IMG_1_1325.jpg"",""SV_PolicingMSA/CO_1325/IMG_8_1325.jpg""]","5","","","","","","3","","4","[""./rc_img/cop_condGroup_7_CommunitySafety_autoscaled.png"",""./rc_img/cop_condGroup_7_SafeStreets_autoscaled.png""]","","5",""
"sliderTrial","html-slider-response","141","658295","0.0-141.0","","656776a7904ae00d6b91d1dd","6568aa415bf7d1b82e42e951","4","","","","","","","","","","","","4040","[""SV_PolicingMSA/CO_1325/IMG_13_1325.jpg"",""SV_PolicingMSA/CO_1325/IMG_5_1325.jpg"",""SV_PolicingMSA/CO_1325/IMG_3_1325.jpg"",""SV_PolicingMSA/CO_1325/IMG_9_1325.jpg"",""SV_PolicingMSA/CO_1325/IMG_14_1325.jpg"",""SV_PolicingMSA/CO_1325/IMG_11_1325.jpg"",""SV_PolicingMSA/CO_1325/IMG_1_1325.jpg"",""SV_PolicingMSA/CO_1325/IMG_8_1325.jpg""]","7","","","","","","3","","4","[""./rc_img/cop_condGroup_8_CommunitySafety_autoscaled.png"",""./rc_img/cop_condGroup_8_SafeStreets_autoscaled.png""]","","7",""
"sliderTrial","html-slider-response","142","662407","0.0-142.0","","656776a7904ae00d6b91d1dd","6568aa415bf7d1b82e42e951","4","","","","","","","","","","","","4110","[""SV_PolicingMSA/CO_1325/IMG_13_1325.jpg"",""SV_PolicingMSA/CO_1325/IMG_5_1325.jpg"",""SV_PolicingMSA/CO_1325/IMG_3_1325.jpg"",""SV_PolicingMSA/CO_1325/IMG_9_1325.jpg"",""SV_PolicingMSA/CO_1325/IMG_14_1325.jpg"",""SV_PolicingMSA/CO_1325/IMG_11_1325.jpg"",""SV_PolicingMSA/CO_1325/IMG_1_1325.jpg"",""SV_PolicingMSA/CO_1325/IMG_8_1325.jpg""]","7","","","","","","3","","4","[""./rc_img/cop_condGroup_5_CommunitySafety_autoscaled.png"",""./rc_img/cop_condGroup_5_SafeStreets_autoscaled.png""]","","7",""
"sliderTrial","html-slider-response","143","666158","0.0-143.0","","656776a7904ae00d6b91d1dd","6568aa415bf7d1b82e42e951","4","","","","","","","","","","","","3750","[""SV_PolicingMSA/CO_1325/IMG_13_1325.jpg"",""SV_PolicingMSA/CO_1325/IMG_5_1325.jpg"",""SV_PolicingMSA/CO_1325/IMG_3_1325.jpg"",""SV_PolicingMSA/CO_1325/IMG_9_1325.jpg"",""SV_PolicingMSA/CO_1325/IMG_14_1325.jpg"",""SV_PolicingMSA/CO_1325/IMG_11_1325.jpg"",""SV_PolicingMSA/CO_1325/IMG_1_1325.jpg"",""SV_PolicingMSA/CO_1325/IMG_8_1325.jpg""]","7","","","","","","3","","4","[""./rc_img/cop_condGroup_12_CommunitySafety_autoscaled.png"",""./rc_img/cop_condGroup_12_SafeStreets_autoscaled.png""]","","7",""
"sliderTrial","html-slider-response","144","670777","0.0-144.0","","656776a7904ae00d6b91d1dd","6568aa415bf7d1b82e42e951","4","","","","","","","","","","","","4618","[""SV_PolicingMSA/CO_1325/IMG_13_1325.jpg"",""SV_PolicingMSA/CO_1325/IMG_5_1325.jpg"",""SV_PolicingMSA/CO_1325/IMG_3_1325.jpg"",""SV_PolicingMSA/CO_1325/IMG_9_1325.jpg"",""SV_PolicingMSA/CO_1325/IMG_14_1325.jpg"",""SV_PolicingMSA/CO_1325/IMG_11_1325.jpg"",""SV_PolicingMSA/CO_1325/IMG_1_1325.jpg"",""SV_PolicingMSA/CO_1325/IMG_8_1325.jpg""]","1","","","","","","3","","4","[""./rc_img/cop_condGroup_9_SafeStreets_autoscaled.png"",""./rc_img/cop_condGroup_9_CommunitySafety_autoscaled.png""]","","7",""
"demographics","survey-html-form","145","697033","0.0-145.0","","656776a7904ae00d6b91d1dd","6568aa415bf7d1b82e42e951","4","","","","","","","","","","","","26253","","{""age"":""51"",""sex"":""male"",""gender"":""man"",""gender-self-describe"":"""",""zipcode"":""80634""}","","","","","","","","","","","",""
"demographics-list","survey","146","726276","0.0-146.0","","656776a7904ae00d6b91d1dd","6568aa415bf7d1b82e42e951","4","","","","","","","","","","","","29214","","{""P0_Q0"":null,""race-ethnicity"":[""White or of European ancestry""],""education"":""Some college"",""P1_Q0"":null,""ideology"":""Moderate"",""P2_Q0"":null,""num-moves"":0,""P3_Q0"":null,""social-ladder"":8}","","","","","","","[]","","","","",""
"end-survey","survey-text","147","734039","0.0-147.0","","656776a7904ae00d6b91d1dd","6568aa415bf7d1b82e42e951","4","","","","","","","","","","","","7758","","{""Q0"":""""}","","","","","","","","","","","","2"
"end-survey","html-button-response","148","740350","0.0-148.0","","656776a7904ae00d6b91d1dd","6568aa415bf7d1b82e42e951","4","","","","","","","","","","","","6310","
    You've reached the end of the survey. <br><br> 
    <b>Do not close or refresh this window.</b><br>
    On the next page, you will be automatically redirected to Prolific. <br><br>

    <div class=""alert alert-warning""><b>
    </div>
","0","","","","","","","","","","","",""
