"task","trial_type","trial_index","time_elapsed","internal_node_id","subject_id","study_id","session_id","section","width","height","webaudio","browser","browser_version","mobile","os","fullscreen","vsync_rate","webcam","microphone","rt","stimulus","response","success","timeout","failed_images","failed_audio","failed_video","block","accuracy","slider_start","choices","standardized_response","correct","num_attention_checks_correct"
"pavlovia-init","pavlovia","0","1743","0.0-0.0","","656776a7904ae00d6b91d1dd","6568aa238fb544e29e95386f","13","","","","","","","","","","","","","","","","","","","","","","","","","",""
"browser-check","browser-check","1","2752","0.0-1.0","","656776a7904ae00d6b91d1dd","6568aa238fb544e29e95386f","13","1365","716","true","chrome","119.0.0","false","Mac OS","true","59.81","true","true","","","","","","","","","","","","","","",""
"consent","html-button-response","2","29307","0.0-2.0","","656776a7904ae00d6b91d1dd","6568aa238fb544e29e95386f","13","","","","","","","","","","","","26554","
        <div style=""font-size: 80%; max-width:700px"">
            <h2>CONSENT FORM</h2>
        
            <div style=""text-align: left"">
            <h4>DESCRIPTION</h4>
            <p>
            You will complete a short task where you give your impressions of various neighborhoods and assign individuals to those spaces, and answer some questions about your thoughts and opinions.<br>
            The University of Michigan Institutional Review Board Health Sciences and Behavioral Sciences has determined that this study is exempt from IRB oversight.
            </p>

            <h4>TIME INVOLVEMENT</h4>
            <p>Your participation will take approximately 15 minutes. You will receive $3.15 upon completion of the study.</p>
        
            <h4>RISKS AND BENEFITS</h4>
            <p>
            The risks associated with this study are minimal. The benefits which may reasonably be expected to result from this study are none. We cannot and do not guarantee or promise that you will receive any benefits from this study.
            </p>
          
            <h4>SUBJECT'S RIGHTS</h4>
            <p>
            If you have read this form and have decided to participate in this project, please understand your participation is voluntary and you have the right to withdraw your consent or discontinue participation at any time without penalty or loss of benefits to which you are otherwise entitled. The alternative is not to participate. You have the right to refuse to answer particular questions. Your individual privacy will be maintained in all published and written data resulting from the study.
            </p>

            <h4>HUMAN SUBJECT APPROVAL</h4>
            <p>
            This study is exempt from ongoing IRB review.
            </p>

            <h4>CONTACT INFORMATION</h4>
            If you have any questions, concerns or complaints about this research, its procedures, risks and benefits, contact the Protocol Director, Nicholas Camp, npcamp@umich.edu, (443) 851-6783. <br>

            If you have questions about your rights as a research participant, or wish to obtain information, ask questions or discuss any concerns about this study with someone other than the researcher(s), please contact the following:<br><br>
            University of Michigan<br>
            Health Sciences and Behavioral Sciences Institutional Review Board (IRB-HSBS)<br>
            2800 Plymouth Road<br>
            Building 520, Room 1169Ann Arbor, MI 48109-2800<br>
            Telephone: 734-936-0933 or toll free (866) 936-0933<br>
            Fax: 734-936-1852<br>
            E-mail: irbhsbs@umich.edu<br><br>

            You can also contact the University of Michigan Compliance Hotline at 1-866-990-0111. You may also print this consent form to keep.
            <br><br>
            <div class=""alert alert-warning""><b>
            Do you consent to participate in this study? If you consent to participate in this study, please click “Accept and Continue”. If you select ""Decline and Exit"", you will be exited from the survey. <br>
            </b></div>
            </div>
        </div>
    ","1","","","","","","","","","","","",""
"","preload","3","30963","0.0-3.0","","656776a7904ae00d6b91d1dd","6568aa238fb544e29e95386f","13","","","","","","","","","","","","","","","true","false","[]","[]","[]","","","","","","",""
"instructions","html-button-response","4","44635","0.0-4.0","","656776a7904ae00d6b91d1dd","6568aa238fb544e29e95386f","13","","","","","","","","","","","","13670","
        <div class=""text-container"">
        <h1>Welcome to the study!</h1>
        
        <div class=""text-left"">
            <p>
                In this study, we are interested in what people can tell about spaces from Google Street View images. <br> Google Street View takes pictures of streets used for Google Earth and Google Maps. <br>You’ll see Google Street View images of different places and answer some questions about each one.<br>
            </p>
        </div>
        <img src = ""assets/img/example.png"" width = 500px, height = auto>
        <br>
    <br>
    ","0","","","","","","","","","","","",""
"instructions","html-button-response","5","48185","0.0-5.0","","656776a7904ae00d6b91d1dd","6568aa238fb544e29e95386f","13","","","","","","","","","","","","3549","
    <div class=""text-container"">
        <div class=""text-center"">
            <p>Please remember that your answers are completely anonymous.<br>Go with your gut response- there are no right or wrong answers!</p>
        </div>
    <br>
","0","","","","","","","","","","","",""
"before_SVSlide_prompt","html-button-response","6","49739","0.0-6.0","","656776a7904ae00d6b91d1dd","6568aa238fb544e29e95386f","13","","","","","","","","","","","","1553","Click [Next] to see the next neighborhood!","0","","","","","","","","","","","",""
"street view slide show","image-button-response","7","50756","0.0-7.0","","656776a7904ae00d6b91d1dd","6568aa238fb544e29e95386f","13","","","","","","","","","","","","null","stimulus/SV_PolicingMSA/CA_6489/IMG_1_6489.jpg","null","","","","","","2","","","","","",""
"street view slide show","image-button-response","8","51759","0.0-8.0","","656776a7904ae00d6b91d1dd","6568aa238fb544e29e95386f","13","","","","","","","","","","","","null","stimulus/SV_PolicingMSA/CA_6489/IMG_6_6489.jpg","null","","","","","","2","","","","","",""
"street view slide show","image-button-response","9","52765","0.0-9.0","","656776a7904ae00d6b91d1dd","6568aa238fb544e29e95386f","13","","","","","","","","","","","","null","stimulus/SV_PolicingMSA/CA_6489/IMG_7_6489.jpg","null","","","","","","2","","","","","",""
"street view slide show","image-button-response","10","53771","0.0-10.0","","656776a7904ae00d6b91d1dd","6568aa238fb544e29e95386f","13","","","","","","","","","","","","null","stimulus/SV_PolicingMSA/CA_6489/IMG_4_6489.jpg","null","","","","","","2","","","","","",""
"street view slide show","image-button-response","11","54777","0.0-11.0","","656776a7904ae00d6b91d1dd","6568aa238fb544e29e95386f","13","","","","","","","","","","","","null","stimulus/SV_PolicingMSA/CA_6489/IMG_12_6489.jpg","null","","","","","","2","","","","","",""
"street view slide show","image-button-response","12","55783","0.0-12.0","","656776a7904ae00d6b91d1dd","6568aa238fb544e29e95386f","13","","","","","","","","","","","","null","stimulus/SV_PolicingMSA/CA_6489/IMG_8_6489.jpg","null","","","","","","2","","","","","",""
"street view slide show","image-button-response","13","56788","0.0-13.0","","656776a7904ae00d6b91d1dd","6568aa238fb544e29e95386f","13","","","","","","","","","","","","null","stimulus/SV_PolicingMSA/CA_6489/IMG_0_6489.jpg","null","","","","","","2","","","","","",""
"street view slide show","image-button-response","14","57794","0.0-14.0","","656776a7904ae00d6b91d1dd","6568aa238fb544e29e95386f","13","","","","","","","","","","","","null","stimulus/SV_PolicingMSA/CA_6489/IMG_9_6489.jpg","null","","","","","","2","","","","","",""
"dot matrix survey1","survey","15","112037","0.0-15.0","","656776a7904ae00d6b91d1dd","6568aa238fb544e29e95386f","13","","","","","","","","","","","","54195","","{""P0_Q0"":null,""P0_Q1"":{""wealthy"":2,""safe"":3,""walkable"":0,""traditional"":1,""diverse"":1}}","","","","","","2","[]","","","","",""
"dot matrix survey2","survey","16","146528","0.0-16.0","","656776a7904ae00d6b91d1dd","6568aa238fb544e29e95386f","13","","","","","","","","","","","","34481","","{""P0_Q0"":null,""P0_Q1"":{""violence"":1,""crime"":1,""drug"":0,""schools"":3,""opportunities"":3}}","","","","","","2","[]","","","","",""
"dot matrix survey3","survey","17","184174","0.0-17.0","","656776a7904ae00d6b91d1dd","6568aa238fb544e29e95386f","13","","","","","","","","","","","","37639","","{""P0_Q0"":null,""P0_Q1"":{""movein"":0,""moveout"":2,""shopping"":4,""walk"":0,""park"":3,""school"":3}}","","","","","","2","[]","","","","",""
"sliderTrial","html-slider-response","18","210253","0.0-18.0","","656776a7904ae00d6b91d1dd","6568aa238fb544e29e95386f","13","","","","","","","","","","","","26077","[""SV_PolicingMSA/CA_6489/IMG_1_6489.jpg"",""SV_PolicingMSA/CA_6489/IMG_6_6489.jpg"",""SV_PolicingMSA/CA_6489/IMG_7_6489.jpg"",""SV_PolicingMSA/CA_6489/IMG_4_6489.jpg"",""SV_PolicingMSA/CA_6489/IMG_12_6489.jpg"",""SV_PolicingMSA/CA_6489/IMG_8_6489.jpg"",""SV_PolicingMSA/CA_6489/IMG_0_6489.jpg"",""SV_PolicingMSA/CA_6489/IMG_9_6489.jpg""]","5","","","","","","2","","4","[""./rc_img/cop_condGroup_12_SafeStreets_autoscaled.png"",""./rc_img/cop_condGroup_12_CommunitySafety_autoscaled.png""]","3","",""
"sliderTrial","html-slider-response","19","218127","0.0-19.0","","656776a7904ae00d6b91d1dd","6568aa238fb544e29e95386f","13","","","","","","","","","","","","7871","[""SV_PolicingMSA/CA_6489/IMG_1_6489.jpg"",""SV_PolicingMSA/CA_6489/IMG_6_6489.jpg"",""SV_PolicingMSA/CA_6489/IMG_7_6489.jpg"",""SV_PolicingMSA/CA_6489/IMG_4_6489.jpg"",""SV_PolicingMSA/CA_6489/IMG_12_6489.jpg"",""SV_PolicingMSA/CA_6489/IMG_8_6489.jpg"",""SV_PolicingMSA/CA_6489/IMG_0_6489.jpg"",""SV_PolicingMSA/CA_6489/IMG_9_6489.jpg""]","3","","","","","","2","","4","[""./rc_img/cop_condGroup_20_CommunitySafety_autoscaled.png"",""./rc_img/cop_condGroup_20_SafeStreets_autoscaled.png""]","3","",""
"sliderTrial","html-slider-response","20","222095","0.0-20.0","","656776a7904ae00d6b91d1dd","6568aa238fb544e29e95386f","13","","","","","","","","","","","","3966","[""SV_PolicingMSA/CA_6489/IMG_1_6489.jpg"",""SV_PolicingMSA/CA_6489/IMG_6_6489.jpg"",""SV_PolicingMSA/CA_6489/IMG_7_6489.jpg"",""SV_PolicingMSA/CA_6489/IMG_4_6489.jpg"",""SV_PolicingMSA/CA_6489/IMG_12_6489.jpg"",""SV_PolicingMSA/CA_6489/IMG_8_6489.jpg"",""SV_PolicingMSA/CA_6489/IMG_0_6489.jpg"",""SV_PolicingMSA/CA_6489/IMG_9_6489.jpg""]","3","","","","","","2","","4","[""./rc_img/cop_condGroup_14_CommunitySafety_autoscaled.png"",""./rc_img/cop_condGroup_14_SafeStreets_autoscaled.png""]","3","",""
"sliderTrial","html-slider-response","21","224735","0.0-21.0","","656776a7904ae00d6b91d1dd","6568aa238fb544e29e95386f","13","","","","","","","","","","","","2638","[""SV_PolicingMSA/CA_6489/IMG_1_6489.jpg"",""SV_PolicingMSA/CA_6489/IMG_6_6489.jpg"",""SV_PolicingMSA/CA_6489/IMG_7_6489.jpg"",""SV_PolicingMSA/CA_6489/IMG_4_6489.jpg"",""SV_PolicingMSA/CA_6489/IMG_12_6489.jpg"",""SV_PolicingMSA/CA_6489/IMG_8_6489.jpg"",""SV_PolicingMSA/CA_6489/IMG_0_6489.jpg"",""SV_PolicingMSA/CA_6489/IMG_9_6489.jpg""]","3","","","","","","2","","4","[""./rc_img/cop_condGroup_5_CommunitySafety_autoscaled.png"",""./rc_img/cop_condGroup_5_SafeStreets_autoscaled.png""]","3","",""
"sliderTrial","html-slider-response","22","227445","0.0-22.0","","656776a7904ae00d6b91d1dd","6568aa238fb544e29e95386f","13","","","","","","","","","","","","2708","[""SV_PolicingMSA/CA_6489/IMG_1_6489.jpg"",""SV_PolicingMSA/CA_6489/IMG_6_6489.jpg"",""SV_PolicingMSA/CA_6489/IMG_7_6489.jpg"",""SV_PolicingMSA/CA_6489/IMG_4_6489.jpg"",""SV_PolicingMSA/CA_6489/IMG_12_6489.jpg"",""SV_PolicingMSA/CA_6489/IMG_8_6489.jpg"",""SV_PolicingMSA/CA_6489/IMG_0_6489.jpg"",""SV_PolicingMSA/CA_6489/IMG_9_6489.jpg""]","3","","","","","","2","","4","[""./rc_img/cop_condGroup_10_CommunitySafety_autoscaled.png"",""./rc_img/cop_condGroup_10_SafeStreets_autoscaled.png""]","3","",""
"before_SVSlide_prompt","html-button-response","23","228957","0.0-23.0","","656776a7904ae00d6b91d1dd","6568aa238fb544e29e95386f","13","","","","","","","","","","","","1511","Click [Next] to see the next neighborhood!","0","","","","","","","","","","","",""
"street view slide show","image-button-response","24","229958","0.0-24.0","","656776a7904ae00d6b91d1dd","6568aa238fb544e29e95386f","13","","","","","","","","","","","","null","stimulus/SV_PolicingMSA/CA_3402/IMG_4_3402.jpg","null","","","","","","3","","","","","",""
"street view slide show","image-button-response","25","230963","0.0-25.0","","656776a7904ae00d6b91d1dd","6568aa238fb544e29e95386f","13","","","","","","","","","","","","null","stimulus/SV_PolicingMSA/CA_3402/IMG_1_3402.jpg","null","","","","","","3","","","","","",""
"street view slide show","image-button-response","26","231968","0.0-26.0","","656776a7904ae00d6b91d1dd","6568aa238fb544e29e95386f","13","","","","","","","","","","","","null","stimulus/SV_PolicingMSA/CA_3402/IMG_5_3402.jpg","null","","","","","","3","","","","","",""
"street view slide show","image-button-response","27","232971","0.0-27.0","","656776a7904ae00d6b91d1dd","6568aa238fb544e29e95386f","13","","","","","","","","","","","","null","stimulus/SV_PolicingMSA/CA_3402/IMG_0_3402.jpg","null","","","","","","3","","","","","",""
"street view slide show","image-button-response","28","233977","0.0-28.0","","656776a7904ae00d6b91d1dd","6568aa238fb544e29e95386f","13","","","","","","","","","","","","null","stimulus/SV_PolicingMSA/CA_3402/IMG_14_3402.jpg","null","","","","","","3","","","","","",""
"street view slide show","image-button-response","29","234980","0.0-29.0","","656776a7904ae00d6b91d1dd","6568aa238fb544e29e95386f","13","","","","","","","","","","","","null","stimulus/SV_PolicingMSA/CA_3402/IMG_7_3402.jpg","null","","","","","","3","","","","","",""
"street view slide show","image-button-response","30","235985","0.0-30.0","","656776a7904ae00d6b91d1dd","6568aa238fb544e29e95386f","13","","","","","","","","","","","","null","stimulus/SV_PolicingMSA/CA_3402/IMG_12_3402.jpg","null","","","","","","3","","","","","",""
"street view slide show","image-button-response","31","236987","0.0-31.0","","656776a7904ae00d6b91d1dd","6568aa238fb544e29e95386f","13","","","","","","","","","","","","null","stimulus/SV_PolicingMSA/CA_3402/IMG_10_3402.jpg","null","","","","","","3","","","","","",""
"dot matrix survey1","survey","32","278757","0.0-32.0","","656776a7904ae00d6b91d1dd","6568aa238fb544e29e95386f","13","","","","","","","","","","","","41758","","{""P0_Q0"":null,""P0_Q1"":{""wealthy"":2,""safe"":3,""walkable"":0,""traditional"":1,""diverse"":2}}","","","","","","3","[]","","","","",""
"dot matrix survey2","survey","33","299945","0.0-33.0","","656776a7904ae00d6b91d1dd","6568aa238fb544e29e95386f","13","","","","","","","","","","","","21179","","{""P0_Q0"":null,""P0_Q1"":{""violence"":2,""crime"":2,""drug"":1,""schools"":2,""opportunities"":2}}","","","","","","3","[]","","","","",""
"dot matrix survey3","survey","34","326061","0.0-34.0","","656776a7904ae00d6b91d1dd","6568aa238fb544e29e95386f","13","","","","","","","","","","","","26109","","{""P0_Q0"":null,""P0_Q1"":{""movein"":1,""moveout"":2,""shopping"":2,""walk"":0,""park"":2,""school"":2}}","","","","","","3","[]","","","","",""
"sliderTrial","html-slider-response","35","337847","0.0-35.0","","656776a7904ae00d6b91d1dd","6568aa238fb544e29e95386f","13","","","","","","","","","","","","11784","[""SV_PolicingMSA/CA_3402/IMG_4_3402.jpg"",""SV_PolicingMSA/CA_3402/IMG_1_3402.jpg"",""SV_PolicingMSA/CA_3402/IMG_5_3402.jpg"",""SV_PolicingMSA/CA_3402/IMG_0_3402.jpg"",""SV_PolicingMSA/CA_3402/IMG_14_3402.jpg"",""SV_PolicingMSA/CA_3402/IMG_7_3402.jpg"",""SV_PolicingMSA/CA_3402/IMG_12_3402.jpg"",""SV_PolicingMSA/CA_3402/IMG_10_3402.jpg""]","6","","","","","","3","","4","[""./rc_img/cop_condGroup_19_SafeStreets_autoscaled.png"",""./rc_img/cop_condGroup_19_CommunitySafety_autoscaled.png""]","2","",""
"sliderTrial","html-slider-response","36","341641","0.0-36.0","","656776a7904ae00d6b91d1dd","6568aa238fb544e29e95386f","13","","","","","","","","","","","","3792","[""SV_PolicingMSA/CA_3402/IMG_4_3402.jpg"",""SV_PolicingMSA/CA_3402/IMG_1_3402.jpg"",""SV_PolicingMSA/CA_3402/IMG_5_3402.jpg"",""SV_PolicingMSA/CA_3402/IMG_0_3402.jpg"",""SV_PolicingMSA/CA_3402/IMG_14_3402.jpg"",""SV_PolicingMSA/CA_3402/IMG_7_3402.jpg"",""SV_PolicingMSA/CA_3402/IMG_12_3402.jpg"",""SV_PolicingMSA/CA_3402/IMG_10_3402.jpg""]","2","","","","","","3","","4","[""./rc_img/cop_condGroup_18_CommunitySafety_autoscaled.png"",""./rc_img/cop_condGroup_18_SafeStreets_autoscaled.png""]","2","",""
"sliderTrial","html-slider-response","37","344541","0.0-37.0","","656776a7904ae00d6b91d1dd","6568aa238fb544e29e95386f","13","","","","","","","","","","","","2898","[""SV_PolicingMSA/CA_3402/IMG_4_3402.jpg"",""SV_PolicingMSA/CA_3402/IMG_1_3402.jpg"",""SV_PolicingMSA/CA_3402/IMG_5_3402.jpg"",""SV_PolicingMSA/CA_3402/IMG_0_3402.jpg"",""SV_PolicingMSA/CA_3402/IMG_14_3402.jpg"",""SV_PolicingMSA/CA_3402/IMG_7_3402.jpg"",""SV_PolicingMSA/CA_3402/IMG_12_3402.jpg"",""SV_PolicingMSA/CA_3402/IMG_10_3402.jpg""]","3","","","","","","3","","4","[""./rc_img/cop_condGroup_9_CommunitySafety_autoscaled.png"",""./rc_img/cop_condGroup_9_SafeStreets_autoscaled.png""]","3","",""
"sliderTrial","html-slider-response","38","347140","0.0-38.0","","656776a7904ae00d6b91d1dd","6568aa238fb544e29e95386f","13","","","","","","","","","","","","2598","[""SV_PolicingMSA/CA_3402/IMG_4_3402.jpg"",""SV_PolicingMSA/CA_3402/IMG_1_3402.jpg"",""SV_PolicingMSA/CA_3402/IMG_5_3402.jpg"",""SV_PolicingMSA/CA_3402/IMG_0_3402.jpg"",""SV_PolicingMSA/CA_3402/IMG_14_3402.jpg"",""SV_PolicingMSA/CA_3402/IMG_7_3402.jpg"",""SV_PolicingMSA/CA_3402/IMG_12_3402.jpg"",""SV_PolicingMSA/CA_3402/IMG_10_3402.jpg""]","3","","","","","","3","","4","[""./rc_img/cop_condGroup_17_CommunitySafety_autoscaled.png"",""./rc_img/cop_condGroup_17_SafeStreets_autoscaled.png""]","3","",""
"sliderTrial","html-slider-response","39","350283","0.0-39.0","","656776a7904ae00d6b91d1dd","6568aa238fb544e29e95386f","13","","","","","","","","","","","","3140","[""SV_PolicingMSA/CA_3402/IMG_4_3402.jpg"",""SV_PolicingMSA/CA_3402/IMG_1_3402.jpg"",""SV_PolicingMSA/CA_3402/IMG_5_3402.jpg"",""SV_PolicingMSA/CA_3402/IMG_0_3402.jpg"",""SV_PolicingMSA/CA_3402/IMG_14_3402.jpg"",""SV_PolicingMSA/CA_3402/IMG_7_3402.jpg"",""SV_PolicingMSA/CA_3402/IMG_12_3402.jpg"",""SV_PolicingMSA/CA_3402/IMG_10_3402.jpg""]","6","","","","","","3","","4","[""./rc_img/cop_condGroup_15_SafeStreets_autoscaled.png"",""./rc_img/cop_condGroup_15_CommunitySafety_autoscaled.png""]","2","",""
"before_SVSlide_prompt","html-button-response","40","353077","0.0-40.0","","656776a7904ae00d6b91d1dd","6568aa238fb544e29e95386f","13","","","","","","","","","","","","2793","Click [Next] to see the next neighborhood!","0","","","","","","","","","","","",""
"street view slide show","image-button-response","41","354078","0.0-41.0","","656776a7904ae00d6b91d1dd","6568aa238fb544e29e95386f","13","","","","","","","","","","","","null","stimulus/SV_PolicingMSA/CA_5734/IMG_13_5734.jpg","null","","","","","","4","","","","","",""
"street view slide show","image-button-response","42","355083","0.0-42.0","","656776a7904ae00d6b91d1dd","6568aa238fb544e29e95386f","13","","","","","","","","","","","","null","stimulus/SV_PolicingMSA/CA_5734/IMG_4_5734.jpg","null","","","","","","4","","","","","",""
"street view slide show","image-button-response","43","356090","0.0-43.0","","656776a7904ae00d6b91d1dd","6568aa238fb544e29e95386f","13","","","","","","","","","","","","null","stimulus/SV_PolicingMSA/CA_5734/IMG_1_5734.jpg","null","","","","","","4","","","","","",""
"street view slide show","image-button-response","44","357092","0.0-44.0","","656776a7904ae00d6b91d1dd","6568aa238fb544e29e95386f","13","","","","","","","","","","","","null","stimulus/SV_PolicingMSA/CA_5734/IMG_7_5734.jpg","null","","","","","","4","","","","","",""
"street view slide show","image-button-response","45","358098","0.0-45.0","","656776a7904ae00d6b91d1dd","6568aa238fb544e29e95386f","13","","","","","","","","","","","","null","stimulus/SV_PolicingMSA/CA_5734/IMG_12_5734.jpg","null","","","","","","4","","","","","",""
"street view slide show","image-button-response","46","359101","0.0-46.0","","656776a7904ae00d6b91d1dd","6568aa238fb544e29e95386f","13","","","","","","","","","","","","null","stimulus/SV_PolicingMSA/CA_5734/IMG_6_5734.jpg","null","","","","","","4","","","","","",""
"street view slide show","image-button-response","47","360106","0.0-47.0","","656776a7904ae00d6b91d1dd","6568aa238fb544e29e95386f","13","","","","","","","","","","","","null","stimulus/SV_PolicingMSA/CA_5734/IMG_14_5734.jpg","null","","","","","","4","","","","","",""
"street view slide show","image-button-response","48","361108","0.0-48.0","","656776a7904ae00d6b91d1dd","6568aa238fb544e29e95386f","13","","","","","","","","","","","","null","stimulus/SV_PolicingMSA/CA_5734/IMG_5_5734.jpg","null","","","","","","4","","","","","",""
"dot matrix survey1","survey","49","398945","0.0-49.0","","656776a7904ae00d6b91d1dd","6568aa238fb544e29e95386f","13","","","","","","","","","","","","37828","","{""P0_Q0"":null,""P0_Q1"":{""wealthy"":2,""safe"":3,""walkable"":0,""traditional"":2,""diverse"":2}}","","","","","","4","[]","","","","",""
"dot matrix survey2","survey","50","422909","0.0-50.0","","656776a7904ae00d6b91d1dd","6568aa238fb544e29e95386f","13","","","","","","","","","","","","23958","","{""P0_Q0"":null,""P0_Q1"":{""violence"":1,""crime"":1,""drug"":1,""schools"":3,""opportunities"":2}}","","","","","","4","[]","","","","",""
"dot matrix survey3","survey","51","445316","0.0-51.0","","656776a7904ae00d6b91d1dd","6568aa238fb544e29e95386f","13","","","","","","","","","","","","22400","","{""P0_Q0"":null,""P0_Q1"":{""movein"":2,""moveout"":2,""shopping"":2,""walk"":0,""park"":3,""school"":3}}","","","","","","4","[]","","","","",""
"sliderTrial","html-slider-response","52","450863","0.0-52.0","","656776a7904ae00d6b91d1dd","6568aa238fb544e29e95386f","13","","","","","","","","","","","","5545","[""SV_PolicingMSA/CA_5734/IMG_13_5734.jpg"",""SV_PolicingMSA/CA_5734/IMG_4_5734.jpg"",""SV_PolicingMSA/CA_5734/IMG_1_5734.jpg"",""SV_PolicingMSA/CA_5734/IMG_7_5734.jpg"",""SV_PolicingMSA/CA_5734/IMG_12_5734.jpg"",""SV_PolicingMSA/CA_5734/IMG_6_5734.jpg"",""SV_PolicingMSA/CA_5734/IMG_14_5734.jpg"",""SV_PolicingMSA/CA_5734/IMG_5_5734.jpg""]","5","","","","","","4","","4","[""./rc_img/cop_condGroup_12_SafeStreets_autoscaled.png"",""./rc_img/cop_condGroup_12_CommunitySafety_autoscaled.png""]","3","",""
"sliderTrial","html-slider-response","53","453755","0.0-53.0","","656776a7904ae00d6b91d1dd","6568aa238fb544e29e95386f","13","","","","","","","","","","","","2890","[""SV_PolicingMSA/CA_5734/IMG_13_5734.jpg"",""SV_PolicingMSA/CA_5734/IMG_4_5734.jpg"",""SV_PolicingMSA/CA_5734/IMG_1_5734.jpg"",""SV_PolicingMSA/CA_5734/IMG_7_5734.jpg"",""SV_PolicingMSA/CA_5734/IMG_12_5734.jpg"",""SV_PolicingMSA/CA_5734/IMG_6_5734.jpg"",""SV_PolicingMSA/CA_5734/IMG_14_5734.jpg"",""SV_PolicingMSA/CA_5734/IMG_5_5734.jpg""]","2","","","","","","4","","4","[""./rc_img/cop_condGroup_20_CommunitySafety_autoscaled.png"",""./rc_img/cop_condGroup_20_SafeStreets_autoscaled.png""]","2","",""
"sliderTrial","html-slider-response","54","457677","0.0-54.0","","656776a7904ae00d6b91d1dd","6568aa238fb544e29e95386f","13","","","","","","","","","","","","3920","[""SV_PolicingMSA/CA_5734/IMG_13_5734.jpg"",""SV_PolicingMSA/CA_5734/IMG_4_5734.jpg"",""SV_PolicingMSA/CA_5734/IMG_1_5734.jpg"",""SV_PolicingMSA/CA_5734/IMG_7_5734.jpg"",""SV_PolicingMSA/CA_5734/IMG_12_5734.jpg"",""SV_PolicingMSA/CA_5734/IMG_6_5734.jpg"",""SV_PolicingMSA/CA_5734/IMG_14_5734.jpg"",""SV_PolicingMSA/CA_5734/IMG_5_5734.jpg""]","3","","","","","","4","","4","[""./rc_img/cop_condGroup_14_CommunitySafety_autoscaled.png"",""./rc_img/cop_condGroup_14_SafeStreets_autoscaled.png""]","3","",""
"sliderTrial","html-slider-response","55","460076","0.0-55.0","","656776a7904ae00d6b91d1dd","6568aa238fb544e29e95386f","13","","","","","","","","","","","","2397","[""SV_PolicingMSA/CA_5734/IMG_13_5734.jpg"",""SV_PolicingMSA/CA_5734/IMG_4_5734.jpg"",""SV_PolicingMSA/CA_5734/IMG_1_5734.jpg"",""SV_PolicingMSA/CA_5734/IMG_7_5734.jpg"",""SV_PolicingMSA/CA_5734/IMG_12_5734.jpg"",""SV_PolicingMSA/CA_5734/IMG_6_5734.jpg"",""SV_PolicingMSA/CA_5734/IMG_14_5734.jpg"",""SV_PolicingMSA/CA_5734/IMG_5_5734.jpg""]","3","","","","","","4","","4","[""./rc_img/cop_condGroup_5_CommunitySafety_autoscaled.png"",""./rc_img/cop_condGroup_5_SafeStreets_autoscaled.png""]","3","",""
"sliderTrial","html-slider-response","56","463003","0.0-56.0","","656776a7904ae00d6b91d1dd","6568aa238fb544e29e95386f","13","","","","","","","","","","","","2926","[""SV_PolicingMSA/CA_5734/IMG_13_5734.jpg"",""SV_PolicingMSA/CA_5734/IMG_4_5734.jpg"",""SV_PolicingMSA/CA_5734/IMG_1_5734.jpg"",""SV_PolicingMSA/CA_5734/IMG_7_5734.jpg"",""SV_PolicingMSA/CA_5734/IMG_12_5734.jpg"",""SV_PolicingMSA/CA_5734/IMG_6_5734.jpg"",""SV_PolicingMSA/CA_5734/IMG_14_5734.jpg"",""SV_PolicingMSA/CA_5734/IMG_5_5734.jpg""]","2","","","","","","4","","4","[""./rc_img/cop_condGroup_10_CommunitySafety_autoscaled.png"",""./rc_img/cop_condGroup_10_SafeStreets_autoscaled.png""]","2","",""
"before_SVSlide_prompt","html-button-response","57","465745","0.0-57.0","","656776a7904ae00d6b91d1dd","6568aa238fb544e29e95386f","13","","","","","","","","","","","","2741","Click [Next] to see the next neighborhood!","0","","","","","","","","","","","",""
"street view slide show","image-button-response","58","466749","0.0-58.0","","656776a7904ae00d6b91d1dd","6568aa238fb544e29e95386f","13","","","","","","","","","","","","null","stimulus/SV_PolicingMSA/CA_2994/IMG_7_2994.jpg","null","","","","","","1","","","","","",""
"street view slide show","image-button-response","59","467752","0.0-59.0","","656776a7904ae00d6b91d1dd","6568aa238fb544e29e95386f","13","","","","","","","","","","","","null","stimulus/SV_PolicingMSA/CA_2994/IMG_10_2994.jpg","null","","","","","","1","","","","","",""
"street view slide show","image-button-response","60","468755","0.0-60.0","","656776a7904ae00d6b91d1dd","6568aa238fb544e29e95386f","13","","","","","","","","","","","","null","stimulus/SV_PolicingMSA/CA_2994/IMG_1_2994.jpg","null","","","","","","1","","","","","",""
"street view slide show","image-button-response","61","469759","0.0-61.0","","656776a7904ae00d6b91d1dd","6568aa238fb544e29e95386f","13","","","","","","","","","","","","null","stimulus/SV_PolicingMSA/CA_2994/IMG_11_2994.jpg","null","","","","","","1","","","","","",""
"street view slide show","image-button-response","62","470765","0.0-62.0","","656776a7904ae00d6b91d1dd","6568aa238fb544e29e95386f","13","","","","","","","","","","","","null","stimulus/SV_PolicingMSA/CA_2994/IMG_0_2994.jpg","null","","","","","","1","","","","","",""
"street view slide show","image-button-response","63","471768","0.0-63.0","","656776a7904ae00d6b91d1dd","6568aa238fb544e29e95386f","13","","","","","","","","","","","","null","stimulus/SV_PolicingMSA/CA_2994/IMG_12_2994.jpg","null","","","","","","1","","","","","",""
"street view slide show","image-button-response","64","472773","0.0-64.0","","656776a7904ae00d6b91d1dd","6568aa238fb544e29e95386f","13","","","","","","","","","","","","null","stimulus/SV_PolicingMSA/CA_2994/IMG_9_2994.jpg","null","","","","","","1","","","","","",""
"street view slide show","image-button-response","65","473775","0.0-65.0","","656776a7904ae00d6b91d1dd","6568aa238fb544e29e95386f","13","","","","","","","","","","","","null","stimulus/SV_PolicingMSA/CA_2994/IMG_14_2994.jpg","null","","","","","","1","","","","","",""
"dot matrix survey1","survey","66","497057","0.0-66.0","","656776a7904ae00d6b91d1dd","6568aa238fb544e29e95386f","13","","","","","","","","","","","","23271","","{""P0_Q0"":null,""P0_Q1"":{""wealthy"":3,""safe"":4,""walkable"":2,""traditional"":3,""diverse"":1}}","","","","","","1","[]","","","","",""
"dot matrix survey2","survey","67","508175","0.0-67.0","","656776a7904ae00d6b91d1dd","6568aa238fb544e29e95386f","13","","","","","","","","","","","","11112","","{""P0_Q0"":null,""P0_Q1"":{""violence"":0,""crime"":0,""drug"":0,""schools"":4,""opportunities"":4}}","","","","","","1","[]","","","","",""
"dot matrix survey3","survey","68","526415","0.0-68.0","","656776a7904ae00d6b91d1dd","6568aa238fb544e29e95386f","13","","","","","","","","","","","","18234","","{""P0_Q0"":null,""P0_Q1"":{""movein"":3,""moveout"":1,""shopping"":4,""walk"":0,""park"":4,""school"":4}}","","","","","","1","[]","","","","",""
"sliderTrial","html-slider-response","69","529897","0.0-69.0","","656776a7904ae00d6b91d1dd","6568aa238fb544e29e95386f","13","","","","","","","","","","","","3480","[""SV_PolicingMSA/CA_2994/IMG_7_2994.jpg"",""SV_PolicingMSA/CA_2994/IMG_10_2994.jpg"",""SV_PolicingMSA/CA_2994/IMG_1_2994.jpg"",""SV_PolicingMSA/CA_2994/IMG_11_2994.jpg"",""SV_PolicingMSA/CA_2994/IMG_0_2994.jpg"",""SV_PolicingMSA/CA_2994/IMG_12_2994.jpg"",""SV_PolicingMSA/CA_2994/IMG_9_2994.jpg"",""SV_PolicingMSA/CA_2994/IMG_14_2994.jpg""]","7","","","","","","1","","4","[""./rc_img/cop_condGroup_19_SafeStreets_autoscaled.png"",""./rc_img/cop_condGroup_19_CommunitySafety_autoscaled.png""]","1","",""
"sliderTrial","html-slider-response","70","532675","0.0-70.0","","656776a7904ae00d6b91d1dd","6568aa238fb544e29e95386f","13","","","","","","","","","","","","2776","[""SV_PolicingMSA/CA_2994/IMG_7_2994.jpg"",""SV_PolicingMSA/CA_2994/IMG_10_2994.jpg"",""SV_PolicingMSA/CA_2994/IMG_1_2994.jpg"",""SV_PolicingMSA/CA_2994/IMG_11_2994.jpg"",""SV_PolicingMSA/CA_2994/IMG_0_2994.jpg"",""SV_PolicingMSA/CA_2994/IMG_12_2994.jpg"",""SV_PolicingMSA/CA_2994/IMG_9_2994.jpg"",""SV_PolicingMSA/CA_2994/IMG_14_2994.jpg""]","1","","","","","","1","","4","[""./rc_img/cop_condGroup_18_CommunitySafety_autoscaled.png"",""./rc_img/cop_condGroup_18_SafeStreets_autoscaled.png""]","1","",""
"sliderTrial","html-slider-response","71","536550","0.0-71.0","","656776a7904ae00d6b91d1dd","6568aa238fb544e29e95386f","13","","","","","","","","","","","","3874","[""SV_PolicingMSA/CA_2994/IMG_7_2994.jpg"",""SV_PolicingMSA/CA_2994/IMG_10_2994.jpg"",""SV_PolicingMSA/CA_2994/IMG_1_2994.jpg"",""SV_PolicingMSA/CA_2994/IMG_11_2994.jpg"",""SV_PolicingMSA/CA_2994/IMG_0_2994.jpg"",""SV_PolicingMSA/CA_2994/IMG_12_2994.jpg"",""SV_PolicingMSA/CA_2994/IMG_9_2994.jpg"",""SV_PolicingMSA/CA_2994/IMG_14_2994.jpg""]","1","","","","","","1","","4","[""./rc_img/cop_condGroup_9_CommunitySafety_autoscaled.png"",""./rc_img/cop_condGroup_9_SafeStreets_autoscaled.png""]","1","",""
"sliderTrial","html-slider-response","72","539503","0.0-72.0","","656776a7904ae00d6b91d1dd","6568aa238fb544e29e95386f","13","","","","","","","","","","","","2951","[""SV_PolicingMSA/CA_2994/IMG_7_2994.jpg"",""SV_PolicingMSA/CA_2994/IMG_10_2994.jpg"",""SV_PolicingMSA/CA_2994/IMG_1_2994.jpg"",""SV_PolicingMSA/CA_2994/IMG_11_2994.jpg"",""SV_PolicingMSA/CA_2994/IMG_0_2994.jpg"",""SV_PolicingMSA/CA_2994/IMG_12_2994.jpg"",""SV_PolicingMSA/CA_2994/IMG_9_2994.jpg"",""SV_PolicingMSA/CA_2994/IMG_14_2994.jpg""]","1","","","","","","1","","4","[""./rc_img/cop_condGroup_17_CommunitySafety_autoscaled.png"",""./rc_img/cop_condGroup_17_SafeStreets_autoscaled.png""]","1","",""
"sliderTrial_attention","html-slider-response","73","549506","0.0-73.0","","656776a7904ae00d6b91d1dd","6568aa238fb544e29e95386f","13","","","","","","","","","","","","null","[""SV_PolicingMSA/CA_2994/IMG_7_2994.jpg"",""SV_PolicingMSA/CA_2994/IMG_10_2994.jpg"",""SV_PolicingMSA/CA_2994/IMG_1_2994.jpg"",""SV_PolicingMSA/CA_2994/IMG_11_2994.jpg"",""SV_PolicingMSA/CA_2994/IMG_0_2994.jpg"",""SV_PolicingMSA/CA_2994/IMG_12_2994.jpg"",""SV_PolicingMSA/CA_2994/IMG_9_2994.jpg"",""SV_PolicingMSA/CA_2994/IMG_14_2994.jpg""]","null","","","","","","1","","4","[""./assets/img/attnchk.png"",""./assets/img/attnchk.png""]","","true",""
"sliderTrial","html-slider-response","74","554872","0.0-74.0","","656776a7904ae00d6b91d1dd","6568aa238fb544e29e95386f","13","","","","","","","","","","","","5364","[""SV_PolicingMSA/CA_2994/IMG_7_2994.jpg"",""SV_PolicingMSA/CA_2994/IMG_10_2994.jpg"",""SV_PolicingMSA/CA_2994/IMG_1_2994.jpg"",""SV_PolicingMSA/CA_2994/IMG_11_2994.jpg"",""SV_PolicingMSA/CA_2994/IMG_0_2994.jpg"",""SV_PolicingMSA/CA_2994/IMG_12_2994.jpg"",""SV_PolicingMSA/CA_2994/IMG_9_2994.jpg"",""SV_PolicingMSA/CA_2994/IMG_14_2994.jpg""]","7","","","","","","1","","4","[""./rc_img/cop_condGroup_15_SafeStreets_autoscaled.png"",""./rc_img/cop_condGroup_15_CommunitySafety_autoscaled.png""]","1","",""
"half-way","html-button-response","75","570627","0.0-75.0","","656776a7904ae00d6b91d1dd","6568aa238fb544e29e95386f","13","","","","","","","","","","","","null","
    <h3>You are now half way through the study.</h3>
    <p>Please take a quick, 15-second break before you continue.</p>
    <img src='assets/img/countdown-15.gif'>
    <p>The study will automatically advance forward after the countdown is complete. <br> However, you may click ""Next"" to advance forward now if you wish.</p>
    ","null","","","","","","","","","","","",""
"before_SVSlide_prompt","html-button-response","76","576747","0.0-76.0","","656776a7904ae00d6b91d1dd","6568aa238fb544e29e95386f","13","","","","","","","","","","","","6119","Click [Next] to see the next neighborhood!","0","","","","","","","","","","","",""
"street view slide show","image-button-response","77","577748","0.0-77.0","","656776a7904ae00d6b91d1dd","6568aa238fb544e29e95386f","13","","","","","","","","","","","","null","stimulus/SV_PolicingMSA/CA_3476/IMG_12_3476.jpg","null","","","","","","2","","","","","",""
"street view slide show","image-button-response","78","578753","0.0-78.0","","656776a7904ae00d6b91d1dd","6568aa238fb544e29e95386f","13","","","","","","","","","","","","null","stimulus/SV_PolicingMSA/CA_3476/IMG_2_3476.jpg","null","","","","","","2","","","","","",""
"street view slide show","image-button-response","79","579759","0.0-79.0","","656776a7904ae00d6b91d1dd","6568aa238fb544e29e95386f","13","","","","","","","","","","","","null","stimulus/SV_PolicingMSA/CA_3476/IMG_7_3476.jpg","null","","","","","","2","","","","","",""
"street view slide show","image-button-response","80","580760","0.0-80.0","","656776a7904ae00d6b91d1dd","6568aa238fb544e29e95386f","13","","","","","","","","","","","","null","stimulus/SV_PolicingMSA/CA_3476/IMG_14_3476.jpg","null","","","","","","2","","","","","",""
"street view slide show","image-button-response","81","581766","0.0-81.0","","656776a7904ae00d6b91d1dd","6568aa238fb544e29e95386f","13","","","","","","","","","","","","null","stimulus/SV_PolicingMSA/CA_3476/IMG_1_3476.jpg","null","","","","","","2","","","","","",""
"street view slide show","image-button-response","82","582767","0.0-82.0","","656776a7904ae00d6b91d1dd","6568aa238fb544e29e95386f","13","","","","","","","","","","","","null","stimulus/SV_PolicingMSA/CA_3476/IMG_8_3476.jpg","null","","","","","","2","","","","","",""
"street view slide show","image-button-response","83","583773","0.0-83.0","","656776a7904ae00d6b91d1dd","6568aa238fb544e29e95386f","13","","","","","","","","","","","","null","stimulus/SV_PolicingMSA/CA_3476/IMG_10_3476.jpg","null","","","","","","2","","","","","",""
"street view slide show","image-button-response","84","584774","0.0-84.0","","656776a7904ae00d6b91d1dd","6568aa238fb544e29e95386f","13","","","","","","","","","","","","null","stimulus/SV_PolicingMSA/CA_3476/IMG_3_3476.jpg","null","","","","","","2","","","","","",""
"dot matrix survey1","survey","85","610313","0.0-85.0","","656776a7904ae00d6b91d1dd","6568aa238fb544e29e95386f","13","","","","","","","","","","","","25557","","{""P0_Q0"":null,""P0_Q1"":{""wealthy"":4,""safe"":4,""walkable"":3,""traditional"":3,""diverse"":1}}","","","","","","2","[]","","","","",""
"dot matrix survey2","survey","86","617335","0.0-86.0","","656776a7904ae00d6b91d1dd","6568aa238fb544e29e95386f","13","","","","","","","","","","","","7019","","{""P0_Q0"":null,""P0_Q1"":{""violence"":0,""crime"":0,""drug"":0,""schools"":4,""opportunities"":4}}","","","","","","2","[]","","","","",""
"dot matrix survey3","survey","87","630858","0.0-87.0","","656776a7904ae00d6b91d1dd","6568aa238fb544e29e95386f","13","","","","","","","","","","","","13522","","{""P0_Q0"":null,""P0_Q1"":{""movein"":3,""moveout"":1,""shopping"":4,""walk"":0,""park"":4,""school"":4}}","","","","","","2","[]","","","","",""
"sliderTrial","html-slider-response","88","635691","0.0-88.0","","656776a7904ae00d6b91d1dd","6568aa238fb544e29e95386f","13","","","","","","","","","","","","4832","[""SV_PolicingMSA/CA_3476/IMG_12_3476.jpg"",""SV_PolicingMSA/CA_3476/IMG_2_3476.jpg"",""SV_PolicingMSA/CA_3476/IMG_7_3476.jpg"",""SV_PolicingMSA/CA_3476/IMG_14_3476.jpg"",""SV_PolicingMSA/CA_3476/IMG_1_3476.jpg"",""SV_PolicingMSA/CA_3476/IMG_8_3476.jpg"",""SV_PolicingMSA/CA_3476/IMG_10_3476.jpg"",""SV_PolicingMSA/CA_3476/IMG_3_3476.jpg""]","7","","","","","","2","","4","[""./rc_img/cop_condGroup_16_SafeStreets_autoscaled.png"",""./rc_img/cop_condGroup_16_CommunitySafety_autoscaled.png""]","1","",""
"sliderTrial","html-slider-response","89","639751","0.0-89.0","","656776a7904ae00d6b91d1dd","6568aa238fb544e29e95386f","13","","","","","","","","","","","","4058","[""SV_PolicingMSA/CA_3476/IMG_12_3476.jpg"",""SV_PolicingMSA/CA_3476/IMG_2_3476.jpg"",""SV_PolicingMSA/CA_3476/IMG_7_3476.jpg"",""SV_PolicingMSA/CA_3476/IMG_14_3476.jpg"",""SV_PolicingMSA/CA_3476/IMG_1_3476.jpg"",""SV_PolicingMSA/CA_3476/IMG_8_3476.jpg"",""SV_PolicingMSA/CA_3476/IMG_10_3476.jpg"",""SV_PolicingMSA/CA_3476/IMG_3_3476.jpg""]","1","","","","","","2","","4","[""./rc_img/cop_condGroup_6_CommunitySafety_autoscaled.png"",""./rc_img/cop_condGroup_6_SafeStreets_autoscaled.png""]","1","",""
"sliderTrial","html-slider-response","90","642852","0.0-90.0","","656776a7904ae00d6b91d1dd","6568aa238fb544e29e95386f","13","","","","","","","","","","","","3100","[""SV_PolicingMSA/CA_3476/IMG_12_3476.jpg"",""SV_PolicingMSA/CA_3476/IMG_2_3476.jpg"",""SV_PolicingMSA/CA_3476/IMG_7_3476.jpg"",""SV_PolicingMSA/CA_3476/IMG_14_3476.jpg"",""SV_PolicingMSA/CA_3476/IMG_1_3476.jpg"",""SV_PolicingMSA/CA_3476/IMG_8_3476.jpg"",""SV_PolicingMSA/CA_3476/IMG_10_3476.jpg"",""SV_PolicingMSA/CA_3476/IMG_3_3476.jpg""]","1","","","","","","2","","4","[""./rc_img/cop_condGroup_7_CommunitySafety_autoscaled.png"",""./rc_img/cop_condGroup_7_SafeStreets_autoscaled.png""]","1","",""
"sliderTrial","html-slider-response","91","646072","0.0-91.0","","656776a7904ae00d6b91d1dd","6568aa238fb544e29e95386f","13","","","","","","","","","","","","3218","[""SV_PolicingMSA/CA_3476/IMG_12_3476.jpg"",""SV_PolicingMSA/CA_3476/IMG_2_3476.jpg"",""SV_PolicingMSA/CA_3476/IMG_7_3476.jpg"",""SV_PolicingMSA/CA_3476/IMG_14_3476.jpg"",""SV_PolicingMSA/CA_3476/IMG_1_3476.jpg"",""SV_PolicingMSA/CA_3476/IMG_8_3476.jpg"",""SV_PolicingMSA/CA_3476/IMG_10_3476.jpg"",""SV_PolicingMSA/CA_3476/IMG_3_3476.jpg""]","1","","","","","","2","","4","[""./rc_img/cop_condGroup_1_CommunitySafety_autoscaled.png"",""./rc_img/cop_condGroup_1_SafeStreets_autoscaled.png""]","1","",""
"sliderTrial","html-slider-response","92","648852","0.0-92.0","","656776a7904ae00d6b91d1dd","6568aa238fb544e29e95386f","13","","","","","","","","","","","","2778","[""SV_PolicingMSA/CA_3476/IMG_12_3476.jpg"",""SV_PolicingMSA/CA_3476/IMG_2_3476.jpg"",""SV_PolicingMSA/CA_3476/IMG_7_3476.jpg"",""SV_PolicingMSA/CA_3476/IMG_14_3476.jpg"",""SV_PolicingMSA/CA_3476/IMG_1_3476.jpg"",""SV_PolicingMSA/CA_3476/IMG_8_3476.jpg"",""SV_PolicingMSA/CA_3476/IMG_10_3476.jpg"",""SV_PolicingMSA/CA_3476/IMG_3_3476.jpg""]","7","","","","","","2","","4","[""./rc_img/cop_condGroup_13_SafeStreets_autoscaled.png"",""./rc_img/cop_condGroup_13_CommunitySafety_autoscaled.png""]","1","",""
"before_SVSlide_prompt","html-button-response","93","665695","0.0-93.0","","656776a7904ae00d6b91d1dd","6568aa238fb544e29e95386f","13","","","","","","","","","","","","16843","Click [Next] to see the next neighborhood!","0","","","","","","","","","","","",""
"street view slide show","image-button-response","94","666697","0.0-94.0","","656776a7904ae00d6b91d1dd","6568aa238fb544e29e95386f","13","","","","","","","","","","","","null","stimulus/SV_PolicingMSA/CA_5812/IMG_7_5812.jpg","null","","","","","","3","","","","","",""
"street view slide show","image-button-response","95","667702","0.0-95.0","","656776a7904ae00d6b91d1dd","6568aa238fb544e29e95386f","13","","","","","","","","","","","","null","stimulus/SV_PolicingMSA/CA_5812/IMG_2_5812.jpg","null","","","","","","3","","","","","",""
"street view slide show","image-button-response","96","668707","0.0-96.0","","656776a7904ae00d6b91d1dd","6568aa238fb544e29e95386f","13","","","","","","","","","","","","null","stimulus/SV_PolicingMSA/CA_5812/IMG_1_5812.jpg","null","","","","","","3","","","","","",""
"street view slide show","image-button-response","97","669710","0.0-97.0","","656776a7904ae00d6b91d1dd","6568aa238fb544e29e95386f","13","","","","","","","","","","","","null","stimulus/SV_PolicingMSA/CA_5812/IMG_4_5812.jpg","null","","","","","","3","","","","","",""
"street view slide show","image-button-response","98","670715","0.0-98.0","","656776a7904ae00d6b91d1dd","6568aa238fb544e29e95386f","13","","","","","","","","","","","","null","stimulus/SV_PolicingMSA/CA_5812/IMG_5_5812.jpg","null","","","","","","3","","","","","",""
"street view slide show","image-button-response","99","671718","0.0-99.0","","656776a7904ae00d6b91d1dd","6568aa238fb544e29e95386f","13","","","","","","","","","","","","null","stimulus/SV_PolicingMSA/CA_5812/IMG_9_5812.jpg","null","","","","","","3","","","","","",""
"street view slide show","image-button-response","100","672724","0.0-100.0","","656776a7904ae00d6b91d1dd","6568aa238fb544e29e95386f","13","","","","","","","","","","","","null","stimulus/SV_PolicingMSA/CA_5812/IMG_14_5812.jpg","null","","","","","","3","","","","","",""
"street view slide show","image-button-response","101","673725","0.0-101.0","","656776a7904ae00d6b91d1dd","6568aa238fb544e29e95386f","13","","","","","","","","","","","","null","stimulus/SV_PolicingMSA/CA_5812/IMG_11_5812.jpg","null","","","","","","3","","","","","",""
"dot matrix survey1","survey","102","699773","0.0-102.0","","656776a7904ae00d6b91d1dd","6568aa238fb544e29e95386f","13","","","","","","","","","","","","26040","","{""P0_Q0"":null,""P0_Q1"":{""wealthy"":3,""safe"":3,""walkable"":1,""traditional"":3,""diverse"":2}}","","","","","","3","[]","","","","",""
"dot matrix survey2","survey","103","717462","0.0-103.0","","656776a7904ae00d6b91d1dd","6568aa238fb544e29e95386f","13","","","","","","","","","","","","17683","","{""P0_Q0"":null,""P0_Q1"":{""violence"":1,""crime"":2,""drug"":2,""schools"":2,""opportunities"":2}}","","","","","","3","[]","","","","",""
"dot matrix survey3","survey","104","741152","0.0-104.0","","656776a7904ae00d6b91d1dd","6568aa238fb544e29e95386f","13","","","","","","","","","","","","23685","","{""P0_Q0"":null,""P0_Q1"":{""movein"":2,""moveout"":2,""shopping"":3,""walk"":0,""park"":2,""school"":3}}","","","","","","3","[]","","","","",""
"sliderTrial","html-slider-response","105","745182","0.0-105.0","","656776a7904ae00d6b91d1dd","6568aa238fb544e29e95386f","13","","","","","","","","","","","","4028","[""SV_PolicingMSA/CA_5812/IMG_7_5812.jpg"",""SV_PolicingMSA/CA_5812/IMG_2_5812.jpg"",""SV_PolicingMSA/CA_5812/IMG_1_5812.jpg"",""SV_PolicingMSA/CA_5812/IMG_4_5812.jpg"",""SV_PolicingMSA/CA_5812/IMG_5_5812.jpg"",""SV_PolicingMSA/CA_5812/IMG_9_5812.jpg"",""SV_PolicingMSA/CA_5812/IMG_14_5812.jpg"",""SV_PolicingMSA/CA_5812/IMG_11_5812.jpg""]","6","","","","","","3","","4","[""./rc_img/cop_condGroup_2_SafeStreets_autoscaled.png"",""./rc_img/cop_condGroup_2_CommunitySafety_autoscaled.png""]","2","",""
"sliderTrial","html-slider-response","106","749178","0.0-106.0","","656776a7904ae00d6b91d1dd","6568aa238fb544e29e95386f","13","","","","","","","","","","","","3994","[""SV_PolicingMSA/CA_5812/IMG_7_5812.jpg"",""SV_PolicingMSA/CA_5812/IMG_2_5812.jpg"",""SV_PolicingMSA/CA_5812/IMG_1_5812.jpg"",""SV_PolicingMSA/CA_5812/IMG_4_5812.jpg"",""SV_PolicingMSA/CA_5812/IMG_5_5812.jpg"",""SV_PolicingMSA/CA_5812/IMG_9_5812.jpg"",""SV_PolicingMSA/CA_5812/IMG_14_5812.jpg"",""SV_PolicingMSA/CA_5812/IMG_11_5812.jpg""]","3","","","","","","3","","4","[""./rc_img/cop_condGroup_3_CommunitySafety_autoscaled.png"",""./rc_img/cop_condGroup_3_SafeStreets_autoscaled.png""]","3","",""
"sliderTrial","html-slider-response","107","751920","0.0-107.0","","656776a7904ae00d6b91d1dd","6568aa238fb544e29e95386f","13","","","","","","","","","","","","2740","[""SV_PolicingMSA/CA_5812/IMG_7_5812.jpg"",""SV_PolicingMSA/CA_5812/IMG_2_5812.jpg"",""SV_PolicingMSA/CA_5812/IMG_1_5812.jpg"",""SV_PolicingMSA/CA_5812/IMG_4_5812.jpg"",""SV_PolicingMSA/CA_5812/IMG_5_5812.jpg"",""SV_PolicingMSA/CA_5812/IMG_9_5812.jpg"",""SV_PolicingMSA/CA_5812/IMG_14_5812.jpg"",""SV_PolicingMSA/CA_5812/IMG_11_5812.jpg""]","2","","","","","","3","","4","[""./rc_img/cop_condGroup_4_CommunitySafety_autoscaled.png"",""./rc_img/cop_condGroup_4_SafeStreets_autoscaled.png""]","2","",""
"sliderTrial","html-slider-response","108","754472","0.0-108.0","","656776a7904ae00d6b91d1dd","6568aa238fb544e29e95386f","13","","","","","","","","","","","","2550","[""SV_PolicingMSA/CA_5812/IMG_7_5812.jpg"",""SV_PolicingMSA/CA_5812/IMG_2_5812.jpg"",""SV_PolicingMSA/CA_5812/IMG_1_5812.jpg"",""SV_PolicingMSA/CA_5812/IMG_4_5812.jpg"",""SV_PolicingMSA/CA_5812/IMG_5_5812.jpg"",""SV_PolicingMSA/CA_5812/IMG_9_5812.jpg"",""SV_PolicingMSA/CA_5812/IMG_14_5812.jpg"",""SV_PolicingMSA/CA_5812/IMG_11_5812.jpg""]","6","","","","","","3","","4","[""./rc_img/cop_condGroup_8_SafeStreets_autoscaled.png"",""./rc_img/cop_condGroup_8_CommunitySafety_autoscaled.png""]","2","",""
"sliderTrial","html-slider-response","109","757838","0.0-109.0","","656776a7904ae00d6b91d1dd","6568aa238fb544e29e95386f","13","","","","","","","","","","","","3364","[""SV_PolicingMSA/CA_5812/IMG_7_5812.jpg"",""SV_PolicingMSA/CA_5812/IMG_2_5812.jpg"",""SV_PolicingMSA/CA_5812/IMG_1_5812.jpg"",""SV_PolicingMSA/CA_5812/IMG_4_5812.jpg"",""SV_PolicingMSA/CA_5812/IMG_5_5812.jpg"",""SV_PolicingMSA/CA_5812/IMG_9_5812.jpg"",""SV_PolicingMSA/CA_5812/IMG_14_5812.jpg"",""SV_PolicingMSA/CA_5812/IMG_11_5812.jpg""]","3","","","","","","3","","4","[""./rc_img/cop_condGroup_11_CommunitySafety_autoscaled.png"",""./rc_img/cop_condGroup_11_SafeStreets_autoscaled.png""]","3","",""
"before_SVSlide_prompt","html-button-response","110","761152","0.0-110.0","","656776a7904ae00d6b91d1dd","6568aa238fb544e29e95386f","13","","","","","","","","","","","","3313","Click [Next] to see the next neighborhood!","0","","","","","","","","","","","",""
"street view slide show","image-button-response","111","762155","0.0-111.0","","656776a7904ae00d6b91d1dd","6568aa238fb544e29e95386f","13","","","","","","","","","","","","null","stimulus/SV_PolicingMSA/CA_5476/IMG_3_5476.jpg","null","","","","","","5","","","","","",""
"street view slide show","image-button-response","112","763157","0.0-112.0","","656776a7904ae00d6b91d1dd","6568aa238fb544e29e95386f","13","","","","","","","","","","","","null","stimulus/SV_PolicingMSA/CA_5476/IMG_0_5476.jpg","null","","","","","","5","","","","","",""
"street view slide show","image-button-response","113","764162","0.0-113.0","","656776a7904ae00d6b91d1dd","6568aa238fb544e29e95386f","13","","","","","","","","","","","","null","stimulus/SV_PolicingMSA/CA_5476/IMG_9_5476.jpg","null","","","","","","5","","","","","",""
"street view slide show","image-button-response","114","765165","0.0-114.0","","656776a7904ae00d6b91d1dd","6568aa238fb544e29e95386f","13","","","","","","","","","","","","null","stimulus/SV_PolicingMSA/CA_5476/IMG_7_5476.jpg","null","","","","","","5","","","","","",""
"street view slide show","image-button-response","115","766171","0.0-115.0","","656776a7904ae00d6b91d1dd","6568aa238fb544e29e95386f","13","","","","","","","","","","","","null","stimulus/SV_PolicingMSA/CA_5476/IMG_11_5476.jpg","null","","","","","","5","","","","","",""
"street view slide show","image-button-response","116","767172","0.0-116.0","","656776a7904ae00d6b91d1dd","6568aa238fb544e29e95386f","13","","","","","","","","","","","","null","stimulus/SV_PolicingMSA/CA_5476/IMG_8_5476.jpg","null","","","","","","5","","","","","",""
"street view slide show","image-button-response","117","768177","0.0-117.0","","656776a7904ae00d6b91d1dd","6568aa238fb544e29e95386f","13","","","","","","","","","","","","null","stimulus/SV_PolicingMSA/CA_5476/IMG_14_5476.jpg","null","","","","","","5","","","","","",""
"street view slide show","image-button-response","118","769180","0.0-118.0","","656776a7904ae00d6b91d1dd","6568aa238fb544e29e95386f","13","","","","","","","","","","","","null","stimulus/SV_PolicingMSA/CA_5476/IMG_6_5476.jpg","null","","","","","","5","","","","","",""
"dot matrix survey1","survey","119","790374","0.0-119.0","","656776a7904ae00d6b91d1dd","6568aa238fb544e29e95386f","13","","","","","","","","","","","","21183","","{""P0_Q0"":null,""P0_Q1"":{""wealthy"":4,""safe"":4,""walkable"":2,""traditional"":4,""diverse"":0}}","","","","","","5","[]","","","","",""
"dot matrix survey2","survey","120","798937","0.0-120.0","","656776a7904ae00d6b91d1dd","6568aa238fb544e29e95386f","13","","","","","","","","","","","","8556","","{""P0_Q0"":null,""P0_Q1"":{""violence"":0,""crime"":0,""drug"":0,""schools"":4,""opportunities"":4}}","","","","","","5","[]","","","","",""
"dot matrix survey3","survey","121","816952","0.0-121.0","","656776a7904ae00d6b91d1dd","6568aa238fb544e29e95386f","13","","","","","","","","","","","","18010","","{""P0_Q0"":null,""P0_Q1"":{""movein"":4,""moveout"":0,""shopping"":4,""walk"":0,""park"":4,""school"":4}}","","","","","","5","[]","","","","",""
"sliderTrial","html-slider-response","122","820350","0.0-122.0","","656776a7904ae00d6b91d1dd","6568aa238fb544e29e95386f","13","","","","","","","","","","","","3396","[""SV_PolicingMSA/CA_5476/IMG_3_5476.jpg"",""SV_PolicingMSA/CA_5476/IMG_0_5476.jpg"",""SV_PolicingMSA/CA_5476/IMG_9_5476.jpg"",""SV_PolicingMSA/CA_5476/IMG_7_5476.jpg"",""SV_PolicingMSA/CA_5476/IMG_11_5476.jpg"",""SV_PolicingMSA/CA_5476/IMG_8_5476.jpg"",""SV_PolicingMSA/CA_5476/IMG_14_5476.jpg"",""SV_PolicingMSA/CA_5476/IMG_6_5476.jpg""]","7","","","","","","5","","4","[""./rc_img/cop_condGroup_2_SafeStreets_autoscaled.png"",""./rc_img/cop_condGroup_2_CommunitySafety_autoscaled.png""]","1","",""
"sliderTrial","html-slider-response","123","822966","0.0-123.0","","656776a7904ae00d6b91d1dd","6568aa238fb544e29e95386f","13","","","","","","","","","","","","2614","[""SV_PolicingMSA/CA_5476/IMG_3_5476.jpg"",""SV_PolicingMSA/CA_5476/IMG_0_5476.jpg"",""SV_PolicingMSA/CA_5476/IMG_9_5476.jpg"",""SV_PolicingMSA/CA_5476/IMG_7_5476.jpg"",""SV_PolicingMSA/CA_5476/IMG_11_5476.jpg"",""SV_PolicingMSA/CA_5476/IMG_8_5476.jpg"",""SV_PolicingMSA/CA_5476/IMG_14_5476.jpg"",""SV_PolicingMSA/CA_5476/IMG_6_5476.jpg""]","1","","","","","","5","","4","[""./rc_img/cop_condGroup_3_CommunitySafety_autoscaled.png"",""./rc_img/cop_condGroup_3_SafeStreets_autoscaled.png""]","1","",""
"sliderTrial","html-slider-response","124","825794","0.0-124.0","","656776a7904ae00d6b91d1dd","6568aa238fb544e29e95386f","13","","","","","","","","","","","","2826","[""SV_PolicingMSA/CA_5476/IMG_3_5476.jpg"",""SV_PolicingMSA/CA_5476/IMG_0_5476.jpg"",""SV_PolicingMSA/CA_5476/IMG_9_5476.jpg"",""SV_PolicingMSA/CA_5476/IMG_7_5476.jpg"",""SV_PolicingMSA/CA_5476/IMG_11_5476.jpg"",""SV_PolicingMSA/CA_5476/IMG_8_5476.jpg"",""SV_PolicingMSA/CA_5476/IMG_14_5476.jpg"",""SV_PolicingMSA/CA_5476/IMG_6_5476.jpg""]","1","","","","","","5","","4","[""./rc_img/cop_condGroup_4_CommunitySafety_autoscaled.png"",""./rc_img/cop_condGroup_4_SafeStreets_autoscaled.png""]","1","",""
"sliderTrial","html-slider-response","125","828252","0.0-125.0","","656776a7904ae00d6b91d1dd","6568aa238fb544e29e95386f","13","","","","","","","","","","","","2456","[""SV_PolicingMSA/CA_5476/IMG_3_5476.jpg"",""SV_PolicingMSA/CA_5476/IMG_0_5476.jpg"",""SV_PolicingMSA/CA_5476/IMG_9_5476.jpg"",""SV_PolicingMSA/CA_5476/IMG_7_5476.jpg"",""SV_PolicingMSA/CA_5476/IMG_11_5476.jpg"",""SV_PolicingMSA/CA_5476/IMG_8_5476.jpg"",""SV_PolicingMSA/CA_5476/IMG_14_5476.jpg"",""SV_PolicingMSA/CA_5476/IMG_6_5476.jpg""]","7","","","","","","5","","4","[""./rc_img/cop_condGroup_8_SafeStreets_autoscaled.png"",""./rc_img/cop_condGroup_8_CommunitySafety_autoscaled.png""]","1","",""
"sliderTrial","html-slider-response","126","831080","0.0-126.0","","656776a7904ae00d6b91d1dd","6568aa238fb544e29e95386f","13","","","","","","","","","","","","2826","[""SV_PolicingMSA/CA_5476/IMG_3_5476.jpg"",""SV_PolicingMSA/CA_5476/IMG_0_5476.jpg"",""SV_PolicingMSA/CA_5476/IMG_9_5476.jpg"",""SV_PolicingMSA/CA_5476/IMG_7_5476.jpg"",""SV_PolicingMSA/CA_5476/IMG_11_5476.jpg"",""SV_PolicingMSA/CA_5476/IMG_8_5476.jpg"",""SV_PolicingMSA/CA_5476/IMG_14_5476.jpg"",""SV_PolicingMSA/CA_5476/IMG_6_5476.jpg""]","1","","","","","","5","","4","[""./rc_img/cop_condGroup_11_CommunitySafety_autoscaled.png"",""./rc_img/cop_condGroup_11_SafeStreets_autoscaled.png""]","1","",""
"before_SVSlide_prompt","html-button-response","127","854431","0.0-127.0","","656776a7904ae00d6b91d1dd","6568aa238fb544e29e95386f","13","","","","","","","","","","","","23351","Click [Next] to see the next neighborhood!","0","","","","","","","","","","","",""
"street view slide show","image-button-response","128","855434","0.0-128.0","","656776a7904ae00d6b91d1dd","6568aa238fb544e29e95386f","13","","","","","","","","","","","","null","stimulus/SV_PolicingMSA/CA_7077/IMG_3_7077.jpg","null","","","","","","0","","","","","",""
"street view slide show","image-button-response","129","856438","0.0-129.0","","656776a7904ae00d6b91d1dd","6568aa238fb544e29e95386f","13","","","","","","","","","","","","null","stimulus/SV_PolicingMSA/CA_7077/IMG_1_7077.jpg","null","","","","","","0","","","","","",""
"street view slide show","image-button-response","130","857444","0.0-130.0","","656776a7904ae00d6b91d1dd","6568aa238fb544e29e95386f","13","","","","","","","","","","","","null","stimulus/SV_PolicingMSA/CA_7077/IMG_13_7077.jpg","null","","","","","","0","","","","","",""
"street view slide show","image-button-response","131","858445","0.0-131.0","","656776a7904ae00d6b91d1dd","6568aa238fb544e29e95386f","13","","","","","","","","","","","","null","stimulus/SV_PolicingMSA/CA_7077/IMG_12_7077.jpg","null","","","","","","0","","","","","",""
"street view slide show","image-button-response","132","859451","0.0-132.0","","656776a7904ae00d6b91d1dd","6568aa238fb544e29e95386f","13","","","","","","","","","","","","null","stimulus/SV_PolicingMSA/CA_7077/IMG_2_7077.jpg","null","","","","","","0","","","","","",""
"street view slide show","image-button-response","133","860452","0.0-133.0","","656776a7904ae00d6b91d1dd","6568aa238fb544e29e95386f","13","","","","","","","","","","","","null","stimulus/SV_PolicingMSA/CA_7077/IMG_14_7077.jpg","null","","","","","","0","","","","","",""
"street view slide show","image-button-response","134","861457","0.0-134.0","","656776a7904ae00d6b91d1dd","6568aa238fb544e29e95386f","13","","","","","","","","","","","","null","stimulus/SV_PolicingMSA/CA_7077/IMG_8_7077.jpg","null","","","","","","0","","","","","",""
"street view slide show","image-button-response","135","862460","0.0-135.0","","656776a7904ae00d6b91d1dd","6568aa238fb544e29e95386f","13","","","","","","","","","","","","null","stimulus/SV_PolicingMSA/CA_7077/IMG_6_7077.jpg","null","","","","","","0","","","","","",""
"dot matrix survey1","survey","136","893477","0.0-136.0","","656776a7904ae00d6b91d1dd","6568aa238fb544e29e95386f","13","","","","","","","","","","","","31009","","{""P0_Q0"":null,""P0_Q1"":{""wealthy"":2,""safe"":2,""walkable"":2,""traditional"":1,""diverse"":3}}","","","","","","0","[]","","","","",""
"dot matrix survey2","survey","137","909531","0.0-137.0","","656776a7904ae00d6b91d1dd","6568aa238fb544e29e95386f","13","","","","","","","","","","","","16050","","{""P0_Q0"":null,""P0_Q1"":{""violence"":1,""crime"":2,""drug"":1,""schools"":2,""opportunities"":2}}","","","","","","0","[]","","","","",""
"dot matrix survey3","survey","138","933852","0.0-138.0","","656776a7904ae00d6b91d1dd","6568aa238fb544e29e95386f","13","","","","","","","","","","","","24314","","{""P0_Q0"":null,""P0_Q1"":{""movein"":1,""moveout"":2,""shopping"":2,""walk"":0,""park"":1,""school"":2}}","","","","","","0","[]","","","","",""
"sliderTrial","html-slider-response","139","941381","0.0-139.0","","656776a7904ae00d6b91d1dd","6568aa238fb544e29e95386f","13","","","","","","","","","","","","7528","[""SV_PolicingMSA/CA_7077/IMG_3_7077.jpg"",""SV_PolicingMSA/CA_7077/IMG_1_7077.jpg"",""SV_PolicingMSA/CA_7077/IMG_13_7077.jpg"",""SV_PolicingMSA/CA_7077/IMG_12_7077.jpg"",""SV_PolicingMSA/CA_7077/IMG_2_7077.jpg"",""SV_PolicingMSA/CA_7077/IMG_14_7077.jpg"",""SV_PolicingMSA/CA_7077/IMG_8_7077.jpg"",""SV_PolicingMSA/CA_7077/IMG_6_7077.jpg""]","6","","","","","","0","","4","[""./rc_img/cop_condGroup_16_SafeStreets_autoscaled.png"",""./rc_img/cop_condGroup_16_CommunitySafety_autoscaled.png""]","2","",""
"sliderTrial","html-slider-response","140","945732","0.0-140.0","","656776a7904ae00d6b91d1dd","6568aa238fb544e29e95386f","13","","","","","","","","","","","","4350","[""SV_PolicingMSA/CA_7077/IMG_3_7077.jpg"",""SV_PolicingMSA/CA_7077/IMG_1_7077.jpg"",""SV_PolicingMSA/CA_7077/IMG_13_7077.jpg"",""SV_PolicingMSA/CA_7077/IMG_12_7077.jpg"",""SV_PolicingMSA/CA_7077/IMG_2_7077.jpg"",""SV_PolicingMSA/CA_7077/IMG_14_7077.jpg"",""SV_PolicingMSA/CA_7077/IMG_8_7077.jpg"",""SV_PolicingMSA/CA_7077/IMG_6_7077.jpg""]","3","","","","","","0","","4","[""./rc_img/cop_condGroup_6_CommunitySafety_autoscaled.png"",""./rc_img/cop_condGroup_6_SafeStreets_autoscaled.png""]","3","",""
"sliderTrial","html-slider-response","141","948584","0.0-141.0","","656776a7904ae00d6b91d1dd","6568aa238fb544e29e95386f","13","","","","","","","","","","","","2850","[""SV_PolicingMSA/CA_7077/IMG_3_7077.jpg"",""SV_PolicingMSA/CA_7077/IMG_1_7077.jpg"",""SV_PolicingMSA/CA_7077/IMG_13_7077.jpg"",""SV_PolicingMSA/CA_7077/IMG_12_7077.jpg"",""SV_PolicingMSA/CA_7077/IMG_2_7077.jpg"",""SV_PolicingMSA/CA_7077/IMG_14_7077.jpg"",""SV_PolicingMSA/CA_7077/IMG_8_7077.jpg"",""SV_PolicingMSA/CA_7077/IMG_6_7077.jpg""]","3","","","","","","0","","4","[""./rc_img/cop_condGroup_7_CommunitySafety_autoscaled.png"",""./rc_img/cop_condGroup_7_SafeStreets_autoscaled.png""]","3","",""
"sliderTrial","html-slider-response","142","951016","0.0-142.0","","656776a7904ae00d6b91d1dd","6568aa238fb544e29e95386f","13","","","","","","","","","","","","2430","[""SV_PolicingMSA/CA_7077/IMG_3_7077.jpg"",""SV_PolicingMSA/CA_7077/IMG_1_7077.jpg"",""SV_PolicingMSA/CA_7077/IMG_13_7077.jpg"",""SV_PolicingMSA/CA_7077/IMG_12_7077.jpg"",""SV_PolicingMSA/CA_7077/IMG_2_7077.jpg"",""SV_PolicingMSA/CA_7077/IMG_14_7077.jpg"",""SV_PolicingMSA/CA_7077/IMG_8_7077.jpg"",""SV_PolicingMSA/CA_7077/IMG_6_7077.jpg""]","3","","","","","","0","","4","[""./rc_img/cop_condGroup_1_CommunitySafety_autoscaled.png"",""./rc_img/cop_condGroup_1_SafeStreets_autoscaled.png""]","3","",""
"sliderTrial_attention","html-slider-response","143","961024","0.0-143.0","","656776a7904ae00d6b91d1dd","6568aa238fb544e29e95386f","13","","","","","","","","","","","","null","[""SV_PolicingMSA/CA_7077/IMG_3_7077.jpg"",""SV_PolicingMSA/CA_7077/IMG_1_7077.jpg"",""SV_PolicingMSA/CA_7077/IMG_13_7077.jpg"",""SV_PolicingMSA/CA_7077/IMG_12_7077.jpg"",""SV_PolicingMSA/CA_7077/IMG_2_7077.jpg"",""SV_PolicingMSA/CA_7077/IMG_14_7077.jpg"",""SV_PolicingMSA/CA_7077/IMG_8_7077.jpg"",""SV_PolicingMSA/CA_7077/IMG_6_7077.jpg""]","null","","","","","","0","","4","[""./assets/img/attnchk.png"",""./assets/img/attnchk.png""]","","true",""
"sliderTrial","html-slider-response","144","967848","0.0-144.0","","656776a7904ae00d6b91d1dd","6568aa238fb544e29e95386f","13","","","","","","","","","","","","6822","[""SV_PolicingMSA/CA_7077/IMG_3_7077.jpg"",""SV_PolicingMSA/CA_7077/IMG_1_7077.jpg"",""SV_PolicingMSA/CA_7077/IMG_13_7077.jpg"",""SV_PolicingMSA/CA_7077/IMG_12_7077.jpg"",""SV_PolicingMSA/CA_7077/IMG_2_7077.jpg"",""SV_PolicingMSA/CA_7077/IMG_14_7077.jpg"",""SV_PolicingMSA/CA_7077/IMG_8_7077.jpg"",""SV_PolicingMSA/CA_7077/IMG_6_7077.jpg""]","6","","","","","","0","","4","[""./rc_img/cop_condGroup_13_SafeStreets_autoscaled.png"",""./rc_img/cop_condGroup_13_CommunitySafety_autoscaled.png""]","2","",""
"demographics","survey-html-form","145","990767","0.0-145.0","","656776a7904ae00d6b91d1dd","6568aa238fb544e29e95386f","13","","","","","","","","","","","","22917","","{""age"":""32"",""sex"":""female"",""gender"":""woman"",""gender-self-describe"":"""",""zipcode"":""48817""}","","","","","","","","","","","",""
"demographics-list","survey","146","1020708","0.0-146.0","","656776a7904ae00d6b91d1dd","6568aa238fb544e29e95386f","13","","","","","","","","","","","","29917","","{""P0_Q0"":null,""race-ethnicity"":[""White or of European ancestry""],""education"":""Bachelor’s degree"",""P1_Q0"":null,""ideology"":""Very Liberal"",""P2_Q0"":null,""num-moves"":1,""P3_Q0"":null,""social-ladder"":4}","","","","","","","[]","","","","",""
"end-survey","survey-text","147","1146127","0.0-147.0","","656776a7904ae00d6b91d1dd","6568aa238fb544e29e95386f","13","","","","","","","","","","","","125415","","{""Q0"":""I wouldn't walk alone at night anywhere because it is not safe for women (to explain why I only chose that answer for every one). I also think the police should be abolished, so I generally tried to choose the nicer looking one.""}","","","","","","","","","","","","2"
"end-survey","html-button-response","148","1149555","0.0-148.0","","656776a7904ae00d6b91d1dd","6568aa238fb544e29e95386f","13","","","","","","","","","","","","3426","
    You've reached the end of the survey. <br><br> 
    <b>Do not close or refresh this window.</b><br>
    On the next page, you will be automatically redirected to Prolific. <br><br>

    <div class=""alert alert-warning""><b>
    </div>
","0","","","","","","","","","","","",""
