"task","trial_type","trial_index","time_elapsed","internal_node_id","subject_id","study_id","session_id","section","width","height","webaudio","browser","browser_version","mobile","os","fullscreen","vsync_rate","webcam","microphone","rt","stimulus","response","success","timeout","failed_images","failed_audio","failed_video","block","accuracy","slider_start","choices","standardized_response","correct","num_attention_checks_correct"
"pavlovia-init","pavlovia","0","883","0.0-0.0","","656776a7904ae00d6b91d1dd","6568b2ac2a2e8dc6001b94ad","5","","","","","","","","","","","","","","","","","","","","","","","","","",""
"browser-check","browser-check","1","34869","0.0-1.0","","656776a7904ae00d6b91d1dd","6568b2ac2a2e8dc6001b94ad","5","1707","882","true","chrome","119.0.0","false","Windows 10","true","145.17","true","true","","","","","","","","","","","","","","",""
"consent","html-button-response","2","38644","0.0-2.0","","656776a7904ae00d6b91d1dd","6568b2ac2a2e8dc6001b94ad","5","","","","","","","","","","","","3774","
        <div style=""font-size: 80%; max-width:700px"">
            <h2>CONSENT FORM</h2>
        
            <div style=""text-align: left"">
            <h4>DESCRIPTION</h4>
            <p>
            You will complete a short task where you give your impressions of various neighborhoods and assign individuals to those spaces, and answer some questions about your thoughts and opinions.<br>
            The University of Michigan Institutional Review Board Health Sciences and Behavioral Sciences has determined that this study is exempt from IRB oversight.
            </p>

            <h4>TIME INVOLVEMENT</h4>
            <p>Your participation will take approximately 15 minutes. You will receive $3.15 upon completion of the study.</p>
        
            <h4>RISKS AND BENEFITS</h4>
            <p>
            The risks associated with this study are minimal. The benefits which may reasonably be expected to result from this study are none. We cannot and do not guarantee or promise that you will receive any benefits from this study.
            </p>
          
            <h4>SUBJECT'S RIGHTS</h4>
            <p>
            If you have read this form and have decided to participate in this project, please understand your participation is voluntary and you have the right to withdraw your consent or discontinue participation at any time without penalty or loss of benefits to which you are otherwise entitled. The alternative is not to participate. You have the right to refuse to answer particular questions. Your individual privacy will be maintained in all published and written data resulting from the study.
            </p>

            <h4>HUMAN SUBJECT APPROVAL</h4>
            <p>
            This study is exempt from ongoing IRB review.
            </p>

            <h4>CONTACT INFORMATION</h4>
            If you have any questions, concerns or complaints about this research, its procedures, risks and benefits, contact the Protocol Director, Nicholas Camp, npcamp@umich.edu, (443) 851-6783. <br>

            If you have questions about your rights as a research participant, or wish to obtain information, ask questions or discuss any concerns about this study with someone other than the researcher(s), please contact the following:<br><br>
            University of Michigan<br>
            Health Sciences and Behavioral Sciences Institutional Review Board (IRB-HSBS)<br>
            2800 Plymouth Road<br>
            Building 520, Room 1169Ann Arbor, MI 48109-2800<br>
            Telephone: 734-936-0933 or toll free (866) 936-0933<br>
            Fax: 734-936-1852<br>
            E-mail: irbhsbs@umich.edu<br><br>

            You can also contact the University of Michigan Compliance Hotline at 1-866-990-0111. You may also print this consent form to keep.
            <br><br>
            <div class=""alert alert-warning""><b>
            Do you consent to participate in this study? If you consent to participate in this study, please click “Accept and Continue”. If you select ""Decline and Exit"", you will be exited from the survey. <br>
            </b></div>
            </div>
        </div>
    ","1","","","","","","","","","","","",""
"","preload","3","40655","0.0-3.0","","656776a7904ae00d6b91d1dd","6568b2ac2a2e8dc6001b94ad","5","","","","","","","","","","","","","","","true","false","[]","[]","[]","","","","","","",""
"instructions","html-button-response","4","52514","0.0-4.0","","656776a7904ae00d6b91d1dd","6568b2ac2a2e8dc6001b94ad","5","","","","","","","","","","","","11858","
        <div class=""text-container"">
        <h1>Welcome to the study!</h1>
        
        <div class=""text-left"">
            <p>
                In this study, we are interested in what people can tell about spaces from Google Street View images. <br> Google Street View takes pictures of streets used for Google Earth and Google Maps. <br>You’ll see Google Street View images of different places and answer some questions about each one.<br>
            </p>
        </div>
        <img src = ""assets/img/example.png"" width = 500px, height = auto>
        <br>
    <br>
    ","0","","","","","","","","","","","",""
"instructions","html-button-response","5","54778","0.0-5.0","","656776a7904ae00d6b91d1dd","6568b2ac2a2e8dc6001b94ad","5","","","","","","","","","","","","2263","
    <div class=""text-container"">
        <div class=""text-center"">
            <p>Please remember that your answers are completely anonymous.<br>Go with your gut response- there are no right or wrong answers!</p>
        </div>
    <br>
","0","","","","","","","","","","","",""
"before_SVSlide_prompt","html-button-response","6","55906","0.0-6.0","","656776a7904ae00d6b91d1dd","6568b2ac2a2e8dc6001b94ad","5","","","","","","","","","","","","1127","Click [Next] to see the next neighborhood!","0","","","","","","","","","","","",""
"street view slide show","image-button-response","7","56908","0.0-7.0","","656776a7904ae00d6b91d1dd","6568b2ac2a2e8dc6001b94ad","5","","","","","","","","","","","","null","stimulus/SV_PolicingMSA/MI_1804/IMG_12_1804.jpg","null","","","","","","0","","","","","",""
"street view slide show","image-button-response","8","57910","0.0-8.0","","656776a7904ae00d6b91d1dd","6568b2ac2a2e8dc6001b94ad","5","","","","","","","","","","","","null","stimulus/SV_PolicingMSA/MI_1804/IMG_0_1804.jpg","null","","","","","","0","","","","","",""
"street view slide show","image-button-response","9","58915","0.0-9.0","","656776a7904ae00d6b91d1dd","6568b2ac2a2e8dc6001b94ad","5","","","","","","","","","","","","null","stimulus/SV_PolicingMSA/MI_1804/IMG_8_1804.jpg","null","","","","","","0","","","","","",""
"street view slide show","image-button-response","10","59921","0.0-10.0","","656776a7904ae00d6b91d1dd","6568b2ac2a2e8dc6001b94ad","5","","","","","","","","","","","","null","stimulus/SV_PolicingMSA/MI_1804/IMG_9_1804.jpg","null","","","","","","0","","","","","",""
"street view slide show","image-button-response","11","60933","0.0-11.0","","656776a7904ae00d6b91d1dd","6568b2ac2a2e8dc6001b94ad","5","","","","","","","","","","","","null","stimulus/SV_PolicingMSA/MI_1804/IMG_3_1804.jpg","null","","","","","","0","","","","","",""
"street view slide show","image-button-response","12","61944","0.0-12.0","","656776a7904ae00d6b91d1dd","6568b2ac2a2e8dc6001b94ad","5","","","","","","","","","","","","null","stimulus/SV_PolicingMSA/MI_1804/IMG_14_1804.jpg","null","","","","","","0","","","","","",""
"street view slide show","image-button-response","13","62958","0.0-13.0","","656776a7904ae00d6b91d1dd","6568b2ac2a2e8dc6001b94ad","5","","","","","","","","","","","","null","stimulus/SV_PolicingMSA/MI_1804/IMG_7_1804.jpg","null","","","","","","0","","","","","",""
"street view slide show","image-button-response","14","63965","0.0-14.0","","656776a7904ae00d6b91d1dd","6568b2ac2a2e8dc6001b94ad","5","","","","","","","","","","","","null","stimulus/SV_PolicingMSA/MI_1804/IMG_5_1804.jpg","null","","","","","","0","","","","","",""
"dot matrix survey1","survey","15","82058","0.0-15.0","","656776a7904ae00d6b91d1dd","6568b2ac2a2e8dc6001b94ad","5","","","","","","","","","","","","18055","","{""P0_Q0"":null,""P0_Q1"":{""wealthy"":1,""safe"":2,""walkable"":0,""traditional"":3,""diverse"":1}}","","","","","","0","[]","","","","",""
"dot matrix survey2","survey","16","94775","0.0-16.0","","656776a7904ae00d6b91d1dd","6568b2ac2a2e8dc6001b94ad","5","","","","","","","","","","","","12711","","{""P0_Q0"":null,""P0_Q1"":{""violence"":2,""crime"":2,""drug"":2,""schools"":3,""opportunities"":2}}","","","","","","0","[]","","","","",""
"dot matrix survey3","survey","17","109556","0.0-17.0","","656776a7904ae00d6b91d1dd","6568b2ac2a2e8dc6001b94ad","5","","","","","","","","","","","","14776","","{""P0_Q0"":null,""P0_Q1"":{""movein"":1,""moveout"":3,""shopping"":2,""walk"":2,""park"":1,""school"":2}}","","","","","","0","[]","","","","",""
"sliderTrial","html-slider-response","18","116438","0.0-18.0","","656776a7904ae00d6b91d1dd","6568b2ac2a2e8dc6001b94ad","5","","","","","","","","","","","","6881","[""SV_PolicingMSA/MI_1804/IMG_12_1804.jpg"",""SV_PolicingMSA/MI_1804/IMG_0_1804.jpg"",""SV_PolicingMSA/MI_1804/IMG_8_1804.jpg"",""SV_PolicingMSA/MI_1804/IMG_9_1804.jpg"",""SV_PolicingMSA/MI_1804/IMG_3_1804.jpg"",""SV_PolicingMSA/MI_1804/IMG_14_1804.jpg"",""SV_PolicingMSA/MI_1804/IMG_7_1804.jpg"",""SV_PolicingMSA/MI_1804/IMG_5_1804.jpg""]","7","","","","","","0","","4","[""./rc_img/cop_condGroup_9_SafeStreets_autoscaled.png"",""./rc_img/cop_condGroup_9_CommunitySafety_autoscaled.png""]","1","",""
"sliderTrial_attention","html-slider-response","19","126444","0.0-19.0","","656776a7904ae00d6b91d1dd","6568b2ac2a2e8dc6001b94ad","5","","","","","","","","","","","","null","[""SV_PolicingMSA/MI_1804/IMG_12_1804.jpg"",""SV_PolicingMSA/MI_1804/IMG_0_1804.jpg"",""SV_PolicingMSA/MI_1804/IMG_8_1804.jpg"",""SV_PolicingMSA/MI_1804/IMG_9_1804.jpg"",""SV_PolicingMSA/MI_1804/IMG_3_1804.jpg"",""SV_PolicingMSA/MI_1804/IMG_14_1804.jpg"",""SV_PolicingMSA/MI_1804/IMG_7_1804.jpg"",""SV_PolicingMSA/MI_1804/IMG_5_1804.jpg""]","null","","","","","","0","","4","[""./assets/img/attnchk.png"",""./assets/img/attnchk.png""]","","true",""
"sliderTrial","html-slider-response","20","133245","0.0-20.0","","656776a7904ae00d6b91d1dd","6568b2ac2a2e8dc6001b94ad","5","","","","","","","","","","","","6799","[""SV_PolicingMSA/MI_1804/IMG_12_1804.jpg"",""SV_PolicingMSA/MI_1804/IMG_0_1804.jpg"",""SV_PolicingMSA/MI_1804/IMG_8_1804.jpg"",""SV_PolicingMSA/MI_1804/IMG_9_1804.jpg"",""SV_PolicingMSA/MI_1804/IMG_3_1804.jpg"",""SV_PolicingMSA/MI_1804/IMG_14_1804.jpg"",""SV_PolicingMSA/MI_1804/IMG_7_1804.jpg"",""SV_PolicingMSA/MI_1804/IMG_5_1804.jpg""]","4","","","","","","0","","4","[""./rc_img/cop_condGroup_12_CommunitySafety_autoscaled.png"",""./rc_img/cop_condGroup_12_SafeStreets_autoscaled.png""]","4","",""
"sliderTrial","html-slider-response","21","137892","0.0-21.0","","656776a7904ae00d6b91d1dd","6568b2ac2a2e8dc6001b94ad","5","","","","","","","","","","","","4647","[""SV_PolicingMSA/MI_1804/IMG_12_1804.jpg"",""SV_PolicingMSA/MI_1804/IMG_0_1804.jpg"",""SV_PolicingMSA/MI_1804/IMG_8_1804.jpg"",""SV_PolicingMSA/MI_1804/IMG_9_1804.jpg"",""SV_PolicingMSA/MI_1804/IMG_3_1804.jpg"",""SV_PolicingMSA/MI_1804/IMG_14_1804.jpg"",""SV_PolicingMSA/MI_1804/IMG_7_1804.jpg"",""SV_PolicingMSA/MI_1804/IMG_5_1804.jpg""]","1","","","","","","0","","4","[""./rc_img/cop_condGroup_1_CommunitySafety_autoscaled.png"",""./rc_img/cop_condGroup_1_SafeStreets_autoscaled.png""]","1","",""
"sliderTrial","html-slider-response","22","141060","0.0-22.0","","656776a7904ae00d6b91d1dd","6568b2ac2a2e8dc6001b94ad","5","","","","","","","","","","","","3167","[""SV_PolicingMSA/MI_1804/IMG_12_1804.jpg"",""SV_PolicingMSA/MI_1804/IMG_0_1804.jpg"",""SV_PolicingMSA/MI_1804/IMG_8_1804.jpg"",""SV_PolicingMSA/MI_1804/IMG_9_1804.jpg"",""SV_PolicingMSA/MI_1804/IMG_3_1804.jpg"",""SV_PolicingMSA/MI_1804/IMG_14_1804.jpg"",""SV_PolicingMSA/MI_1804/IMG_7_1804.jpg"",""SV_PolicingMSA/MI_1804/IMG_5_1804.jpg""]","1","","","","","","0","","4","[""./rc_img/cop_condGroup_20_CommunitySafety_autoscaled.png"",""./rc_img/cop_condGroup_20_SafeStreets_autoscaled.png""]","1","",""
"sliderTrial","html-slider-response","23","144612","0.0-23.0","","656776a7904ae00d6b91d1dd","6568b2ac2a2e8dc6001b94ad","5","","","","","","","","","","","","3551","[""SV_PolicingMSA/MI_1804/IMG_12_1804.jpg"",""SV_PolicingMSA/MI_1804/IMG_0_1804.jpg"",""SV_PolicingMSA/MI_1804/IMG_8_1804.jpg"",""SV_PolicingMSA/MI_1804/IMG_9_1804.jpg"",""SV_PolicingMSA/MI_1804/IMG_3_1804.jpg"",""SV_PolicingMSA/MI_1804/IMG_14_1804.jpg"",""SV_PolicingMSA/MI_1804/IMG_7_1804.jpg"",""SV_PolicingMSA/MI_1804/IMG_5_1804.jpg""]","1","","","","","","0","","4","[""./rc_img/cop_condGroup_17_CommunitySafety_autoscaled.png"",""./rc_img/cop_condGroup_17_SafeStreets_autoscaled.png""]","1","",""
"before_SVSlide_prompt","html-button-response","24","146068","0.0-24.0","","656776a7904ae00d6b91d1dd","6568b2ac2a2e8dc6001b94ad","5","","","","","","","","","","","","1455","Click [Next] to see the next neighborhood!","0","","","","","","","","","","","",""
"street view slide show","image-button-response","25","147074","0.0-25.0","","656776a7904ae00d6b91d1dd","6568b2ac2a2e8dc6001b94ad","5","","","","","","","","","","","","null","stimulus/SV_PolicingMSA/MI_2715/IMG_5_2715.jpg","null","","","","","","4","","","","","",""
"street view slide show","image-button-response","26","148089","0.0-26.0","","656776a7904ae00d6b91d1dd","6568b2ac2a2e8dc6001b94ad","5","","","","","","","","","","","","null","stimulus/SV_PolicingMSA/MI_2715/IMG_12_2715.jpg","null","","","","","","4","","","","","",""
"street view slide show","image-button-response","27","149100","0.0-27.0","","656776a7904ae00d6b91d1dd","6568b2ac2a2e8dc6001b94ad","5","","","","","","","","","","","","null","stimulus/SV_PolicingMSA/MI_2715/IMG_10_2715.jpg","null","","","","","","4","","","","","",""
"street view slide show","image-button-response","28","150108","0.0-28.0","","656776a7904ae00d6b91d1dd","6568b2ac2a2e8dc6001b94ad","5","","","","","","","","","","","","null","stimulus/SV_PolicingMSA/MI_2715/IMG_8_2715.jpg","null","","","","","","4","","","","","",""
"street view slide show","image-button-response","29","151110","0.0-29.0","","656776a7904ae00d6b91d1dd","6568b2ac2a2e8dc6001b94ad","5","","","","","","","","","","","","null","stimulus/SV_PolicingMSA/MI_2715/IMG_6_2715.jpg","null","","","","","","4","","","","","",""
"street view slide show","image-button-response","30","152115","0.0-30.0","","656776a7904ae00d6b91d1dd","6568b2ac2a2e8dc6001b94ad","5","","","","","","","","","","","","null","stimulus/SV_PolicingMSA/MI_2715/IMG_4_2715.jpg","null","","","","","","4","","","","","",""
"street view slide show","image-button-response","31","153116","0.0-31.0","","656776a7904ae00d6b91d1dd","6568b2ac2a2e8dc6001b94ad","5","","","","","","","","","","","","null","stimulus/SV_PolicingMSA/MI_2715/IMG_3_2715.jpg","null","","","","","","4","","","","","",""
"street view slide show","image-button-response","32","154122","0.0-32.0","","656776a7904ae00d6b91d1dd","6568b2ac2a2e8dc6001b94ad","5","","","","","","","","","","","","null","stimulus/SV_PolicingMSA/MI_2715/IMG_0_2715.jpg","null","","","","","","4","","","","","",""
"dot matrix survey1","survey","33","165670","0.0-33.0","","656776a7904ae00d6b91d1dd","6568b2ac2a2e8dc6001b94ad","5","","","","","","","","","","","","11541","","{""P0_Q0"":null,""P0_Q1"":{""wealthy"":0,""safe"":2,""walkable"":0,""traditional"":4,""diverse"":1}}","","","","","","4","[]","","","","",""
"dot matrix survey2","survey","34","181134","0.0-34.0","","656776a7904ae00d6b91d1dd","6568b2ac2a2e8dc6001b94ad","5","","","","","","","","","","","","15458","","{""P0_Q0"":null,""P0_Q1"":{""violence"":2,""crime"":1,""schools"":1,""opportunities"":1}}","","","","","","4","[]","","","","",""
"dot matrix survey3","survey","35","193981","0.0-35.0","","656776a7904ae00d6b91d1dd","6568b2ac2a2e8dc6001b94ad","5","","","","","","","","","","","","12842","","{""P0_Q0"":null,""P0_Q1"":{""movein"":0,""moveout"":4,""shopping"":1,""walk"":0,""park"":0,""school"":0}}","","","","","","4","[]","","","","",""
"sliderTrial","html-slider-response","36","198599","0.0-36.0","","656776a7904ae00d6b91d1dd","6568b2ac2a2e8dc6001b94ad","5","","","","","","","","","","","","4617","[""SV_PolicingMSA/MI_2715/IMG_5_2715.jpg"",""SV_PolicingMSA/MI_2715/IMG_12_2715.jpg"",""SV_PolicingMSA/MI_2715/IMG_10_2715.jpg"",""SV_PolicingMSA/MI_2715/IMG_8_2715.jpg"",""SV_PolicingMSA/MI_2715/IMG_6_2715.jpg"",""SV_PolicingMSA/MI_2715/IMG_4_2715.jpg"",""SV_PolicingMSA/MI_2715/IMG_3_2715.jpg"",""SV_PolicingMSA/MI_2715/IMG_0_2715.jpg""]","6","","","","","","4","","4","[""./rc_img/cop_condGroup_6_SafeStreets_autoscaled.png"",""./rc_img/cop_condGroup_6_CommunitySafety_autoscaled.png""]","2","",""
"sliderTrial","html-slider-response","37","200815","0.0-37.0","","656776a7904ae00d6b91d1dd","6568b2ac2a2e8dc6001b94ad","5","","","","","","","","","","","","2215","[""SV_PolicingMSA/MI_2715/IMG_5_2715.jpg"",""SV_PolicingMSA/MI_2715/IMG_12_2715.jpg"",""SV_PolicingMSA/MI_2715/IMG_10_2715.jpg"",""SV_PolicingMSA/MI_2715/IMG_8_2715.jpg"",""SV_PolicingMSA/MI_2715/IMG_6_2715.jpg"",""SV_PolicingMSA/MI_2715/IMG_4_2715.jpg"",""SV_PolicingMSA/MI_2715/IMG_3_2715.jpg"",""SV_PolicingMSA/MI_2715/IMG_0_2715.jpg""]","7","","","","","","4","","4","[""./rc_img/cop_condGroup_8_SafeStreets_autoscaled.png"",""./rc_img/cop_condGroup_8_CommunitySafety_autoscaled.png""]","1","",""
"sliderTrial","html-slider-response","38","204119","0.0-38.0","","656776a7904ae00d6b91d1dd","6568b2ac2a2e8dc6001b94ad","5","","","","","","","","","","","","3302","[""SV_PolicingMSA/MI_2715/IMG_5_2715.jpg"",""SV_PolicingMSA/MI_2715/IMG_12_2715.jpg"",""SV_PolicingMSA/MI_2715/IMG_10_2715.jpg"",""SV_PolicingMSA/MI_2715/IMG_8_2715.jpg"",""SV_PolicingMSA/MI_2715/IMG_6_2715.jpg"",""SV_PolicingMSA/MI_2715/IMG_4_2715.jpg"",""SV_PolicingMSA/MI_2715/IMG_3_2715.jpg"",""SV_PolicingMSA/MI_2715/IMG_0_2715.jpg""]","6","","","","","","4","","4","[""./rc_img/cop_condGroup_19_SafeStreets_autoscaled.png"",""./rc_img/cop_condGroup_19_CommunitySafety_autoscaled.png""]","2","",""
"sliderTrial","html-slider-response","39","208758","0.0-39.0","","656776a7904ae00d6b91d1dd","6568b2ac2a2e8dc6001b94ad","5","","","","","","","","","","","","4639","[""SV_PolicingMSA/MI_2715/IMG_5_2715.jpg"",""SV_PolicingMSA/MI_2715/IMG_12_2715.jpg"",""SV_PolicingMSA/MI_2715/IMG_10_2715.jpg"",""SV_PolicingMSA/MI_2715/IMG_8_2715.jpg"",""SV_PolicingMSA/MI_2715/IMG_6_2715.jpg"",""SV_PolicingMSA/MI_2715/IMG_4_2715.jpg"",""SV_PolicingMSA/MI_2715/IMG_3_2715.jpg"",""SV_PolicingMSA/MI_2715/IMG_0_2715.jpg""]","1","","","","","","4","","4","[""./rc_img/cop_condGroup_3_CommunitySafety_autoscaled.png"",""./rc_img/cop_condGroup_3_SafeStreets_autoscaled.png""]","1","",""
"sliderTrial","html-slider-response","40","213134","0.0-40.0","","656776a7904ae00d6b91d1dd","6568b2ac2a2e8dc6001b94ad","5","","","","","","","","","","","","4375","[""SV_PolicingMSA/MI_2715/IMG_5_2715.jpg"",""SV_PolicingMSA/MI_2715/IMG_12_2715.jpg"",""SV_PolicingMSA/MI_2715/IMG_10_2715.jpg"",""SV_PolicingMSA/MI_2715/IMG_8_2715.jpg"",""SV_PolicingMSA/MI_2715/IMG_6_2715.jpg"",""SV_PolicingMSA/MI_2715/IMG_4_2715.jpg"",""SV_PolicingMSA/MI_2715/IMG_3_2715.jpg"",""SV_PolicingMSA/MI_2715/IMG_0_2715.jpg""]","7","","","","","","4","","4","[""./rc_img/cop_condGroup_11_SafeStreets_autoscaled.png"",""./rc_img/cop_condGroup_11_CommunitySafety_autoscaled.png""]","1","",""
"before_SVSlide_prompt","html-button-response","41","214438","0.0-41.0","","656776a7904ae00d6b91d1dd","6568b2ac2a2e8dc6001b94ad","5","","","","","","","","","","","","1304","Click [Next] to see the next neighborhood!","0","","","","","","","","","","","",""
"street view slide show","image-button-response","42","215444","0.0-42.0","","656776a7904ae00d6b91d1dd","6568b2ac2a2e8dc6001b94ad","5","","","","","","","","","","","","null","stimulus/SV_PolicingMSA/MI_2582/IMG_11_2582.jpg","null","","","","","","3","","","","","",""
"street view slide show","image-button-response","43","216451","0.0-43.0","","656776a7904ae00d6b91d1dd","6568b2ac2a2e8dc6001b94ad","5","","","","","","","","","","","","null","stimulus/SV_PolicingMSA/MI_2582/IMG_4_2582.jpg","null","","","","","","3","","","","","",""
"street view slide show","image-button-response","44","217466","0.0-44.0","","656776a7904ae00d6b91d1dd","6568b2ac2a2e8dc6001b94ad","5","","","","","","","","","","","","null","stimulus/SV_PolicingMSA/MI_2582/IMG_3_2582.jpg","null","","","","","","3","","","","","",""
"street view slide show","image-button-response","45","218473","0.0-45.0","","656776a7904ae00d6b91d1dd","6568b2ac2a2e8dc6001b94ad","5","","","","","","","","","","","","null","stimulus/SV_PolicingMSA/MI_2582/IMG_1_2582.jpg","null","","","","","","3","","","","","",""
"street view slide show","image-button-response","46","219486","0.0-46.0","","656776a7904ae00d6b91d1dd","6568b2ac2a2e8dc6001b94ad","5","","","","","","","","","","","","null","stimulus/SV_PolicingMSA/MI_2582/IMG_9_2582.jpg","null","","","","","","3","","","","","",""
"street view slide show","image-button-response","47","220496","0.0-47.0","","656776a7904ae00d6b91d1dd","6568b2ac2a2e8dc6001b94ad","5","","","","","","","","","","","","null","stimulus/SV_PolicingMSA/MI_2582/IMG_10_2582.jpg","null","","","","","","3","","","","","",""
"street view slide show","image-button-response","48","221506","0.0-48.0","","656776a7904ae00d6b91d1dd","6568b2ac2a2e8dc6001b94ad","5","","","","","","","","","","","","null","stimulus/SV_PolicingMSA/MI_2582/IMG_7_2582.jpg","null","","","","","","3","","","","","",""
"street view slide show","image-button-response","49","222517","0.0-49.0","","656776a7904ae00d6b91d1dd","6568b2ac2a2e8dc6001b94ad","5","","","","","","","","","","","","null","stimulus/SV_PolicingMSA/MI_2582/IMG_5_2582.jpg","null","","","","","","3","","","","","",""
"dot matrix survey1","survey","50","232714","0.0-50.0","","656776a7904ae00d6b91d1dd","6568b2ac2a2e8dc6001b94ad","5","","","","","","","","","","","","10192","","{""P0_Q0"":null,""P0_Q1"":{""wealthy"":1,""safe"":2,""walkable"":0,""traditional"":4,""diverse"":1}}","","","","","","3","[]","","","","",""
"dot matrix survey2","survey","51","244226","0.0-51.0","","656776a7904ae00d6b91d1dd","6568b2ac2a2e8dc6001b94ad","5","","","","","","","","","","","","11509","","{""P0_Q0"":null,""P0_Q1"":{""violence"":2,""crime"":2,""drug"":2,""schools"":1,""opportunities"":1}}","","","","","","3","[]","","","","",""
"dot matrix survey3","survey","52","262592","0.0-52.0","","656776a7904ae00d6b91d1dd","6568b2ac2a2e8dc6001b94ad","5","","","","","","","","","","","","18361","","{""P0_Q0"":null,""P0_Q1"":{""movein"":1,""moveout"":4,""shopping"":2,""walk"":0,""park"":0,""school"":2}}","","","","","","3","[]","","","","",""
"sliderTrial","html-slider-response","53","265347","0.0-53.0","","656776a7904ae00d6b91d1dd","6568b2ac2a2e8dc6001b94ad","5","","","","","","","","","","","","2754","[""SV_PolicingMSA/MI_2582/IMG_11_2582.jpg"",""SV_PolicingMSA/MI_2582/IMG_4_2582.jpg"",""SV_PolicingMSA/MI_2582/IMG_3_2582.jpg"",""SV_PolicingMSA/MI_2582/IMG_1_2582.jpg"",""SV_PolicingMSA/MI_2582/IMG_9_2582.jpg"",""SV_PolicingMSA/MI_2582/IMG_10_2582.jpg"",""SV_PolicingMSA/MI_2582/IMG_7_2582.jpg"",""SV_PolicingMSA/MI_2582/IMG_5_2582.jpg""]","1","","","","","","3","","4","[""./rc_img/cop_condGroup_10_CommunitySafety_autoscaled.png"",""./rc_img/cop_condGroup_10_SafeStreets_autoscaled.png""]","1","",""
"sliderTrial","html-slider-response","54","274810","0.0-54.0","","656776a7904ae00d6b91d1dd","6568b2ac2a2e8dc6001b94ad","5","","","","","","","","","","","","9462","[""SV_PolicingMSA/MI_2582/IMG_11_2582.jpg"",""SV_PolicingMSA/MI_2582/IMG_4_2582.jpg"",""SV_PolicingMSA/MI_2582/IMG_3_2582.jpg"",""SV_PolicingMSA/MI_2582/IMG_1_2582.jpg"",""SV_PolicingMSA/MI_2582/IMG_9_2582.jpg"",""SV_PolicingMSA/MI_2582/IMG_10_2582.jpg"",""SV_PolicingMSA/MI_2582/IMG_7_2582.jpg"",""SV_PolicingMSA/MI_2582/IMG_5_2582.jpg""]","1","","","","","","3","","4","[""./rc_img/cop_condGroup_18_CommunitySafety_autoscaled.png"",""./rc_img/cop_condGroup_18_SafeStreets_autoscaled.png""]","1","",""
"sliderTrial","html-slider-response","55","277617","0.0-55.0","","656776a7904ae00d6b91d1dd","6568b2ac2a2e8dc6001b94ad","5","","","","","","","","","","","","2807","[""SV_PolicingMSA/MI_2582/IMG_11_2582.jpg"",""SV_PolicingMSA/MI_2582/IMG_4_2582.jpg"",""SV_PolicingMSA/MI_2582/IMG_3_2582.jpg"",""SV_PolicingMSA/MI_2582/IMG_1_2582.jpg"",""SV_PolicingMSA/MI_2582/IMG_9_2582.jpg"",""SV_PolicingMSA/MI_2582/IMG_10_2582.jpg"",""SV_PolicingMSA/MI_2582/IMG_7_2582.jpg"",""SV_PolicingMSA/MI_2582/IMG_5_2582.jpg""]","7","","","","","","3","","4","[""./rc_img/cop_condGroup_7_SafeStreets_autoscaled.png"",""./rc_img/cop_condGroup_7_CommunitySafety_autoscaled.png""]","1","",""
"sliderTrial","html-slider-response","56","280137","0.0-56.0","","656776a7904ae00d6b91d1dd","6568b2ac2a2e8dc6001b94ad","5","","","","","","","","","","","","2519","[""SV_PolicingMSA/MI_2582/IMG_11_2582.jpg"",""SV_PolicingMSA/MI_2582/IMG_4_2582.jpg"",""SV_PolicingMSA/MI_2582/IMG_3_2582.jpg"",""SV_PolicingMSA/MI_2582/IMG_1_2582.jpg"",""SV_PolicingMSA/MI_2582/IMG_9_2582.jpg"",""SV_PolicingMSA/MI_2582/IMG_10_2582.jpg"",""SV_PolicingMSA/MI_2582/IMG_7_2582.jpg"",""SV_PolicingMSA/MI_2582/IMG_5_2582.jpg""]","1","","","","","","3","","4","[""./rc_img/cop_condGroup_13_CommunitySafety_autoscaled.png"",""./rc_img/cop_condGroup_13_SafeStreets_autoscaled.png""]","1","",""
"sliderTrial","html-slider-response","57","283025","0.0-57.0","","656776a7904ae00d6b91d1dd","6568b2ac2a2e8dc6001b94ad","5","","","","","","","","","","","","2887","[""SV_PolicingMSA/MI_2582/IMG_11_2582.jpg"",""SV_PolicingMSA/MI_2582/IMG_4_2582.jpg"",""SV_PolicingMSA/MI_2582/IMG_3_2582.jpg"",""SV_PolicingMSA/MI_2582/IMG_1_2582.jpg"",""SV_PolicingMSA/MI_2582/IMG_9_2582.jpg"",""SV_PolicingMSA/MI_2582/IMG_10_2582.jpg"",""SV_PolicingMSA/MI_2582/IMG_7_2582.jpg"",""SV_PolicingMSA/MI_2582/IMG_5_2582.jpg""]","1","","","","","","3","","4","[""./rc_img/cop_condGroup_4_CommunitySafety_autoscaled.png"",""./rc_img/cop_condGroup_4_SafeStreets_autoscaled.png""]","1","",""
"before_SVSlide_prompt","html-button-response","58","284273","0.0-58.0","","656776a7904ae00d6b91d1dd","6568b2ac2a2e8dc6001b94ad","5","","","","","","","","","","","","1248","Click [Next] to see the next neighborhood!","0","","","","","","","","","","","",""
"street view slide show","image-button-response","59","285285","0.0-59.0","","656776a7904ae00d6b91d1dd","6568b2ac2a2e8dc6001b94ad","5","","","","","","","","","","","","null","stimulus/SV_PolicingMSA/MI_1808/IMG_10_1808.jpg","null","","","","","","1","","","","","",""
"street view slide show","image-button-response","60","286288","0.0-60.0","","656776a7904ae00d6b91d1dd","6568b2ac2a2e8dc6001b94ad","5","","","","","","","","","","","","null","stimulus/SV_PolicingMSA/MI_1808/IMG_4_1808.jpg","null","","","","","","1","","","","","",""
"street view slide show","image-button-response","61","287289","0.0-61.0","","656776a7904ae00d6b91d1dd","6568b2ac2a2e8dc6001b94ad","5","","","","","","","","","","","","null","stimulus/SV_PolicingMSA/MI_1808/IMG_0_1808.jpg","null","","","","","","1","","","","","",""
"street view slide show","image-button-response","62","288300","0.0-62.0","","656776a7904ae00d6b91d1dd","6568b2ac2a2e8dc6001b94ad","5","","","","","","","","","","","","null","stimulus/SV_PolicingMSA/MI_1808/IMG_5_1808.jpg","null","","","","","","1","","","","","",""
"street view slide show","image-button-response","63","289315","0.0-63.0","","656776a7904ae00d6b91d1dd","6568b2ac2a2e8dc6001b94ad","5","","","","","","","","","","","","null","stimulus/SV_PolicingMSA/MI_1808/IMG_7_1808.jpg","null","","","","","","1","","","","","",""
"street view slide show","image-button-response","64","290327","0.0-64.0","","656776a7904ae00d6b91d1dd","6568b2ac2a2e8dc6001b94ad","5","","","","","","","","","","","","null","stimulus/SV_PolicingMSA/MI_1808/IMG_3_1808.jpg","null","","","","","","1","","","","","",""
"street view slide show","image-button-response","65","291331","0.0-65.0","","656776a7904ae00d6b91d1dd","6568b2ac2a2e8dc6001b94ad","5","","","","","","","","","","","","null","stimulus/SV_PolicingMSA/MI_1808/IMG_13_1808.jpg","null","","","","","","1","","","","","",""
"street view slide show","image-button-response","66","292337","0.0-66.0","","656776a7904ae00d6b91d1dd","6568b2ac2a2e8dc6001b94ad","5","","","","","","","","","","","","null","stimulus/SV_PolicingMSA/MI_1808/IMG_14_1808.jpg","null","","","","","","1","","","","","",""
"dot matrix survey1","survey","67","305739","0.0-67.0","","656776a7904ae00d6b91d1dd","6568b2ac2a2e8dc6001b94ad","5","","","","","","","","","","","","13395","","{""P0_Q0"":null,""P0_Q1"":{""wealthy"":2,""safe"":2,""walkable"":1,""traditional"":2,""diverse"":2}}","","","","","","1","[]","","","","",""
"dot matrix survey2","survey","68","318051","0.0-68.0","","656776a7904ae00d6b91d1dd","6568b2ac2a2e8dc6001b94ad","5","","","","","","","","","","","","12307","","{""P0_Q0"":null,""P0_Q1"":{""violence"":2,""crime"":2,""drug"":2,""schools"":2,""opportunities"":1}}","","","","","","1","[]","","","","",""
"dot matrix survey3","survey","69","331553","0.0-69.0","","656776a7904ae00d6b91d1dd","6568b2ac2a2e8dc6001b94ad","5","","","","","","","","","","","","13499","","{""P0_Q0"":null,""P0_Q1"":{""movein"":1,""moveout"":3,""shopping"":2,""walk"":2,""park"":2,""school"":2}}","","","","","","1","[]","","","","",""
"sliderTrial_attention","html-slider-response","70","341560","0.0-70.0","","656776a7904ae00d6b91d1dd","6568b2ac2a2e8dc6001b94ad","5","","","","","","","","","","","","null","[""SV_PolicingMSA/MI_1808/IMG_10_1808.jpg"",""SV_PolicingMSA/MI_1808/IMG_4_1808.jpg"",""SV_PolicingMSA/MI_1808/IMG_0_1808.jpg"",""SV_PolicingMSA/MI_1808/IMG_5_1808.jpg"",""SV_PolicingMSA/MI_1808/IMG_7_1808.jpg"",""SV_PolicingMSA/MI_1808/IMG_3_1808.jpg"",""SV_PolicingMSA/MI_1808/IMG_13_1808.jpg"",""SV_PolicingMSA/MI_1808/IMG_14_1808.jpg""]","null","","","","","","1","","4","[""./assets/img/attnchk.png"",""./assets/img/attnchk.png""]","","true",""
"sliderTrial","html-slider-response","71","353709","0.0-71.0","","656776a7904ae00d6b91d1dd","6568b2ac2a2e8dc6001b94ad","5","","","","","","","","","","","","12147","[""SV_PolicingMSA/MI_1808/IMG_10_1808.jpg"",""SV_PolicingMSA/MI_1808/IMG_4_1808.jpg"",""SV_PolicingMSA/MI_1808/IMG_0_1808.jpg"",""SV_PolicingMSA/MI_1808/IMG_5_1808.jpg"",""SV_PolicingMSA/MI_1808/IMG_7_1808.jpg"",""SV_PolicingMSA/MI_1808/IMG_3_1808.jpg"",""SV_PolicingMSA/MI_1808/IMG_13_1808.jpg"",""SV_PolicingMSA/MI_1808/IMG_14_1808.jpg""]","1","","","","","","1","","4","[""./rc_img/cop_condGroup_10_CommunitySafety_autoscaled.png"",""./rc_img/cop_condGroup_10_SafeStreets_autoscaled.png""]","1","",""
"sliderTrial","html-slider-response","72","356452","0.0-72.0","","656776a7904ae00d6b91d1dd","6568b2ac2a2e8dc6001b94ad","5","","","","","","","","","","","","2743","[""SV_PolicingMSA/MI_1808/IMG_10_1808.jpg"",""SV_PolicingMSA/MI_1808/IMG_4_1808.jpg"",""SV_PolicingMSA/MI_1808/IMG_0_1808.jpg"",""SV_PolicingMSA/MI_1808/IMG_5_1808.jpg"",""SV_PolicingMSA/MI_1808/IMG_7_1808.jpg"",""SV_PolicingMSA/MI_1808/IMG_3_1808.jpg"",""SV_PolicingMSA/MI_1808/IMG_13_1808.jpg"",""SV_PolicingMSA/MI_1808/IMG_14_1808.jpg""]","1","","","","","","1","","4","[""./rc_img/cop_condGroup_18_CommunitySafety_autoscaled.png"",""./rc_img/cop_condGroup_18_SafeStreets_autoscaled.png""]","1","",""
"sliderTrial","html-slider-response","73","359140","0.0-73.0","","656776a7904ae00d6b91d1dd","6568b2ac2a2e8dc6001b94ad","5","","","","","","","","","","","","2687","[""SV_PolicingMSA/MI_1808/IMG_10_1808.jpg"",""SV_PolicingMSA/MI_1808/IMG_4_1808.jpg"",""SV_PolicingMSA/MI_1808/IMG_0_1808.jpg"",""SV_PolicingMSA/MI_1808/IMG_5_1808.jpg"",""SV_PolicingMSA/MI_1808/IMG_7_1808.jpg"",""SV_PolicingMSA/MI_1808/IMG_3_1808.jpg"",""SV_PolicingMSA/MI_1808/IMG_13_1808.jpg"",""SV_PolicingMSA/MI_1808/IMG_14_1808.jpg""]","6","","","","","","1","","4","[""./rc_img/cop_condGroup_7_SafeStreets_autoscaled.png"",""./rc_img/cop_condGroup_7_CommunitySafety_autoscaled.png""]","2","",""
"sliderTrial","html-slider-response","74","361924","0.0-74.0","","656776a7904ae00d6b91d1dd","6568b2ac2a2e8dc6001b94ad","5","","","","","","","","","","","","2783","[""SV_PolicingMSA/MI_1808/IMG_10_1808.jpg"",""SV_PolicingMSA/MI_1808/IMG_4_1808.jpg"",""SV_PolicingMSA/MI_1808/IMG_0_1808.jpg"",""SV_PolicingMSA/MI_1808/IMG_5_1808.jpg"",""SV_PolicingMSA/MI_1808/IMG_7_1808.jpg"",""SV_PolicingMSA/MI_1808/IMG_3_1808.jpg"",""SV_PolicingMSA/MI_1808/IMG_13_1808.jpg"",""SV_PolicingMSA/MI_1808/IMG_14_1808.jpg""]","1","","","","","","1","","4","[""./rc_img/cop_condGroup_13_CommunitySafety_autoscaled.png"",""./rc_img/cop_condGroup_13_SafeStreets_autoscaled.png""]","1","",""
"sliderTrial","html-slider-response","75","364660","0.0-75.0","","656776a7904ae00d6b91d1dd","6568b2ac2a2e8dc6001b94ad","5","","","","","","","","","","","","2735","[""SV_PolicingMSA/MI_1808/IMG_10_1808.jpg"",""SV_PolicingMSA/MI_1808/IMG_4_1808.jpg"",""SV_PolicingMSA/MI_1808/IMG_0_1808.jpg"",""SV_PolicingMSA/MI_1808/IMG_5_1808.jpg"",""SV_PolicingMSA/MI_1808/IMG_7_1808.jpg"",""SV_PolicingMSA/MI_1808/IMG_3_1808.jpg"",""SV_PolicingMSA/MI_1808/IMG_13_1808.jpg"",""SV_PolicingMSA/MI_1808/IMG_14_1808.jpg""]","1","","","","","","1","","4","[""./rc_img/cop_condGroup_4_CommunitySafety_autoscaled.png"",""./rc_img/cop_condGroup_4_SafeStreets_autoscaled.png""]","1","",""
"half-way","html-button-response","76","368204","0.0-76.0","","656776a7904ae00d6b91d1dd","6568b2ac2a2e8dc6001b94ad","5","","","","","","","","","","","","3544","
    <h3>You are now half way through the study.</h3>
    <p>Please take a quick, 15-second break before you continue.</p>
    <img src='assets/img/countdown-15.gif'>
    <p>The study will automatically advance forward after the countdown is complete. <br> However, you may click ""Next"" to advance forward now if you wish.</p>
    ","0","","","","","","","","","","","",""
"before_SVSlide_prompt","html-button-response","77","371867","0.0-77.0","","656776a7904ae00d6b91d1dd","6568b2ac2a2e8dc6001b94ad","5","","","","","","","","","","","","3663","Click [Next] to see the next neighborhood!","0","","","","","","","","","","","",""
"street view slide show","image-button-response","78","372884","0.0-78.0","","656776a7904ae00d6b91d1dd","6568b2ac2a2e8dc6001b94ad","5","","","","","","","","","","","","null","stimulus/SV_PolicingMSA/MI_1822/IMG_7_1822.jpg","null","","","","","","3","","","","","",""
"street view slide show","image-button-response","79","373895","0.0-79.0","","656776a7904ae00d6b91d1dd","6568b2ac2a2e8dc6001b94ad","5","","","","","","","","","","","","null","stimulus/SV_PolicingMSA/MI_1822/IMG_9_1822.jpg","null","","","","","","3","","","","","",""
"street view slide show","image-button-response","80","374906","0.0-80.0","","656776a7904ae00d6b91d1dd","6568b2ac2a2e8dc6001b94ad","5","","","","","","","","","","","","null","stimulus/SV_PolicingMSA/MI_1822/IMG_10_1822.jpg","null","","","","","","3","","","","","",""
"street view slide show","image-button-response","81","375918","0.0-81.0","","656776a7904ae00d6b91d1dd","6568b2ac2a2e8dc6001b94ad","5","","","","","","","","","","","","null","stimulus/SV_PolicingMSA/MI_1822/IMG_3_1822.jpg","null","","","","","","3","","","","","",""
"street view slide show","image-button-response","82","376930","0.0-82.0","","656776a7904ae00d6b91d1dd","6568b2ac2a2e8dc6001b94ad","5","","","","","","","","","","","","null","stimulus/SV_PolicingMSA/MI_1822/IMG_6_1822.jpg","null","","","","","","3","","","","","",""
"street view slide show","image-button-response","83","377930","0.0-83.0","","656776a7904ae00d6b91d1dd","6568b2ac2a2e8dc6001b94ad","5","","","","","","","","","","","","null","stimulus/SV_PolicingMSA/MI_1822/IMG_0_1822.jpg","null","","","","","","3","","","","","",""
"street view slide show","image-button-response","84","378937","0.0-84.0","","656776a7904ae00d6b91d1dd","6568b2ac2a2e8dc6001b94ad","5","","","","","","","","","","","","null","stimulus/SV_PolicingMSA/MI_1822/IMG_4_1822.jpg","null","","","","","","3","","","","","",""
"street view slide show","image-button-response","85","379951","0.0-85.0","","656776a7904ae00d6b91d1dd","6568b2ac2a2e8dc6001b94ad","5","","","","","","","","","","","","null","stimulus/SV_PolicingMSA/MI_1822/IMG_5_1822.jpg","null","","","","","","3","","","","","",""
"dot matrix survey1","survey","86","391518","0.0-86.0","","656776a7904ae00d6b91d1dd","6568b2ac2a2e8dc6001b94ad","5","","","","","","","","","","","","11562","","{""P0_Q0"":null,""P0_Q1"":{""wealthy"":2,""safe"":2,""walkable"":1,""traditional"":2,""diverse"":1}}","","","","","","3","[]","","","","",""
"dot matrix survey2","survey","87","403142","0.0-87.0","","656776a7904ae00d6b91d1dd","6568b2ac2a2e8dc6001b94ad","5","","","","","","","","","","","","11620","","{""P0_Q0"":null,""P0_Q1"":{""violence"":2,""crime"":2,""drug"":2,""schools"":3,""opportunities"":2}}","","","","","","3","[]","","","","",""
"dot matrix survey3","survey","88","418764","0.0-88.0","","656776a7904ae00d6b91d1dd","6568b2ac2a2e8dc6001b94ad","5","","","","","","","","","","","","15618","","{""P0_Q0"":null,""P0_Q1"":{""movein"":2,""moveout"":3,""shopping"":3,""walk"":3,""park"":1,""school"":3}}","","","","","","3","[]","","","","",""
"sliderTrial","html-slider-response","89","426975","0.0-89.0","","656776a7904ae00d6b91d1dd","6568b2ac2a2e8dc6001b94ad","5","","","","","","","","","","","","8210","[""SV_PolicingMSA/MI_1822/IMG_7_1822.jpg"",""SV_PolicingMSA/MI_1822/IMG_9_1822.jpg"",""SV_PolicingMSA/MI_1822/IMG_10_1822.jpg"",""SV_PolicingMSA/MI_1822/IMG_3_1822.jpg"",""SV_PolicingMSA/MI_1822/IMG_6_1822.jpg"",""SV_PolicingMSA/MI_1822/IMG_0_1822.jpg"",""SV_PolicingMSA/MI_1822/IMG_4_1822.jpg"",""SV_PolicingMSA/MI_1822/IMG_5_1822.jpg""]","6","","","","","","3","","4","[""./rc_img/cop_condGroup_14_SafeStreets_autoscaled.png"",""./rc_img/cop_condGroup_14_CommunitySafety_autoscaled.png""]","2","",""
"sliderTrial","html-slider-response","90","429367","0.0-90.0","","656776a7904ae00d6b91d1dd","6568b2ac2a2e8dc6001b94ad","5","","","","","","","","","","","","2391","[""SV_PolicingMSA/MI_1822/IMG_7_1822.jpg"",""SV_PolicingMSA/MI_1822/IMG_9_1822.jpg"",""SV_PolicingMSA/MI_1822/IMG_10_1822.jpg"",""SV_PolicingMSA/MI_1822/IMG_3_1822.jpg"",""SV_PolicingMSA/MI_1822/IMG_6_1822.jpg"",""SV_PolicingMSA/MI_1822/IMG_0_1822.jpg"",""SV_PolicingMSA/MI_1822/IMG_4_1822.jpg"",""SV_PolicingMSA/MI_1822/IMG_5_1822.jpg""]","6","","","","","","3","","4","[""./rc_img/cop_condGroup_16_SafeStreets_autoscaled.png"",""./rc_img/cop_condGroup_16_CommunitySafety_autoscaled.png""]","2","",""
"sliderTrial","html-slider-response","91","433303","0.0-91.0","","656776a7904ae00d6b91d1dd","6568b2ac2a2e8dc6001b94ad","5","","","","","","","","","","","","3935","[""SV_PolicingMSA/MI_1822/IMG_7_1822.jpg"",""SV_PolicingMSA/MI_1822/IMG_9_1822.jpg"",""SV_PolicingMSA/MI_1822/IMG_10_1822.jpg"",""SV_PolicingMSA/MI_1822/IMG_3_1822.jpg"",""SV_PolicingMSA/MI_1822/IMG_6_1822.jpg"",""SV_PolicingMSA/MI_1822/IMG_0_1822.jpg"",""SV_PolicingMSA/MI_1822/IMG_4_1822.jpg"",""SV_PolicingMSA/MI_1822/IMG_5_1822.jpg""]","2","","","","","","3","","4","[""./rc_img/cop_condGroup_15_CommunitySafety_autoscaled.png"",""./rc_img/cop_condGroup_15_SafeStreets_autoscaled.png""]","2","",""
"sliderTrial","html-slider-response","92","435958","0.0-92.0","","656776a7904ae00d6b91d1dd","6568b2ac2a2e8dc6001b94ad","5","","","","","","","","","","","","2655","[""SV_PolicingMSA/MI_1822/IMG_7_1822.jpg"",""SV_PolicingMSA/MI_1822/IMG_9_1822.jpg"",""SV_PolicingMSA/MI_1822/IMG_10_1822.jpg"",""SV_PolicingMSA/MI_1822/IMG_3_1822.jpg"",""SV_PolicingMSA/MI_1822/IMG_6_1822.jpg"",""SV_PolicingMSA/MI_1822/IMG_0_1822.jpg"",""SV_PolicingMSA/MI_1822/IMG_4_1822.jpg"",""SV_PolicingMSA/MI_1822/IMG_5_1822.jpg""]","6","","","","","","3","","4","[""./rc_img/cop_condGroup_5_SafeStreets_autoscaled.png"",""./rc_img/cop_condGroup_5_CommunitySafety_autoscaled.png""]","2","",""
"sliderTrial","html-slider-response","93","439454","0.0-93.0","","656776a7904ae00d6b91d1dd","6568b2ac2a2e8dc6001b94ad","5","","","","","","","","","","","","3495","[""SV_PolicingMSA/MI_1822/IMG_7_1822.jpg"",""SV_PolicingMSA/MI_1822/IMG_9_1822.jpg"",""SV_PolicingMSA/MI_1822/IMG_10_1822.jpg"",""SV_PolicingMSA/MI_1822/IMG_3_1822.jpg"",""SV_PolicingMSA/MI_1822/IMG_6_1822.jpg"",""SV_PolicingMSA/MI_1822/IMG_0_1822.jpg"",""SV_PolicingMSA/MI_1822/IMG_4_1822.jpg"",""SV_PolicingMSA/MI_1822/IMG_5_1822.jpg""]","6","","","","","","3","","4","[""./rc_img/cop_condGroup_2_SafeStreets_autoscaled.png"",""./rc_img/cop_condGroup_2_CommunitySafety_autoscaled.png""]","2","",""
"before_SVSlide_prompt","html-button-response","94","454709","0.0-94.0","","656776a7904ae00d6b91d1dd","6568b2ac2a2e8dc6001b94ad","5","","","","","","","","","","","","15254","Click [Next] to see the next neighborhood!","0","","","","","","","","","","","",""
"street view slide show","image-button-response","95","455712","0.0-95.0","","656776a7904ae00d6b91d1dd","6568b2ac2a2e8dc6001b94ad","5","","","","","","","","","","","","null","stimulus/SV_PolicingMSA/MI_1868/IMG_10_1868.jpg","null","","","","","","2","","","","","",""
"street view slide show","image-button-response","96","456715","0.0-96.0","","656776a7904ae00d6b91d1dd","6568b2ac2a2e8dc6001b94ad","5","","","","","","","","","","","","null","stimulus/SV_PolicingMSA/MI_1868/IMG_4_1868.jpg","null","","","","","","2","","","","","",""
"street view slide show","image-button-response","97","457717","0.0-97.0","","656776a7904ae00d6b91d1dd","6568b2ac2a2e8dc6001b94ad","5","","","","","","","","","","","","null","stimulus/SV_PolicingMSA/MI_1868/IMG_13_1868.jpg","null","","","","","","2","","","","","",""
"street view slide show","image-button-response","98","458722","0.0-98.0","","656776a7904ae00d6b91d1dd","6568b2ac2a2e8dc6001b94ad","5","","","","","","","","","","","","null","stimulus/SV_PolicingMSA/MI_1868/IMG_3_1868.jpg","null","","","","","","2","","","","","",""
"street view slide show","image-button-response","99","459734","0.0-99.0","","656776a7904ae00d6b91d1dd","6568b2ac2a2e8dc6001b94ad","5","","","","","","","","","","","","null","stimulus/SV_PolicingMSA/MI_1868/IMG_1_1868.jpg","null","","","","","","2","","","","","",""
"street view slide show","image-button-response","100","460743","0.0-100.0","","656776a7904ae00d6b91d1dd","6568b2ac2a2e8dc6001b94ad","5","","","","","","","","","","","","null","stimulus/SV_PolicingMSA/MI_1868/IMG_11_1868.jpg","null","","","","","","2","","","","","",""
"street view slide show","image-button-response","101","461754","0.0-101.0","","656776a7904ae00d6b91d1dd","6568b2ac2a2e8dc6001b94ad","5","","","","","","","","","","","","null","stimulus/SV_PolicingMSA/MI_1868/IMG_0_1868.jpg","null","","","","","","2","","","","","",""
"street view slide show","image-button-response","102","462764","0.0-102.0","","656776a7904ae00d6b91d1dd","6568b2ac2a2e8dc6001b94ad","5","","","","","","","","","","","","null","stimulus/SV_PolicingMSA/MI_1868/IMG_8_1868.jpg","null","","","","","","2","","","","","",""
"dot matrix survey1","survey","103","473440","0.0-103.0","","656776a7904ae00d6b91d1dd","6568b2ac2a2e8dc6001b94ad","5","","","","","","","","","","","","10671","","{""P0_Q0"":null,""P0_Q1"":{""wealthy"":1,""safe"":3,""walkable"":3,""traditional"":3,""diverse"":2}}","","","","","","2","[]","","","","",""
"dot matrix survey2","survey","104","483863","0.0-104.0","","656776a7904ae00d6b91d1dd","6568b2ac2a2e8dc6001b94ad","5","","","","","","","","","","","","10419","","{""P0_Q0"":null,""P0_Q1"":{""violence"":2,""crime"":2,""drug"":1,""schools"":3,""opportunities"":2}}","","","","","","2","[]","","","","",""
"dot matrix survey3","survey","105","500679","0.0-105.0","","656776a7904ae00d6b91d1dd","6568b2ac2a2e8dc6001b94ad","5","","","","","","","","","","","","16812","","{""P0_Q0"":null,""P0_Q1"":{""movein"":2,""moveout"":2,""shopping"":3,""walk"":3,""park"":1,""school"":3}}","","","","","","2","[]","","","","",""
"sliderTrial","html-slider-response","106","503922","0.0-106.0","","656776a7904ae00d6b91d1dd","6568b2ac2a2e8dc6001b94ad","5","","","","","","","","","","","","3242","[""SV_PolicingMSA/MI_1868/IMG_10_1868.jpg"",""SV_PolicingMSA/MI_1868/IMG_4_1868.jpg"",""SV_PolicingMSA/MI_1868/IMG_13_1868.jpg"",""SV_PolicingMSA/MI_1868/IMG_3_1868.jpg"",""SV_PolicingMSA/MI_1868/IMG_1_1868.jpg"",""SV_PolicingMSA/MI_1868/IMG_11_1868.jpg"",""SV_PolicingMSA/MI_1868/IMG_0_1868.jpg"",""SV_PolicingMSA/MI_1868/IMG_8_1868.jpg""]","7","","","","","","2","","4","[""./rc_img/cop_condGroup_6_SafeStreets_autoscaled.png"",""./rc_img/cop_condGroup_6_CommunitySafety_autoscaled.png""]","1","",""
"sliderTrial","html-slider-response","107","507401","0.0-107.0","","656776a7904ae00d6b91d1dd","6568b2ac2a2e8dc6001b94ad","5","","","","","","","","","","","","3479","[""SV_PolicingMSA/MI_1868/IMG_10_1868.jpg"",""SV_PolicingMSA/MI_1868/IMG_4_1868.jpg"",""SV_PolicingMSA/MI_1868/IMG_13_1868.jpg"",""SV_PolicingMSA/MI_1868/IMG_3_1868.jpg"",""SV_PolicingMSA/MI_1868/IMG_1_1868.jpg"",""SV_PolicingMSA/MI_1868/IMG_11_1868.jpg"",""SV_PolicingMSA/MI_1868/IMG_0_1868.jpg"",""SV_PolicingMSA/MI_1868/IMG_8_1868.jpg""]","7","","","","","","2","","4","[""./rc_img/cop_condGroup_8_SafeStreets_autoscaled.png"",""./rc_img/cop_condGroup_8_CommunitySafety_autoscaled.png""]","1","",""
"sliderTrial","html-slider-response","108","514585","0.0-108.0","","656776a7904ae00d6b91d1dd","6568b2ac2a2e8dc6001b94ad","5","","","","","","","","","","","","7183","[""SV_PolicingMSA/MI_1868/IMG_10_1868.jpg"",""SV_PolicingMSA/MI_1868/IMG_4_1868.jpg"",""SV_PolicingMSA/MI_1868/IMG_13_1868.jpg"",""SV_PolicingMSA/MI_1868/IMG_3_1868.jpg"",""SV_PolicingMSA/MI_1868/IMG_1_1868.jpg"",""SV_PolicingMSA/MI_1868/IMG_11_1868.jpg"",""SV_PolicingMSA/MI_1868/IMG_0_1868.jpg"",""SV_PolicingMSA/MI_1868/IMG_8_1868.jpg""]","7","","","","","","2","","4","[""./rc_img/cop_condGroup_19_SafeStreets_autoscaled.png"",""./rc_img/cop_condGroup_19_CommunitySafety_autoscaled.png""]","1","",""
"sliderTrial","html-slider-response","109","517321","0.0-109.0","","656776a7904ae00d6b91d1dd","6568b2ac2a2e8dc6001b94ad","5","","","","","","","","","","","","2735","[""SV_PolicingMSA/MI_1868/IMG_10_1868.jpg"",""SV_PolicingMSA/MI_1868/IMG_4_1868.jpg"",""SV_PolicingMSA/MI_1868/IMG_13_1868.jpg"",""SV_PolicingMSA/MI_1868/IMG_3_1868.jpg"",""SV_PolicingMSA/MI_1868/IMG_1_1868.jpg"",""SV_PolicingMSA/MI_1868/IMG_11_1868.jpg"",""SV_PolicingMSA/MI_1868/IMG_0_1868.jpg"",""SV_PolicingMSA/MI_1868/IMG_8_1868.jpg""]","1","","","","","","2","","4","[""./rc_img/cop_condGroup_3_CommunitySafety_autoscaled.png"",""./rc_img/cop_condGroup_3_SafeStreets_autoscaled.png""]","1","",""
"sliderTrial","html-slider-response","110","519873","0.0-110.0","","656776a7904ae00d6b91d1dd","6568b2ac2a2e8dc6001b94ad","5","","","","","","","","","","","","2551","[""SV_PolicingMSA/MI_1868/IMG_10_1868.jpg"",""SV_PolicingMSA/MI_1868/IMG_4_1868.jpg"",""SV_PolicingMSA/MI_1868/IMG_13_1868.jpg"",""SV_PolicingMSA/MI_1868/IMG_3_1868.jpg"",""SV_PolicingMSA/MI_1868/IMG_1_1868.jpg"",""SV_PolicingMSA/MI_1868/IMG_11_1868.jpg"",""SV_PolicingMSA/MI_1868/IMG_0_1868.jpg"",""SV_PolicingMSA/MI_1868/IMG_8_1868.jpg""]","7","","","","","","2","","4","[""./rc_img/cop_condGroup_11_SafeStreets_autoscaled.png"",""./rc_img/cop_condGroup_11_CommunitySafety_autoscaled.png""]","1","",""
"before_SVSlide_prompt","html-button-response","111","521137","0.0-111.0","","656776a7904ae00d6b91d1dd","6568b2ac2a2e8dc6001b94ad","5","","","","","","","","","","","","1263","Click [Next] to see the next neighborhood!","0","","","","","","","","","","","",""
"street view slide show","image-button-response","112","522144","0.0-112.0","","656776a7904ae00d6b91d1dd","6568b2ac2a2e8dc6001b94ad","5","","","","","","","","","","","","null","stimulus/SV_PolicingMSA/MI_1103/IMG_5_1103.jpg","null","","","","","","5","","","","","",""
"street view slide show","image-button-response","113","523155","0.0-113.0","","656776a7904ae00d6b91d1dd","6568b2ac2a2e8dc6001b94ad","5","","","","","","","","","","","","null","stimulus/SV_PolicingMSA/MI_1103/IMG_9_1103.jpg","null","","","","","","5","","","","","",""
"street view slide show","image-button-response","114","524167","0.0-114.0","","656776a7904ae00d6b91d1dd","6568b2ac2a2e8dc6001b94ad","5","","","","","","","","","","","","null","stimulus/SV_PolicingMSA/MI_1103/IMG_13_1103.jpg","null","","","","","","5","","","","","",""
"street view slide show","image-button-response","115","525176","0.0-115.0","","656776a7904ae00d6b91d1dd","6568b2ac2a2e8dc6001b94ad","5","","","","","","","","","","","","null","stimulus/SV_PolicingMSA/MI_1103/IMG_8_1103.jpg","null","","","","","","5","","","","","",""
"street view slide show","image-button-response","116","526182","0.0-116.0","","656776a7904ae00d6b91d1dd","6568b2ac2a2e8dc6001b94ad","5","","","","","","","","","","","","null","stimulus/SV_PolicingMSA/MI_1103/IMG_12_1103.jpg","null","","","","","","5","","","","","",""
"street view slide show","image-button-response","117","527188","0.0-117.0","","656776a7904ae00d6b91d1dd","6568b2ac2a2e8dc6001b94ad","5","","","","","","","","","","","","null","stimulus/SV_PolicingMSA/MI_1103/IMG_2_1103.jpg","null","","","","","","5","","","","","",""
"street view slide show","image-button-response","118","528202","0.0-118.0","","656776a7904ae00d6b91d1dd","6568b2ac2a2e8dc6001b94ad","5","","","","","","","","","","","","null","stimulus/SV_PolicingMSA/MI_1103/IMG_0_1103.jpg","null","","","","","","5","","","","","",""
"street view slide show","image-button-response","119","529212","0.0-119.0","","656776a7904ae00d6b91d1dd","6568b2ac2a2e8dc6001b94ad","5","","","","","","","","","","","","null","stimulus/SV_PolicingMSA/MI_1103/IMG_1_1103.jpg","null","","","","","","5","","","","","",""
"dot matrix survey1","survey","120","539147","0.0-120.0","","656776a7904ae00d6b91d1dd","6568b2ac2a2e8dc6001b94ad","5","","","","","","","","","","","","9930","","{""P0_Q0"":null,""P0_Q1"":{""wealthy"":3,""safe"":3,""walkable"":3,""traditional"":2,""diverse"":2}}","","","","","","5","[]","","","","",""
"dot matrix survey2","survey","121","547731","0.0-121.0","","656776a7904ae00d6b91d1dd","6568b2ac2a2e8dc6001b94ad","5","","","","","","","","","","","","8580","","{""P0_Q0"":null,""P0_Q1"":{""violence"":2,""crime"":1,""drug"":1,""schools"":3,""opportunities"":2}}","","","","","","5","[]","","","","",""
"dot matrix survey3","survey","122","559298","0.0-122.0","","656776a7904ae00d6b91d1dd","6568b2ac2a2e8dc6001b94ad","5","","","","","","","","","","","","11563","","{""P0_Q0"":null,""P0_Q1"":{""movein"":2,""moveout"":2,""shopping"":3,""walk"":3,""park"":2,""school"":3}}","","","","","","5","[]","","","","",""
"sliderTrial","html-slider-response","123","577021","0.0-123.0","","656776a7904ae00d6b91d1dd","6568b2ac2a2e8dc6001b94ad","5","","","","","","","","","","","","17721","[""SV_PolicingMSA/MI_1103/IMG_5_1103.jpg"",""SV_PolicingMSA/MI_1103/IMG_9_1103.jpg"",""SV_PolicingMSA/MI_1103/IMG_13_1103.jpg"",""SV_PolicingMSA/MI_1103/IMG_8_1103.jpg"",""SV_PolicingMSA/MI_1103/IMG_12_1103.jpg"",""SV_PolicingMSA/MI_1103/IMG_2_1103.jpg"",""SV_PolicingMSA/MI_1103/IMG_0_1103.jpg"",""SV_PolicingMSA/MI_1103/IMG_1_1103.jpg""]","7","","","","","","5","","4","[""./rc_img/cop_condGroup_14_SafeStreets_autoscaled.png"",""./rc_img/cop_condGroup_14_CommunitySafety_autoscaled.png""]","1","",""
"sliderTrial","html-slider-response","124","584612","0.0-124.0","","656776a7904ae00d6b91d1dd","6568b2ac2a2e8dc6001b94ad","5","","","","","","","","","","","","7590","[""SV_PolicingMSA/MI_1103/IMG_5_1103.jpg"",""SV_PolicingMSA/MI_1103/IMG_9_1103.jpg"",""SV_PolicingMSA/MI_1103/IMG_13_1103.jpg"",""SV_PolicingMSA/MI_1103/IMG_8_1103.jpg"",""SV_PolicingMSA/MI_1103/IMG_12_1103.jpg"",""SV_PolicingMSA/MI_1103/IMG_2_1103.jpg"",""SV_PolicingMSA/MI_1103/IMG_0_1103.jpg"",""SV_PolicingMSA/MI_1103/IMG_1_1103.jpg""]","7","","","","","","5","","4","[""./rc_img/cop_condGroup_16_SafeStreets_autoscaled.png"",""./rc_img/cop_condGroup_16_CommunitySafety_autoscaled.png""]","1","",""
"sliderTrial","html-slider-response","125","586876","0.0-125.0","","656776a7904ae00d6b91d1dd","6568b2ac2a2e8dc6001b94ad","5","","","","","","","","","","","","2263","[""SV_PolicingMSA/MI_1103/IMG_5_1103.jpg"",""SV_PolicingMSA/MI_1103/IMG_9_1103.jpg"",""SV_PolicingMSA/MI_1103/IMG_13_1103.jpg"",""SV_PolicingMSA/MI_1103/IMG_8_1103.jpg"",""SV_PolicingMSA/MI_1103/IMG_12_1103.jpg"",""SV_PolicingMSA/MI_1103/IMG_2_1103.jpg"",""SV_PolicingMSA/MI_1103/IMG_0_1103.jpg"",""SV_PolicingMSA/MI_1103/IMG_1_1103.jpg""]","1","","","","","","5","","4","[""./rc_img/cop_condGroup_15_CommunitySafety_autoscaled.png"",""./rc_img/cop_condGroup_15_SafeStreets_autoscaled.png""]","1","",""
"sliderTrial","html-slider-response","126","589275","0.0-126.0","","656776a7904ae00d6b91d1dd","6568b2ac2a2e8dc6001b94ad","5","","","","","","","","","","","","2399","[""SV_PolicingMSA/MI_1103/IMG_5_1103.jpg"",""SV_PolicingMSA/MI_1103/IMG_9_1103.jpg"",""SV_PolicingMSA/MI_1103/IMG_13_1103.jpg"",""SV_PolicingMSA/MI_1103/IMG_8_1103.jpg"",""SV_PolicingMSA/MI_1103/IMG_12_1103.jpg"",""SV_PolicingMSA/MI_1103/IMG_2_1103.jpg"",""SV_PolicingMSA/MI_1103/IMG_0_1103.jpg"",""SV_PolicingMSA/MI_1103/IMG_1_1103.jpg""]","7","","","","","","5","","4","[""./rc_img/cop_condGroup_5_SafeStreets_autoscaled.png"",""./rc_img/cop_condGroup_5_CommunitySafety_autoscaled.png""]","1","",""
"sliderTrial","html-slider-response","127","591723","0.0-127.0","","656776a7904ae00d6b91d1dd","6568b2ac2a2e8dc6001b94ad","5","","","","","","","","","","","","2447","[""SV_PolicingMSA/MI_1103/IMG_5_1103.jpg"",""SV_PolicingMSA/MI_1103/IMG_9_1103.jpg"",""SV_PolicingMSA/MI_1103/IMG_13_1103.jpg"",""SV_PolicingMSA/MI_1103/IMG_8_1103.jpg"",""SV_PolicingMSA/MI_1103/IMG_12_1103.jpg"",""SV_PolicingMSA/MI_1103/IMG_2_1103.jpg"",""SV_PolicingMSA/MI_1103/IMG_0_1103.jpg"",""SV_PolicingMSA/MI_1103/IMG_1_1103.jpg""]","7","","","","","","5","","4","[""./rc_img/cop_condGroup_2_SafeStreets_autoscaled.png"",""./rc_img/cop_condGroup_2_CommunitySafety_autoscaled.png""]","1","",""
"before_SVSlide_prompt","html-button-response","128","593139","0.0-128.0","","656776a7904ae00d6b91d1dd","6568b2ac2a2e8dc6001b94ad","5","","","","","","","","","","","","1415","Click [Next] to see the next neighborhood!","0","","","","","","","","","","","",""
"street view slide show","image-button-response","129","594151","0.0-129.0","","656776a7904ae00d6b91d1dd","6568b2ac2a2e8dc6001b94ad","5","","","","","","","","","","","","null","stimulus/SV_PolicingMSA/MI_2578/IMG_12_2578.jpg","null","","","","","","2","","","","","",""
"street view slide show","image-button-response","130","595152","0.0-130.0","","656776a7904ae00d6b91d1dd","6568b2ac2a2e8dc6001b94ad","5","","","","","","","","","","","","null","stimulus/SV_PolicingMSA/MI_2578/IMG_1_2578.jpg","null","","","","","","2","","","","","",""
"street view slide show","image-button-response","131","596168","0.0-131.0","","656776a7904ae00d6b91d1dd","6568b2ac2a2e8dc6001b94ad","5","","","","","","","","","","","","null","stimulus/SV_PolicingMSA/MI_2578/IMG_4_2578.jpg","null","","","","","","2","","","","","",""
"street view slide show","image-button-response","132","597183","0.0-132.0","","656776a7904ae00d6b91d1dd","6568b2ac2a2e8dc6001b94ad","5","","","","","","","","","","","","null","stimulus/SV_PolicingMSA/MI_2578/IMG_9_2578.jpg","null","","","","","","2","","","","","",""
"street view slide show","image-button-response","133","598197","0.0-133.0","","656776a7904ae00d6b91d1dd","6568b2ac2a2e8dc6001b94ad","5","","","","","","","","","","","","null","stimulus/SV_PolicingMSA/MI_2578/IMG_0_2578.jpg","null","","","","","","2","","","","","",""
"street view slide show","image-button-response","134","599212","0.0-134.0","","656776a7904ae00d6b91d1dd","6568b2ac2a2e8dc6001b94ad","5","","","","","","","","","","","","null","stimulus/SV_PolicingMSA/MI_2578/IMG_7_2578.jpg","null","","","","","","2","","","","","",""
"street view slide show","image-button-response","135","600227","0.0-135.0","","656776a7904ae00d6b91d1dd","6568b2ac2a2e8dc6001b94ad","5","","","","","","","","","","","","null","stimulus/SV_PolicingMSA/MI_2578/IMG_6_2578.jpg","null","","","","","","2","","","","","",""
"street view slide show","image-button-response","136","601240","0.0-136.0","","656776a7904ae00d6b91d1dd","6568b2ac2a2e8dc6001b94ad","5","","","","","","","","","","","","null","stimulus/SV_PolicingMSA/MI_2578/IMG_11_2578.jpg","null","","","","","","2","","","","","",""
"dot matrix survey1","survey","137","614582","0.0-137.0","","656776a7904ae00d6b91d1dd","6568b2ac2a2e8dc6001b94ad","5","","","","","","","","","","","","13335","","{""P0_Q0"":null,""P0_Q1"":{""wealthy"":1,""safe"":2,""walkable"":0,""traditional"":3,""diverse"":1}}","","","","","","2","[]","","","","",""
"dot matrix survey2","survey","138","623701","0.0-138.0","","656776a7904ae00d6b91d1dd","6568b2ac2a2e8dc6001b94ad","5","","","","","","","","","","","","9115","","{""P0_Q0"":null,""P0_Q1"":{""violence"":2,""drug"":3,""crime"":2,""schools"":1,""opportunities"":1}}","","","","","","2","[]","","","","",""
"dot matrix survey3","survey","139","636477","0.0-139.0","","656776a7904ae00d6b91d1dd","6568b2ac2a2e8dc6001b94ad","5","","","","","","","","","","","","12772","","{""P0_Q0"":null,""P0_Q1"":{""movein"":0,""moveout"":4,""shopping"":2,""walk"":0,""park"":1,""school"":0}}","","","","","","2","[]","","","","",""
"sliderTrial","html-slider-response","140","639136","0.0-140.0","","656776a7904ae00d6b91d1dd","6568b2ac2a2e8dc6001b94ad","5","","","","","","","","","","","","2658","[""SV_PolicingMSA/MI_2578/IMG_12_2578.jpg"",""SV_PolicingMSA/MI_2578/IMG_1_2578.jpg"",""SV_PolicingMSA/MI_2578/IMG_4_2578.jpg"",""SV_PolicingMSA/MI_2578/IMG_9_2578.jpg"",""SV_PolicingMSA/MI_2578/IMG_0_2578.jpg"",""SV_PolicingMSA/MI_2578/IMG_7_2578.jpg"",""SV_PolicingMSA/MI_2578/IMG_6_2578.jpg"",""SV_PolicingMSA/MI_2578/IMG_11_2578.jpg""]","7","","","","","","2","","4","[""./rc_img/cop_condGroup_9_SafeStreets_autoscaled.png"",""./rc_img/cop_condGroup_9_CommunitySafety_autoscaled.png""]","1","",""
"sliderTrial","html-slider-response","141","642919","0.0-141.0","","656776a7904ae00d6b91d1dd","6568b2ac2a2e8dc6001b94ad","5","","","","","","","","","","","","3783","[""SV_PolicingMSA/MI_2578/IMG_12_2578.jpg"",""SV_PolicingMSA/MI_2578/IMG_1_2578.jpg"",""SV_PolicingMSA/MI_2578/IMG_4_2578.jpg"",""SV_PolicingMSA/MI_2578/IMG_9_2578.jpg"",""SV_PolicingMSA/MI_2578/IMG_0_2578.jpg"",""SV_PolicingMSA/MI_2578/IMG_7_2578.jpg"",""SV_PolicingMSA/MI_2578/IMG_6_2578.jpg"",""SV_PolicingMSA/MI_2578/IMG_11_2578.jpg""]","1","","","","","","2","","4","[""./rc_img/cop_condGroup_12_CommunitySafety_autoscaled.png"",""./rc_img/cop_condGroup_12_SafeStreets_autoscaled.png""]","1","",""
"sliderTrial","html-slider-response","142","645455","0.0-142.0","","656776a7904ae00d6b91d1dd","6568b2ac2a2e8dc6001b94ad","5","","","","","","","","","","","","2535","[""SV_PolicingMSA/MI_2578/IMG_12_2578.jpg"",""SV_PolicingMSA/MI_2578/IMG_1_2578.jpg"",""SV_PolicingMSA/MI_2578/IMG_4_2578.jpg"",""SV_PolicingMSA/MI_2578/IMG_9_2578.jpg"",""SV_PolicingMSA/MI_2578/IMG_0_2578.jpg"",""SV_PolicingMSA/MI_2578/IMG_7_2578.jpg"",""SV_PolicingMSA/MI_2578/IMG_6_2578.jpg"",""SV_PolicingMSA/MI_2578/IMG_11_2578.jpg""]","1","","","","","","2","","4","[""./rc_img/cop_condGroup_1_CommunitySafety_autoscaled.png"",""./rc_img/cop_condGroup_1_SafeStreets_autoscaled.png""]","1","",""
"sliderTrial","html-slider-response","143","648095","0.0-143.0","","656776a7904ae00d6b91d1dd","6568b2ac2a2e8dc6001b94ad","5","","","","","","","","","","","","2639","[""SV_PolicingMSA/MI_2578/IMG_12_2578.jpg"",""SV_PolicingMSA/MI_2578/IMG_1_2578.jpg"",""SV_PolicingMSA/MI_2578/IMG_4_2578.jpg"",""SV_PolicingMSA/MI_2578/IMG_9_2578.jpg"",""SV_PolicingMSA/MI_2578/IMG_0_2578.jpg"",""SV_PolicingMSA/MI_2578/IMG_7_2578.jpg"",""SV_PolicingMSA/MI_2578/IMG_6_2578.jpg"",""SV_PolicingMSA/MI_2578/IMG_11_2578.jpg""]","1","","","","","","2","","4","[""./rc_img/cop_condGroup_20_CommunitySafety_autoscaled.png"",""./rc_img/cop_condGroup_20_SafeStreets_autoscaled.png""]","1","",""
"sliderTrial","html-slider-response","144","650471","0.0-144.0","","656776a7904ae00d6b91d1dd","6568b2ac2a2e8dc6001b94ad","5","","","","","","","","","","","","2375","[""SV_PolicingMSA/MI_2578/IMG_12_2578.jpg"",""SV_PolicingMSA/MI_2578/IMG_1_2578.jpg"",""SV_PolicingMSA/MI_2578/IMG_4_2578.jpg"",""SV_PolicingMSA/MI_2578/IMG_9_2578.jpg"",""SV_PolicingMSA/MI_2578/IMG_0_2578.jpg"",""SV_PolicingMSA/MI_2578/IMG_7_2578.jpg"",""SV_PolicingMSA/MI_2578/IMG_6_2578.jpg"",""SV_PolicingMSA/MI_2578/IMG_11_2578.jpg""]","1","","","","","","2","","4","[""./rc_img/cop_condGroup_17_CommunitySafety_autoscaled.png"",""./rc_img/cop_condGroup_17_SafeStreets_autoscaled.png""]","1","",""
"demographics","survey-html-form","145","668622","0.0-145.0","","656776a7904ae00d6b91d1dd","6568b2ac2a2e8dc6001b94ad","5","","","","","","","","","","","","18150","","{""age"":""35"",""sex"":""male"",""gender"":""nonbinary"",""gender-self-describe"":""agender"",""zipcode"":""11237""}","","","","","","","","","","","",""
"demographics-list","survey","146","691904","0.0-146.0","","656776a7904ae00d6b91d1dd","6568b2ac2a2e8dc6001b94ad","5","","","","","","","","","","","","23266","","{""P0_Q0"":null,""race-ethnicity"":[""White or of European ancestry""],""education"":""Some college"",""P1_Q0"":null,""ideology"":""Very Liberal"",""P2_Q0"":null,""num-moves"":3,""P3_Q0"":null,""social-ladder"":3}","","","","","","","[]","","","","",""
"end-survey","survey-text","147","696876","0.0-147.0","","656776a7904ae00d6b91d1dd","6568b2ac2a2e8dc6001b94ad","5","","","","","","","","","","","","4966","","{""Q0"":""""}","","","","","","","","","","","","2"
"end-survey","html-button-response","148","698348","0.0-148.0","","656776a7904ae00d6b91d1dd","6568b2ac2a2e8dc6001b94ad","5","","","","","","","","","","","","1471","
    You've reached the end of the survey. <br><br> 
    <b>Do not close or refresh this window.</b><br>
    On the next page, you will be automatically redirected to Prolific. <br><br>

    <div class=""alert alert-warning""><b>
    </div>
","0","","","","","","","","","","","",""
