"task","trial_type","trial_index","time_elapsed","internal_node_id","subject_id","study_id","session_id","section","width","height","webaudio","browser","browser_version","mobile","os","fullscreen","vsync_rate","webcam","microphone","rt","stimulus","response","success","timeout","failed_images","failed_audio","failed_video","block","accuracy","slider_start","choices","standardized_response","correct","num_attention_checks_correct"
"pavlovia-init","pavlovia","0","1235","0.0-0.0","","656776a7904ae00d6b91d1dd","6568ade3272517370d401596","5","","","","","","","","","","","","","","","","","","","","","","","","","",""
"browser-check","browser-check","1","8585","0.0-1.0","","656776a7904ae00d6b91d1dd","6568ade3272517370d401596","5","1920","923","true","chrome","119.0.0","false","Windows 10","true","60.19","true","true","","","","","","","","","","","","","","",""
"consent","html-button-response","2","10734","0.0-2.0","","656776a7904ae00d6b91d1dd","6568ade3272517370d401596","5","","","","","","","","","","","","2147","
        <div style=""font-size: 80%; max-width:700px"">
            <h2>CONSENT FORM</h2>
        
            <div style=""text-align: left"">
            <h4>DESCRIPTION</h4>
            <p>
            You will complete a short task where you give your impressions of various neighborhoods and assign individuals to those spaces, and answer some questions about your thoughts and opinions.<br>
            The University of Michigan Institutional Review Board Health Sciences and Behavioral Sciences has determined that this study is exempt from IRB oversight.
            </p>

            <h4>TIME INVOLVEMENT</h4>
            <p>Your participation will take approximately 15 minutes. You will receive $3.15 upon completion of the study.</p>
        
            <h4>RISKS AND BENEFITS</h4>
            <p>
            The risks associated with this study are minimal. The benefits which may reasonably be expected to result from this study are none. We cannot and do not guarantee or promise that you will receive any benefits from this study.
            </p>
          
            <h4>SUBJECT'S RIGHTS</h4>
            <p>
            If you have read this form and have decided to participate in this project, please understand your participation is voluntary and you have the right to withdraw your consent or discontinue participation at any time without penalty or loss of benefits to which you are otherwise entitled. The alternative is not to participate. You have the right to refuse to answer particular questions. Your individual privacy will be maintained in all published and written data resulting from the study.
            </p>

            <h4>HUMAN SUBJECT APPROVAL</h4>
            <p>
            This study is exempt from ongoing IRB review.
            </p>

            <h4>CONTACT INFORMATION</h4>
            If you have any questions, concerns or complaints about this research, its procedures, risks and benefits, contact the Protocol Director, Nicholas Camp, npcamp@umich.edu, (443) 851-6783. <br>

            If you have questions about your rights as a research participant, or wish to obtain information, ask questions or discuss any concerns about this study with someone other than the researcher(s), please contact the following:<br><br>
            University of Michigan<br>
            Health Sciences and Behavioral Sciences Institutional Review Board (IRB-HSBS)<br>
            2800 Plymouth Road<br>
            Building 520, Room 1169Ann Arbor, MI 48109-2800<br>
            Telephone: 734-936-0933 or toll free (866) 936-0933<br>
            Fax: 734-936-1852<br>
            E-mail: irbhsbs@umich.edu<br><br>

            You can also contact the University of Michigan Compliance Hotline at 1-866-990-0111. You may also print this consent form to keep.
            <br><br>
            <div class=""alert alert-warning""><b>
            Do you consent to participate in this study? If you consent to participate in this study, please click “Accept and Continue”. If you select ""Decline and Exit"", you will be exited from the survey. <br>
            </b></div>
            </div>
        </div>
    ","1","","","","","","","","","","","",""
"","preload","3","16804","0.0-3.0","","656776a7904ae00d6b91d1dd","6568ade3272517370d401596","5","","","","","","","","","","","","","","","true","false","[]","[]","[]","","","","","","",""
"instructions","html-button-response","4","36627","0.0-4.0","","656776a7904ae00d6b91d1dd","6568ade3272517370d401596","5","","","","","","","","","","","","19811","
        <div class=""text-container"">
        <h1>Welcome to the study!</h1>
        
        <div class=""text-left"">
            <p>
                In this study, we are interested in what people can tell about spaces from Google Street View images. <br> Google Street View takes pictures of streets used for Google Earth and Google Maps. <br>You’ll see Google Street View images of different places and answer some questions about each one.<br>
            </p>
        </div>
        <img src = ""assets/img/example.png"" width = 500px, height = auto>
        <br>
    <br>
    ","0","","","","","","","","","","","",""
"instructions","html-button-response","5","38879","0.0-5.0","","656776a7904ae00d6b91d1dd","6568ade3272517370d401596","5","","","","","","","","","","","","2250","
    <div class=""text-container"">
        <div class=""text-center"">
            <p>Please remember that your answers are completely anonymous.<br>Go with your gut response- there are no right or wrong answers!</p>
        </div>
    <br>
","0","","","","","","","","","","","",""
"before_SVSlide_prompt","html-button-response","6","39703","0.0-6.0","","656776a7904ae00d6b91d1dd","6568ade3272517370d401596","5","","","","","","","","","","","","824","Click [Next] to see the next neighborhood!","0","","","","","","","","","","","",""
"street view slide show","image-button-response","7","40707","0.0-7.0","","656776a7904ae00d6b91d1dd","6568ade3272517370d401596","5","","","","","","","","","","","","null","stimulus/SV_PolicingMSA/MI_1103/IMG_5_1103.jpg","null","","","","","","5","","","","","",""
"street view slide show","image-button-response","8","41709","0.0-8.0","","656776a7904ae00d6b91d1dd","6568ade3272517370d401596","5","","","","","","","","","","","","null","stimulus/SV_PolicingMSA/MI_1103/IMG_9_1103.jpg","null","","","","","","5","","","","","",""
"street view slide show","image-button-response","9","42711","0.0-9.0","","656776a7904ae00d6b91d1dd","6568ade3272517370d401596","5","","","","","","","","","","","","null","stimulus/SV_PolicingMSA/MI_1103/IMG_13_1103.jpg","null","","","","","","5","","","","","",""
"street view slide show","image-button-response","10","43720","0.0-10.0","","656776a7904ae00d6b91d1dd","6568ade3272517370d401596","5","","","","","","","","","","","","null","stimulus/SV_PolicingMSA/MI_1103/IMG_8_1103.jpg","null","","","","","","5","","","","","",""
"street view slide show","image-button-response","11","44733","0.0-11.0","","656776a7904ae00d6b91d1dd","6568ade3272517370d401596","5","","","","","","","","","","","","null","stimulus/SV_PolicingMSA/MI_1103/IMG_12_1103.jpg","null","","","","","","5","","","","","",""
"street view slide show","image-button-response","12","45744","0.0-12.0","","656776a7904ae00d6b91d1dd","6568ade3272517370d401596","5","","","","","","","","","","","","null","stimulus/SV_PolicingMSA/MI_1103/IMG_2_1103.jpg","null","","","","","","5","","","","","",""
"street view slide show","image-button-response","13","46758","0.0-13.0","","656776a7904ae00d6b91d1dd","6568ade3272517370d401596","5","","","","","","","","","","","","null","stimulus/SV_PolicingMSA/MI_1103/IMG_0_1103.jpg","null","","","","","","5","","","","","",""
"street view slide show","image-button-response","14","47768","0.0-14.0","","656776a7904ae00d6b91d1dd","6568ade3272517370d401596","5","","","","","","","","","","","","null","stimulus/SV_PolicingMSA/MI_1103/IMG_1_1103.jpg","null","","","","","","5","","","","","",""
"dot matrix survey1","survey","15","58339","0.0-15.0","","656776a7904ae00d6b91d1dd","6568ade3272517370d401596","5","","","","","","","","","","","","10526","","{""P0_Q0"":null,""P0_Q1"":{""wealthy"":1,""safe"":1,""walkable"":2,""traditional"":1,""diverse"":1}}","","","","","","5","[]","","","","",""
"dot matrix survey2","survey","16","68173","0.0-16.0","","656776a7904ae00d6b91d1dd","6568ade3272517370d401596","5","","","","","","","","","","","","9823","","{""P0_Q0"":null,""P0_Q1"":{""violence"":2,""crime"":2,""drug"":2,""opportunities"":2,""schools"":2}}","","","","","","5","[]","","","","",""
"dot matrix survey3","survey","17","73963","0.0-17.0","","656776a7904ae00d6b91d1dd","6568ade3272517370d401596","5","","","","","","","","","","","","5782","","{""P0_Q0"":null,""P0_Q1"":{""movein"":0,""moveout"":0,""shopping"":0,""walk"":0,""park"":0,""school"":0}}","","","","","","5","[]","","","","",""
"sliderTrial","html-slider-response","18","82911","0.0-18.0","","656776a7904ae00d6b91d1dd","6568ade3272517370d401596","5","","","","","","","","","","","","8946","[""SV_PolicingMSA/MI_1103/IMG_5_1103.jpg"",""SV_PolicingMSA/MI_1103/IMG_9_1103.jpg"",""SV_PolicingMSA/MI_1103/IMG_13_1103.jpg"",""SV_PolicingMSA/MI_1103/IMG_8_1103.jpg"",""SV_PolicingMSA/MI_1103/IMG_12_1103.jpg"",""SV_PolicingMSA/MI_1103/IMG_2_1103.jpg"",""SV_PolicingMSA/MI_1103/IMG_0_1103.jpg"",""SV_PolicingMSA/MI_1103/IMG_1_1103.jpg""]","1","","","","","","5","","4","[""./rc_img/cop_condGroup_7_CommunitySafety_autoscaled.png"",""./rc_img/cop_condGroup_7_SafeStreets_autoscaled.png""]","1","",""
"sliderTrial","html-slider-response","19","86465","0.0-19.0","","656776a7904ae00d6b91d1dd","6568ade3272517370d401596","5","","","","","","","","","","","","3552","[""SV_PolicingMSA/MI_1103/IMG_5_1103.jpg"",""SV_PolicingMSA/MI_1103/IMG_9_1103.jpg"",""SV_PolicingMSA/MI_1103/IMG_13_1103.jpg"",""SV_PolicingMSA/MI_1103/IMG_8_1103.jpg"",""SV_PolicingMSA/MI_1103/IMG_12_1103.jpg"",""SV_PolicingMSA/MI_1103/IMG_2_1103.jpg"",""SV_PolicingMSA/MI_1103/IMG_0_1103.jpg"",""SV_PolicingMSA/MI_1103/IMG_1_1103.jpg""]","7","","","","","","5","","4","[""./rc_img/cop_condGroup_13_SafeStreets_autoscaled.png"",""./rc_img/cop_condGroup_13_CommunitySafety_autoscaled.png""]","1","",""
"sliderTrial","html-slider-response","20","89414","0.0-20.0","","656776a7904ae00d6b91d1dd","6568ade3272517370d401596","5","","","","","","","","","","","","2948","[""SV_PolicingMSA/MI_1103/IMG_5_1103.jpg"",""SV_PolicingMSA/MI_1103/IMG_9_1103.jpg"",""SV_PolicingMSA/MI_1103/IMG_13_1103.jpg"",""SV_PolicingMSA/MI_1103/IMG_8_1103.jpg"",""SV_PolicingMSA/MI_1103/IMG_12_1103.jpg"",""SV_PolicingMSA/MI_1103/IMG_2_1103.jpg"",""SV_PolicingMSA/MI_1103/IMG_0_1103.jpg"",""SV_PolicingMSA/MI_1103/IMG_1_1103.jpg""]","2","","","","","","5","","4","[""./rc_img/cop_condGroup_17_CommunitySafety_autoscaled.png"",""./rc_img/cop_condGroup_17_SafeStreets_autoscaled.png""]","2","",""
"sliderTrial","html-slider-response","21","91526","0.0-21.0","","656776a7904ae00d6b91d1dd","6568ade3272517370d401596","5","","","","","","","","","","","","2110","[""SV_PolicingMSA/MI_1103/IMG_5_1103.jpg"",""SV_PolicingMSA/MI_1103/IMG_9_1103.jpg"",""SV_PolicingMSA/MI_1103/IMG_13_1103.jpg"",""SV_PolicingMSA/MI_1103/IMG_8_1103.jpg"",""SV_PolicingMSA/MI_1103/IMG_12_1103.jpg"",""SV_PolicingMSA/MI_1103/IMG_2_1103.jpg"",""SV_PolicingMSA/MI_1103/IMG_0_1103.jpg"",""SV_PolicingMSA/MI_1103/IMG_1_1103.jpg""]","7","","","","","","5","","4","[""./rc_img/cop_condGroup_8_SafeStreets_autoscaled.png"",""./rc_img/cop_condGroup_8_CommunitySafety_autoscaled.png""]","1","",""
"sliderTrial","html-slider-response","22","95428","0.0-22.0","","656776a7904ae00d6b91d1dd","6568ade3272517370d401596","5","","","","","","","","","","","","3899","[""SV_PolicingMSA/MI_1103/IMG_5_1103.jpg"",""SV_PolicingMSA/MI_1103/IMG_9_1103.jpg"",""SV_PolicingMSA/MI_1103/IMG_13_1103.jpg"",""SV_PolicingMSA/MI_1103/IMG_8_1103.jpg"",""SV_PolicingMSA/MI_1103/IMG_12_1103.jpg"",""SV_PolicingMSA/MI_1103/IMG_2_1103.jpg"",""SV_PolicingMSA/MI_1103/IMG_0_1103.jpg"",""SV_PolicingMSA/MI_1103/IMG_1_1103.jpg""]","7","","","","","","5","","4","[""./rc_img/cop_condGroup_9_SafeStreets_autoscaled.png"",""./rc_img/cop_condGroup_9_CommunitySafety_autoscaled.png""]","1","",""
"before_SVSlide_prompt","html-button-response","23","97042","0.0-23.0","","656776a7904ae00d6b91d1dd","6568ade3272517370d401596","5","","","","","","","","","","","","1612","Click [Next] to see the next neighborhood!","0","","","","","","","","","","","",""
"street view slide show","image-button-response","24","98043","0.0-24.0","","656776a7904ae00d6b91d1dd","6568ade3272517370d401596","5","","","","","","","","","","","","null","stimulus/SV_PolicingMSA/MI_1868/IMG_10_1868.jpg","null","","","","","","2","","","","","",""
"street view slide show","image-button-response","25","99048","0.0-25.0","","656776a7904ae00d6b91d1dd","6568ade3272517370d401596","5","","","","","","","","","","","","null","stimulus/SV_PolicingMSA/MI_1868/IMG_4_1868.jpg","null","","","","","","2","","","","","",""
"street view slide show","image-button-response","26","100060","0.0-26.0","","656776a7904ae00d6b91d1dd","6568ade3272517370d401596","5","","","","","","","","","","","","null","stimulus/SV_PolicingMSA/MI_1868/IMG_13_1868.jpg","null","","","","","","2","","","","","",""
"street view slide show","image-button-response","27","101074","0.0-27.0","","656776a7904ae00d6b91d1dd","6568ade3272517370d401596","5","","","","","","","","","","","","null","stimulus/SV_PolicingMSA/MI_1868/IMG_3_1868.jpg","null","","","","","","2","","","","","",""
"street view slide show","image-button-response","28","102088","0.0-28.0","","656776a7904ae00d6b91d1dd","6568ade3272517370d401596","5","","","","","","","","","","","","null","stimulus/SV_PolicingMSA/MI_1868/IMG_1_1868.jpg","null","","","","","","2","","","","","",""
"street view slide show","image-button-response","29","103101","0.0-29.0","","656776a7904ae00d6b91d1dd","6568ade3272517370d401596","5","","","","","","","","","","","","null","stimulus/SV_PolicingMSA/MI_1868/IMG_11_1868.jpg","null","","","","","","2","","","","","",""
"street view slide show","image-button-response","30","104114","0.0-30.0","","656776a7904ae00d6b91d1dd","6568ade3272517370d401596","5","","","","","","","","","","","","null","stimulus/SV_PolicingMSA/MI_1868/IMG_0_1868.jpg","null","","","","","","2","","","","","",""
"street view slide show","image-button-response","31","105126","0.0-31.0","","656776a7904ae00d6b91d1dd","6568ade3272517370d401596","5","","","","","","","","","","","","null","stimulus/SV_PolicingMSA/MI_1868/IMG_8_1868.jpg","null","","","","","","2","","","","","",""
"dot matrix survey1","survey","32","113020","0.0-32.0","","656776a7904ae00d6b91d1dd","6568ade3272517370d401596","5","","","","","","","","","","","","7881","","{""P0_Q0"":null,""P0_Q1"":{""wealthy"":1,""safe"":1,""walkable"":2,""diverse"":1,""traditional"":1}}","","","","","","2","[]","","","","",""
"dot matrix survey2","survey","33","123561","0.0-33.0","","656776a7904ae00d6b91d1dd","6568ade3272517370d401596","5","","","","","","","","","","","","10535","","{""P0_Q0"":null,""P0_Q1"":{""violence"":2,""drug"":3,""crime"":2,""schools"":1,""opportunities"":1}}","","","","","","2","[]","","","","",""
"dot matrix survey3","survey","34","130557","0.0-34.0","","656776a7904ae00d6b91d1dd","6568ade3272517370d401596","5","","","","","","","","","","","","6990","","{""P0_Q0"":null,""P0_Q1"":{""movein"":0,""moveout"":0,""walk"":0,""shopping"":0,""park"":0,""school"":0}}","","","","","","2","[]","","","","",""
"sliderTrial","html-slider-response","35","135561","0.0-35.0","","656776a7904ae00d6b91d1dd","6568ade3272517370d401596","5","","","","","","","","","","","","5002","[""SV_PolicingMSA/MI_1868/IMG_10_1868.jpg"",""SV_PolicingMSA/MI_1868/IMG_4_1868.jpg"",""SV_PolicingMSA/MI_1868/IMG_13_1868.jpg"",""SV_PolicingMSA/MI_1868/IMG_3_1868.jpg"",""SV_PolicingMSA/MI_1868/IMG_1_1868.jpg"",""SV_PolicingMSA/MI_1868/IMG_11_1868.jpg"",""SV_PolicingMSA/MI_1868/IMG_0_1868.jpg"",""SV_PolicingMSA/MI_1868/IMG_8_1868.jpg""]","5","","","","","","2","","4","[""./rc_img/cop_condGroup_15_CommunitySafety_autoscaled.png"",""./rc_img/cop_condGroup_15_SafeStreets_autoscaled.png""]","5","",""
"sliderTrial","html-slider-response","36","138007","0.0-36.0","","656776a7904ae00d6b91d1dd","6568ade3272517370d401596","5","","","","","","","","","","","","2444","[""SV_PolicingMSA/MI_1868/IMG_10_1868.jpg"",""SV_PolicingMSA/MI_1868/IMG_4_1868.jpg"",""SV_PolicingMSA/MI_1868/IMG_13_1868.jpg"",""SV_PolicingMSA/MI_1868/IMG_3_1868.jpg"",""SV_PolicingMSA/MI_1868/IMG_1_1868.jpg"",""SV_PolicingMSA/MI_1868/IMG_11_1868.jpg"",""SV_PolicingMSA/MI_1868/IMG_0_1868.jpg"",""SV_PolicingMSA/MI_1868/IMG_8_1868.jpg""]","3","","","","","","2","","4","[""./rc_img/cop_condGroup_6_SafeStreets_autoscaled.png"",""./rc_img/cop_condGroup_6_CommunitySafety_autoscaled.png""]","5","",""
"sliderTrial","html-slider-response","37","139934","0.0-37.0","","656776a7904ae00d6b91d1dd","6568ade3272517370d401596","5","","","","","","","","","","","","1924","[""SV_PolicingMSA/MI_1868/IMG_10_1868.jpg"",""SV_PolicingMSA/MI_1868/IMG_4_1868.jpg"",""SV_PolicingMSA/MI_1868/IMG_13_1868.jpg"",""SV_PolicingMSA/MI_1868/IMG_3_1868.jpg"",""SV_PolicingMSA/MI_1868/IMG_1_1868.jpg"",""SV_PolicingMSA/MI_1868/IMG_11_1868.jpg"",""SV_PolicingMSA/MI_1868/IMG_0_1868.jpg"",""SV_PolicingMSA/MI_1868/IMG_8_1868.jpg""]","5","","","","","","2","","4","[""./rc_img/cop_condGroup_1_CommunitySafety_autoscaled.png"",""./rc_img/cop_condGroup_1_SafeStreets_autoscaled.png""]","5","",""
"sliderTrial","html-slider-response","38","142194","0.0-38.0","","656776a7904ae00d6b91d1dd","6568ade3272517370d401596","5","","","","","","","","","","","","2259","[""SV_PolicingMSA/MI_1868/IMG_10_1868.jpg"",""SV_PolicingMSA/MI_1868/IMG_4_1868.jpg"",""SV_PolicingMSA/MI_1868/IMG_13_1868.jpg"",""SV_PolicingMSA/MI_1868/IMG_3_1868.jpg"",""SV_PolicingMSA/MI_1868/IMG_1_1868.jpg"",""SV_PolicingMSA/MI_1868/IMG_11_1868.jpg"",""SV_PolicingMSA/MI_1868/IMG_0_1868.jpg"",""SV_PolicingMSA/MI_1868/IMG_8_1868.jpg""]","2","","","","","","2","","4","[""./rc_img/cop_condGroup_4_CommunitySafety_autoscaled.png"",""./rc_img/cop_condGroup_4_SafeStreets_autoscaled.png""]","2","",""
"sliderTrial","html-slider-response","39","144270","0.0-39.0","","656776a7904ae00d6b91d1dd","6568ade3272517370d401596","5","","","","","","","","","","","","2074","[""SV_PolicingMSA/MI_1868/IMG_10_1868.jpg"",""SV_PolicingMSA/MI_1868/IMG_4_1868.jpg"",""SV_PolicingMSA/MI_1868/IMG_13_1868.jpg"",""SV_PolicingMSA/MI_1868/IMG_3_1868.jpg"",""SV_PolicingMSA/MI_1868/IMG_1_1868.jpg"",""SV_PolicingMSA/MI_1868/IMG_11_1868.jpg"",""SV_PolicingMSA/MI_1868/IMG_0_1868.jpg"",""SV_PolicingMSA/MI_1868/IMG_8_1868.jpg""]","6","","","","","","2","","4","[""./rc_img/cop_condGroup_19_SafeStreets_autoscaled.png"",""./rc_img/cop_condGroup_19_CommunitySafety_autoscaled.png""]","2","",""
"before_SVSlide_prompt","html-button-response","40","145230","0.0-40.0","","656776a7904ae00d6b91d1dd","6568ade3272517370d401596","5","","","","","","","","","","","","958","Click [Next] to see the next neighborhood!","0","","","","","","","","","","","",""
"street view slide show","image-button-response","41","146244","0.0-41.0","","656776a7904ae00d6b91d1dd","6568ade3272517370d401596","5","","","","","","","","","","","","null","stimulus/SV_PolicingMSA/MI_1808/IMG_10_1808.jpg","null","","","","","","1","","","","","",""
"street view slide show","image-button-response","42","147246","0.0-42.0","","656776a7904ae00d6b91d1dd","6568ade3272517370d401596","5","","","","","","","","","","","","null","stimulus/SV_PolicingMSA/MI_1808/IMG_4_1808.jpg","null","","","","","","1","","","","","",""
"street view slide show","image-button-response","43","148254","0.0-43.0","","656776a7904ae00d6b91d1dd","6568ade3272517370d401596","5","","","","","","","","","","","","null","stimulus/SV_PolicingMSA/MI_1808/IMG_0_1808.jpg","null","","","","","","1","","","","","",""
"street view slide show","image-button-response","44","149269","0.0-44.0","","656776a7904ae00d6b91d1dd","6568ade3272517370d401596","5","","","","","","","","","","","","null","stimulus/SV_PolicingMSA/MI_1808/IMG_5_1808.jpg","null","","","","","","1","","","","","",""
"street view slide show","image-button-response","45","150280","0.0-45.0","","656776a7904ae00d6b91d1dd","6568ade3272517370d401596","5","","","","","","","","","","","","null","stimulus/SV_PolicingMSA/MI_1808/IMG_7_1808.jpg","null","","","","","","1","","","","","",""
"street view slide show","image-button-response","46","151292","0.0-46.0","","656776a7904ae00d6b91d1dd","6568ade3272517370d401596","5","","","","","","","","","","","","null","stimulus/SV_PolicingMSA/MI_1808/IMG_3_1808.jpg","null","","","","","","1","","","","","",""
"street view slide show","image-button-response","47","152300","0.0-47.0","","656776a7904ae00d6b91d1dd","6568ade3272517370d401596","5","","","","","","","","","","","","null","stimulus/SV_PolicingMSA/MI_1808/IMG_13_1808.jpg","null","","","","","","1","","","","","",""
"street view slide show","image-button-response","48","153308","0.0-48.0","","656776a7904ae00d6b91d1dd","6568ade3272517370d401596","5","","","","","","","","","","","","null","stimulus/SV_PolicingMSA/MI_1808/IMG_14_1808.jpg","null","","","","","","1","","","","","",""
"dot matrix survey1","survey","49","162296","0.0-49.0","","656776a7904ae00d6b91d1dd","6568ade3272517370d401596","5","","","","","","","","","","","","8976","","{""P0_Q0"":null,""P0_Q1"":{""wealthy"":1,""safe"":1,""walkable"":1,""traditional"":1,""diverse"":1}}","","","","","","1","[]","","","","",""
"dot matrix survey2","survey","50","168530","0.0-50.0","","656776a7904ae00d6b91d1dd","6568ade3272517370d401596","5","","","","","","","","","","","","6228","","{""P0_Q0"":null,""P0_Q1"":{""violence"":1,""crime"":1,""schools"":1,""drug"":1,""opportunities"":1}}","","","","","","1","[]","","","","",""
"dot matrix survey3","survey","51","222004","0.0-51.0","","656776a7904ae00d6b91d1dd","6568ade3272517370d401596","5","","","","","","","","","","","","53467","","{""P0_Q0"":null,""P0_Q1"":{""movein"":0,""moveout"":0,""shopping"":0,""park"":0,""walk"":0,""school"":0}}","","","","","","1","[]","","","","",""
"sliderTrial","html-slider-response","52","225331","0.0-52.0","","656776a7904ae00d6b91d1dd","6568ade3272517370d401596","5","","","","","","","","","","","","3325","[""SV_PolicingMSA/MI_1808/IMG_10_1808.jpg"",""SV_PolicingMSA/MI_1808/IMG_4_1808.jpg"",""SV_PolicingMSA/MI_1808/IMG_0_1808.jpg"",""SV_PolicingMSA/MI_1808/IMG_5_1808.jpg"",""SV_PolicingMSA/MI_1808/IMG_7_1808.jpg"",""SV_PolicingMSA/MI_1808/IMG_3_1808.jpg"",""SV_PolicingMSA/MI_1808/IMG_13_1808.jpg"",""SV_PolicingMSA/MI_1808/IMG_14_1808.jpg""]","5","","","","","","1","","4","[""./rc_img/cop_condGroup_2_SafeStreets_autoscaled.png"",""./rc_img/cop_condGroup_2_CommunitySafety_autoscaled.png""]","3","",""
"sliderTrial_attention","html-slider-response","53","235480","0.0-53.0","","656776a7904ae00d6b91d1dd","6568ade3272517370d401596","5","","","","","","","","","","","","null","[""SV_PolicingMSA/MI_1808/IMG_10_1808.jpg"",""SV_PolicingMSA/MI_1808/IMG_4_1808.jpg"",""SV_PolicingMSA/MI_1808/IMG_0_1808.jpg"",""SV_PolicingMSA/MI_1808/IMG_5_1808.jpg"",""SV_PolicingMSA/MI_1808/IMG_7_1808.jpg"",""SV_PolicingMSA/MI_1808/IMG_3_1808.jpg"",""SV_PolicingMSA/MI_1808/IMG_13_1808.jpg"",""SV_PolicingMSA/MI_1808/IMG_14_1808.jpg""]","null","","","","","","1","","4","[""./assets/img/attnchk.png"",""./assets/img/attnchk.png""]","","true",""
"sliderTrial","html-slider-response","54","243633","0.0-54.0","","656776a7904ae00d6b91d1dd","6568ade3272517370d401596","5","","","","","","","","","","","","8151","[""SV_PolicingMSA/MI_1808/IMG_10_1808.jpg"",""SV_PolicingMSA/MI_1808/IMG_4_1808.jpg"",""SV_PolicingMSA/MI_1808/IMG_0_1808.jpg"",""SV_PolicingMSA/MI_1808/IMG_5_1808.jpg"",""SV_PolicingMSA/MI_1808/IMG_7_1808.jpg"",""SV_PolicingMSA/MI_1808/IMG_3_1808.jpg"",""SV_PolicingMSA/MI_1808/IMG_13_1808.jpg"",""SV_PolicingMSA/MI_1808/IMG_14_1808.jpg""]","5","","","","","","1","","4","[""./rc_img/cop_condGroup_20_SafeStreets_autoscaled.png"",""./rc_img/cop_condGroup_20_CommunitySafety_autoscaled.png""]","3","",""
"sliderTrial","html-slider-response","55","245481","0.0-55.0","","656776a7904ae00d6b91d1dd","6568ade3272517370d401596","5","","","","","","","","","","","","1845","[""SV_PolicingMSA/MI_1808/IMG_10_1808.jpg"",""SV_PolicingMSA/MI_1808/IMG_4_1808.jpg"",""SV_PolicingMSA/MI_1808/IMG_0_1808.jpg"",""SV_PolicingMSA/MI_1808/IMG_5_1808.jpg"",""SV_PolicingMSA/MI_1808/IMG_7_1808.jpg"",""SV_PolicingMSA/MI_1808/IMG_3_1808.jpg"",""SV_PolicingMSA/MI_1808/IMG_13_1808.jpg"",""SV_PolicingMSA/MI_1808/IMG_14_1808.jpg""]","2","","","","","","1","","4","[""./rc_img/cop_condGroup_3_CommunitySafety_autoscaled.png"",""./rc_img/cop_condGroup_3_SafeStreets_autoscaled.png""]","2","",""
"sliderTrial","html-slider-response","56","248644","0.0-56.0","","656776a7904ae00d6b91d1dd","6568ade3272517370d401596","5","","","","","","","","","","","","3162","[""SV_PolicingMSA/MI_1808/IMG_10_1808.jpg"",""SV_PolicingMSA/MI_1808/IMG_4_1808.jpg"",""SV_PolicingMSA/MI_1808/IMG_0_1808.jpg"",""SV_PolicingMSA/MI_1808/IMG_5_1808.jpg"",""SV_PolicingMSA/MI_1808/IMG_7_1808.jpg"",""SV_PolicingMSA/MI_1808/IMG_3_1808.jpg"",""SV_PolicingMSA/MI_1808/IMG_13_1808.jpg"",""SV_PolicingMSA/MI_1808/IMG_14_1808.jpg""]","2","","","","","","1","","4","[""./rc_img/cop_condGroup_18_CommunitySafety_autoscaled.png"",""./rc_img/cop_condGroup_18_SafeStreets_autoscaled.png""]","2","",""
"sliderTrial","html-slider-response","57","251125","0.0-57.0","","656776a7904ae00d6b91d1dd","6568ade3272517370d401596","5","","","","","","","","","","","","2479","[""SV_PolicingMSA/MI_1808/IMG_10_1808.jpg"",""SV_PolicingMSA/MI_1808/IMG_4_1808.jpg"",""SV_PolicingMSA/MI_1808/IMG_0_1808.jpg"",""SV_PolicingMSA/MI_1808/IMG_5_1808.jpg"",""SV_PolicingMSA/MI_1808/IMG_7_1808.jpg"",""SV_PolicingMSA/MI_1808/IMG_3_1808.jpg"",""SV_PolicingMSA/MI_1808/IMG_13_1808.jpg"",""SV_PolicingMSA/MI_1808/IMG_14_1808.jpg""]","6","","","","","","1","","4","[""./rc_img/cop_condGroup_5_CommunitySafety_autoscaled.png"",""./rc_img/cop_condGroup_5_SafeStreets_autoscaled.png""]","6","",""
"before_SVSlide_prompt","html-button-response","58","252440","0.0-58.0","","656776a7904ae00d6b91d1dd","6568ade3272517370d401596","5","","","","","","","","","","","","1314","Click [Next] to see the next neighborhood!","0","","","","","","","","","","","",""
"street view slide show","image-button-response","59","253453","0.0-59.0","","656776a7904ae00d6b91d1dd","6568ade3272517370d401596","5","","","","","","","","","","","","null","stimulus/SV_PolicingMSA/MI_2582/IMG_11_2582.jpg","null","","","","","","3","","","","","",""
"street view slide show","image-button-response","60","254454","0.0-60.0","","656776a7904ae00d6b91d1dd","6568ade3272517370d401596","5","","","","","","","","","","","","null","stimulus/SV_PolicingMSA/MI_2582/IMG_4_2582.jpg","null","","","","","","3","","","","","",""
"street view slide show","image-button-response","61","255461","0.0-61.0","","656776a7904ae00d6b91d1dd","6568ade3272517370d401596","5","","","","","","","","","","","","null","stimulus/SV_PolicingMSA/MI_2582/IMG_3_2582.jpg","null","","","","","","3","","","","","",""
"street view slide show","image-button-response","62","256475","0.0-62.0","","656776a7904ae00d6b91d1dd","6568ade3272517370d401596","5","","","","","","","","","","","","null","stimulus/SV_PolicingMSA/MI_2582/IMG_1_2582.jpg","null","","","","","","3","","","","","",""
"street view slide show","image-button-response","63","257483","0.0-63.0","","656776a7904ae00d6b91d1dd","6568ade3272517370d401596","5","","","","","","","","","","","","null","stimulus/SV_PolicingMSA/MI_2582/IMG_9_2582.jpg","null","","","","","","3","","","","","",""
"street view slide show","image-button-response","64","258496","0.0-64.0","","656776a7904ae00d6b91d1dd","6568ade3272517370d401596","5","","","","","","","","","","","","null","stimulus/SV_PolicingMSA/MI_2582/IMG_10_2582.jpg","null","","","","","","3","","","","","",""
"street view slide show","image-button-response","65","259507","0.0-65.0","","656776a7904ae00d6b91d1dd","6568ade3272517370d401596","5","","","","","","","","","","","","null","stimulus/SV_PolicingMSA/MI_2582/IMG_7_2582.jpg","null","","","","","","3","","","","","",""
"street view slide show","image-button-response","66","260509","0.0-66.0","","656776a7904ae00d6b91d1dd","6568ade3272517370d401596","5","","","","","","","","","","","","null","stimulus/SV_PolicingMSA/MI_2582/IMG_5_2582.jpg","null","","","","","","3","","","","","",""
"dot matrix survey1","survey","67","268220","0.0-67.0","","656776a7904ae00d6b91d1dd","6568ade3272517370d401596","5","","","","","","","","","","","","7700","","{""P0_Q0"":null,""P0_Q1"":{""wealthy"":1,""walkable"":2,""safe"":2,""traditional"":2,""diverse"":1}}","","","","","","3","[]","","","","",""
"dot matrix survey2","survey","68","274533","0.0-68.0","","656776a7904ae00d6b91d1dd","6568ade3272517370d401596","5","","","","","","","","","","","","6306","","{""P0_Q0"":null,""P0_Q1"":{""violence"":1,""crime"":1,""schools"":1,""opportunities"":1,""drug"":1}}","","","","","","3","[]","","","","",""
"dot matrix survey3","survey","69","280171","0.0-69.0","","656776a7904ae00d6b91d1dd","6568ade3272517370d401596","5","","","","","","","","","","","","5632","","{""P0_Q0"":null,""P0_Q1"":{""movein"":0,""moveout"":0,""shopping"":0,""walk"":0,""park"":0,""school"":0}}","","","","","","3","[]","","","","",""
"sliderTrial","html-slider-response","70","283168","0.0-70.0","","656776a7904ae00d6b91d1dd","6568ade3272517370d401596","5","","","","","","","","","","","","2995","[""SV_PolicingMSA/MI_2582/IMG_11_2582.jpg"",""SV_PolicingMSA/MI_2582/IMG_4_2582.jpg"",""SV_PolicingMSA/MI_2582/IMG_3_2582.jpg"",""SV_PolicingMSA/MI_2582/IMG_1_2582.jpg"",""SV_PolicingMSA/MI_2582/IMG_9_2582.jpg"",""SV_PolicingMSA/MI_2582/IMG_10_2582.jpg"",""SV_PolicingMSA/MI_2582/IMG_7_2582.jpg"",""SV_PolicingMSA/MI_2582/IMG_5_2582.jpg""]","5","","","","","","3","","4","[""./rc_img/cop_condGroup_2_SafeStreets_autoscaled.png"",""./rc_img/cop_condGroup_2_CommunitySafety_autoscaled.png""]","3","",""
"sliderTrial","html-slider-response","71","285471","0.0-71.0","","656776a7904ae00d6b91d1dd","6568ade3272517370d401596","5","","","","","","","","","","","","2301","[""SV_PolicingMSA/MI_2582/IMG_11_2582.jpg"",""SV_PolicingMSA/MI_2582/IMG_4_2582.jpg"",""SV_PolicingMSA/MI_2582/IMG_3_2582.jpg"",""SV_PolicingMSA/MI_2582/IMG_1_2582.jpg"",""SV_PolicingMSA/MI_2582/IMG_9_2582.jpg"",""SV_PolicingMSA/MI_2582/IMG_10_2582.jpg"",""SV_PolicingMSA/MI_2582/IMG_7_2582.jpg"",""SV_PolicingMSA/MI_2582/IMG_5_2582.jpg""]","7","","","","","","3","","4","[""./rc_img/cop_condGroup_20_SafeStreets_autoscaled.png"",""./rc_img/cop_condGroup_20_CommunitySafety_autoscaled.png""]","1","",""
"sliderTrial","html-slider-response","72","287150","0.0-72.0","","656776a7904ae00d6b91d1dd","6568ade3272517370d401596","5","","","","","","","","","","","","1677","[""SV_PolicingMSA/MI_2582/IMG_11_2582.jpg"",""SV_PolicingMSA/MI_2582/IMG_4_2582.jpg"",""SV_PolicingMSA/MI_2582/IMG_3_2582.jpg"",""SV_PolicingMSA/MI_2582/IMG_1_2582.jpg"",""SV_PolicingMSA/MI_2582/IMG_9_2582.jpg"",""SV_PolicingMSA/MI_2582/IMG_10_2582.jpg"",""SV_PolicingMSA/MI_2582/IMG_7_2582.jpg"",""SV_PolicingMSA/MI_2582/IMG_5_2582.jpg""]","1","","","","","","3","","4","[""./rc_img/cop_condGroup_3_CommunitySafety_autoscaled.png"",""./rc_img/cop_condGroup_3_SafeStreets_autoscaled.png""]","1","",""
"sliderTrial","html-slider-response","73","290098","0.0-73.0","","656776a7904ae00d6b91d1dd","6568ade3272517370d401596","5","","","","","","","","","","","","2947","[""SV_PolicingMSA/MI_2582/IMG_11_2582.jpg"",""SV_PolicingMSA/MI_2582/IMG_4_2582.jpg"",""SV_PolicingMSA/MI_2582/IMG_3_2582.jpg"",""SV_PolicingMSA/MI_2582/IMG_1_2582.jpg"",""SV_PolicingMSA/MI_2582/IMG_9_2582.jpg"",""SV_PolicingMSA/MI_2582/IMG_10_2582.jpg"",""SV_PolicingMSA/MI_2582/IMG_7_2582.jpg"",""SV_PolicingMSA/MI_2582/IMG_5_2582.jpg""]","1","","","","","","3","","4","[""./rc_img/cop_condGroup_18_CommunitySafety_autoscaled.png"",""./rc_img/cop_condGroup_18_SafeStreets_autoscaled.png""]","1","",""
"sliderTrial","html-slider-response","74","292928","0.0-74.0","","656776a7904ae00d6b91d1dd","6568ade3272517370d401596","5","","","","","","","","","","","","2828","[""SV_PolicingMSA/MI_2582/IMG_11_2582.jpg"",""SV_PolicingMSA/MI_2582/IMG_4_2582.jpg"",""SV_PolicingMSA/MI_2582/IMG_3_2582.jpg"",""SV_PolicingMSA/MI_2582/IMG_1_2582.jpg"",""SV_PolicingMSA/MI_2582/IMG_9_2582.jpg"",""SV_PolicingMSA/MI_2582/IMG_10_2582.jpg"",""SV_PolicingMSA/MI_2582/IMG_7_2582.jpg"",""SV_PolicingMSA/MI_2582/IMG_5_2582.jpg""]","1","","","","","","3","","4","[""./rc_img/cop_condGroup_5_CommunitySafety_autoscaled.png"",""./rc_img/cop_condGroup_5_SafeStreets_autoscaled.png""]","1","",""
"half-way","html-button-response","75","298174","0.0-75.0","","656776a7904ae00d6b91d1dd","6568ade3272517370d401596","5","","","","","","","","","","","","5244","
    <h3>You are now half way through the study.</h3>
    <p>Please take a quick, 15-second break before you continue.</p>
    <img src='assets/img/countdown-15.gif'>
    <p>The study will automatically advance forward after the countdown is complete. <br> However, you may click ""Next"" to advance forward now if you wish.</p>
    ","0","","","","","","","","","","","",""
"before_SVSlide_prompt","html-button-response","76","300406","0.0-76.0","","656776a7904ae00d6b91d1dd","6568ade3272517370d401596","5","","","","","","","","","","","","2231","Click [Next] to see the next neighborhood!","0","","","","","","","","","","","",""
"street view slide show","image-button-response","77","301411","0.0-77.0","","656776a7904ae00d6b91d1dd","6568ade3272517370d401596","5","","","","","","","","","","","","null","stimulus/SV_PolicingMSA/MI_1804/IMG_12_1804.jpg","null","","","","","","0","","","","","",""
"street view slide show","image-button-response","78","302424","0.0-78.0","","656776a7904ae00d6b91d1dd","6568ade3272517370d401596","5","","","","","","","","","","","","null","stimulus/SV_PolicingMSA/MI_1804/IMG_0_1804.jpg","null","","","","","","0","","","","","",""
"street view slide show","image-button-response","79","303434","0.0-79.0","","656776a7904ae00d6b91d1dd","6568ade3272517370d401596","5","","","","","","","","","","","","null","stimulus/SV_PolicingMSA/MI_1804/IMG_8_1804.jpg","null","","","","","","0","","","","","",""
"street view slide show","image-button-response","80","304484","0.0-80.0","","656776a7904ae00d6b91d1dd","6568ade3272517370d401596","5","","","","","","","","","","","","null","stimulus/SV_PolicingMSA/MI_1804/IMG_9_1804.jpg","null","","","","","","0","","","","","",""
"street view slide show","image-button-response","81","306480","0.0-81.0","","656776a7904ae00d6b91d1dd","6568ade3272517370d401596","5","","","","","","","","","","","","null","stimulus/SV_PolicingMSA/MI_1804/IMG_3_1804.jpg","null","","","","","","0","","","","","",""
"street view slide show","image-button-response","82","308471","0.0-82.0","","656776a7904ae00d6b91d1dd","6568ade3272517370d401596","5","","","","","","","","","","","","null","stimulus/SV_PolicingMSA/MI_1804/IMG_14_1804.jpg","null","","","","","","0","","","","","",""
"street view slide show","image-button-response","83","310483","0.0-83.0","","656776a7904ae00d6b91d1dd","6568ade3272517370d401596","5","","","","","","","","","","","","null","stimulus/SV_PolicingMSA/MI_1804/IMG_7_1804.jpg","null","","","","","","0","","","","","",""
"street view slide show","image-button-response","84","312478","0.0-84.0","","656776a7904ae00d6b91d1dd","6568ade3272517370d401596","5","","","","","","","","","","","","null","stimulus/SV_PolicingMSA/MI_1804/IMG_5_1804.jpg","null","","","","","","0","","","","","",""
"dot matrix survey1","survey","85","334434","0.0-85.0","","656776a7904ae00d6b91d1dd","6568ade3272517370d401596","5","","","","","","","","","","","","21913","","{""P0_Q0"":null,""P0_Q1"":{""wealthy"":2,""safe"":2,""walkable"":2,""traditional"":2,""diverse"":2}}","","","","","","0","[]","","","","",""
"dot matrix survey2","survey","86","338279","0.0-86.0","","656776a7904ae00d6b91d1dd","6568ade3272517370d401596","5","","","","","","","","","","","","3840","","{""P0_Q0"":null,""P0_Q1"":{""violence"":1,""crime"":1,""drug"":1,""schools"":1,""opportunities"":1}}","","","","","","0","[]","","","","",""
"dot matrix survey3","survey","87","344641","0.0-87.0","","656776a7904ae00d6b91d1dd","6568ade3272517370d401596","5","","","","","","","","","","","","6354","","{""P0_Q0"":null,""P0_Q1"":{""moveout"":1,""movein"":1,""shopping"":1,""walk"":1,""school"":1,""park"":1}}","","","","","","0","[]","","","","",""
"sliderTrial","html-slider-response","88","346910","0.0-88.0","","656776a7904ae00d6b91d1dd","6568ade3272517370d401596","5","","","","","","","","","","","","2267","[""SV_PolicingMSA/MI_1804/IMG_12_1804.jpg"",""SV_PolicingMSA/MI_1804/IMG_0_1804.jpg"",""SV_PolicingMSA/MI_1804/IMG_8_1804.jpg"",""SV_PolicingMSA/MI_1804/IMG_9_1804.jpg"",""SV_PolicingMSA/MI_1804/IMG_3_1804.jpg"",""SV_PolicingMSA/MI_1804/IMG_14_1804.jpg"",""SV_PolicingMSA/MI_1804/IMG_7_1804.jpg"",""SV_PolicingMSA/MI_1804/IMG_5_1804.jpg""]","2","","","","","","0","","4","[""./rc_img/cop_condGroup_14_CommunitySafety_autoscaled.png"",""./rc_img/cop_condGroup_14_SafeStreets_autoscaled.png""]","2","",""
"sliderTrial","html-slider-response","89","348871","0.0-89.0","","656776a7904ae00d6b91d1dd","6568ade3272517370d401596","5","","","","","","","","","","","","1960","[""SV_PolicingMSA/MI_1804/IMG_12_1804.jpg"",""SV_PolicingMSA/MI_1804/IMG_0_1804.jpg"",""SV_PolicingMSA/MI_1804/IMG_8_1804.jpg"",""SV_PolicingMSA/MI_1804/IMG_9_1804.jpg"",""SV_PolicingMSA/MI_1804/IMG_3_1804.jpg"",""SV_PolicingMSA/MI_1804/IMG_14_1804.jpg"",""SV_PolicingMSA/MI_1804/IMG_7_1804.jpg"",""SV_PolicingMSA/MI_1804/IMG_5_1804.jpg""]","1","","","","","","0","","4","[""./rc_img/cop_condGroup_10_CommunitySafety_autoscaled.png"",""./rc_img/cop_condGroup_10_SafeStreets_autoscaled.png""]","1","",""
"sliderTrial","html-slider-response","90","350962","0.0-90.0","","656776a7904ae00d6b91d1dd","6568ade3272517370d401596","5","","","","","","","","","","","","2089","[""SV_PolicingMSA/MI_1804/IMG_12_1804.jpg"",""SV_PolicingMSA/MI_1804/IMG_0_1804.jpg"",""SV_PolicingMSA/MI_1804/IMG_8_1804.jpg"",""SV_PolicingMSA/MI_1804/IMG_9_1804.jpg"",""SV_PolicingMSA/MI_1804/IMG_3_1804.jpg"",""SV_PolicingMSA/MI_1804/IMG_14_1804.jpg"",""SV_PolicingMSA/MI_1804/IMG_7_1804.jpg"",""SV_PolicingMSA/MI_1804/IMG_5_1804.jpg""]","7","","","","","","0","","4","[""./rc_img/cop_condGroup_12_SafeStreets_autoscaled.png"",""./rc_img/cop_condGroup_12_CommunitySafety_autoscaled.png""]","1","",""
"sliderTrial","html-slider-response","91","353208","0.0-91.0","","656776a7904ae00d6b91d1dd","6568ade3272517370d401596","5","","","","","","","","","","","","2244","[""SV_PolicingMSA/MI_1804/IMG_12_1804.jpg"",""SV_PolicingMSA/MI_1804/IMG_0_1804.jpg"",""SV_PolicingMSA/MI_1804/IMG_8_1804.jpg"",""SV_PolicingMSA/MI_1804/IMG_9_1804.jpg"",""SV_PolicingMSA/MI_1804/IMG_3_1804.jpg"",""SV_PolicingMSA/MI_1804/IMG_14_1804.jpg"",""SV_PolicingMSA/MI_1804/IMG_7_1804.jpg"",""SV_PolicingMSA/MI_1804/IMG_5_1804.jpg""]","6","","","","","","0","","4","[""./rc_img/cop_condGroup_11_SafeStreets_autoscaled.png"",""./rc_img/cop_condGroup_11_CommunitySafety_autoscaled.png""]","2","",""
"sliderTrial_attention","html-slider-response","92","363223","0.0-92.0","","656776a7904ae00d6b91d1dd","6568ade3272517370d401596","5","","","","","","","","","","","","null","[""SV_PolicingMSA/MI_1804/IMG_12_1804.jpg"",""SV_PolicingMSA/MI_1804/IMG_0_1804.jpg"",""SV_PolicingMSA/MI_1804/IMG_8_1804.jpg"",""SV_PolicingMSA/MI_1804/IMG_9_1804.jpg"",""SV_PolicingMSA/MI_1804/IMG_3_1804.jpg"",""SV_PolicingMSA/MI_1804/IMG_14_1804.jpg"",""SV_PolicingMSA/MI_1804/IMG_7_1804.jpg"",""SV_PolicingMSA/MI_1804/IMG_5_1804.jpg""]","null","","","","","","0","","4","[""./assets/img/attnchk.png"",""./assets/img/attnchk.png""]","","true",""
"sliderTrial","html-slider-response","93","365023","0.0-93.0","","656776a7904ae00d6b91d1dd","6568ade3272517370d401596","5","","","","","","","","","","","","1798","[""SV_PolicingMSA/MI_1804/IMG_12_1804.jpg"",""SV_PolicingMSA/MI_1804/IMG_0_1804.jpg"",""SV_PolicingMSA/MI_1804/IMG_8_1804.jpg"",""SV_PolicingMSA/MI_1804/IMG_9_1804.jpg"",""SV_PolicingMSA/MI_1804/IMG_3_1804.jpg"",""SV_PolicingMSA/MI_1804/IMG_14_1804.jpg"",""SV_PolicingMSA/MI_1804/IMG_7_1804.jpg"",""SV_PolicingMSA/MI_1804/IMG_5_1804.jpg""]","6","","","","","","0","","4","[""./rc_img/cop_condGroup_16_SafeStreets_autoscaled.png"",""./rc_img/cop_condGroup_16_CommunitySafety_autoscaled.png""]","2","",""
"before_SVSlide_prompt","html-button-response","94","366253","0.0-94.0","","656776a7904ae00d6b91d1dd","6568ade3272517370d401596","5","","","","","","","","","","","","1229","Click [Next] to see the next neighborhood!","0","","","","","","","","","","","",""
"street view slide show","image-button-response","95","367269","0.0-95.0","","656776a7904ae00d6b91d1dd","6568ade3272517370d401596","5","","","","","","","","","","","","null","stimulus/SV_PolicingMSA/MI_2578/IMG_12_2578.jpg","null","","","","","","2","","","","","",""
"street view slide show","image-button-response","96","368270","0.0-96.0","","656776a7904ae00d6b91d1dd","6568ade3272517370d401596","5","","","","","","","","","","","","null","stimulus/SV_PolicingMSA/MI_2578/IMG_1_2578.jpg","null","","","","","","2","","","","","",""
"street view slide show","image-button-response","97","369274","0.0-97.0","","656776a7904ae00d6b91d1dd","6568ade3272517370d401596","5","","","","","","","","","","","","null","stimulus/SV_PolicingMSA/MI_2578/IMG_4_2578.jpg","null","","","","","","2","","","","","",""
"street view slide show","image-button-response","98","370286","0.0-98.0","","656776a7904ae00d6b91d1dd","6568ade3272517370d401596","5","","","","","","","","","","","","null","stimulus/SV_PolicingMSA/MI_2578/IMG_9_2578.jpg","null","","","","","","2","","","","","",""
"street view slide show","image-button-response","99","371287","0.0-99.0","","656776a7904ae00d6b91d1dd","6568ade3272517370d401596","5","","","","","","","","","","","","null","stimulus/SV_PolicingMSA/MI_2578/IMG_0_2578.jpg","null","","","","","","2","","","","","",""
"street view slide show","image-button-response","100","372289","0.0-100.0","","656776a7904ae00d6b91d1dd","6568ade3272517370d401596","5","","","","","","","","","","","","null","stimulus/SV_PolicingMSA/MI_2578/IMG_7_2578.jpg","null","","","","","","2","","","","","",""
"street view slide show","image-button-response","101","373291","0.0-101.0","","656776a7904ae00d6b91d1dd","6568ade3272517370d401596","5","","","","","","","","","","","","null","stimulus/SV_PolicingMSA/MI_2578/IMG_6_2578.jpg","null","","","","","","2","","","","","",""
"street view slide show","image-button-response","102","374296","0.0-102.0","","656776a7904ae00d6b91d1dd","6568ade3272517370d401596","5","","","","","","","","","","","","null","stimulus/SV_PolicingMSA/MI_2578/IMG_11_2578.jpg","null","","","","","","2","","","","","",""
"dot matrix survey1","survey","103","380398","0.0-103.0","","656776a7904ae00d6b91d1dd","6568ade3272517370d401596","5","","","","","","","","","","","","6090","","{""P0_Q0"":null,""P0_Q1"":{""wealthy"":1,""safe"":1,""walkable"":1,""traditional"":2,""diverse"":1}}","","","","","","2","[]","","","","",""
"dot matrix survey2","survey","104","386262","0.0-104.0","","656776a7904ae00d6b91d1dd","6568ade3272517370d401596","5","","","","","","","","","","","","5859","","{""P0_Q0"":null,""P0_Q1"":{""crime"":1,""violence"":1,""drug"":1,""schools"":1,""opportunities"":1}}","","","","","","2","[]","","","","",""
"dot matrix survey3","survey","105","392574","0.0-105.0","","656776a7904ae00d6b91d1dd","6568ade3272517370d401596","5","","","","","","","","","","","","6305","","{""P0_Q0"":null,""P0_Q1"":{""movein"":0,""shopping"":0,""moveout"":0,""walk"":0,""park"":0,""school"":0}}","","","","","","2","[]","","","","",""
"sliderTrial","html-slider-response","106","396735","0.0-106.0","","656776a7904ae00d6b91d1dd","6568ade3272517370d401596","5","","","","","","","","","","","","4158","[""SV_PolicingMSA/MI_2578/IMG_12_2578.jpg"",""SV_PolicingMSA/MI_2578/IMG_1_2578.jpg"",""SV_PolicingMSA/MI_2578/IMG_4_2578.jpg"",""SV_PolicingMSA/MI_2578/IMG_9_2578.jpg"",""SV_PolicingMSA/MI_2578/IMG_0_2578.jpg"",""SV_PolicingMSA/MI_2578/IMG_7_2578.jpg"",""SV_PolicingMSA/MI_2578/IMG_6_2578.jpg"",""SV_PolicingMSA/MI_2578/IMG_11_2578.jpg""]","3","","","","","","2","","4","[""./rc_img/cop_condGroup_14_CommunitySafety_autoscaled.png"",""./rc_img/cop_condGroup_14_SafeStreets_autoscaled.png""]","3","",""
"sliderTrial","html-slider-response","107","398967","0.0-107.0","","656776a7904ae00d6b91d1dd","6568ade3272517370d401596","5","","","","","","","","","","","","2231","[""SV_PolicingMSA/MI_2578/IMG_12_2578.jpg"",""SV_PolicingMSA/MI_2578/IMG_1_2578.jpg"",""SV_PolicingMSA/MI_2578/IMG_4_2578.jpg"",""SV_PolicingMSA/MI_2578/IMG_9_2578.jpg"",""SV_PolicingMSA/MI_2578/IMG_0_2578.jpg"",""SV_PolicingMSA/MI_2578/IMG_7_2578.jpg"",""SV_PolicingMSA/MI_2578/IMG_6_2578.jpg"",""SV_PolicingMSA/MI_2578/IMG_11_2578.jpg""]","2","","","","","","2","","4","[""./rc_img/cop_condGroup_10_CommunitySafety_autoscaled.png"",""./rc_img/cop_condGroup_10_SafeStreets_autoscaled.png""]","2","",""
"sliderTrial","html-slider-response","108","401619","0.0-108.0","","656776a7904ae00d6b91d1dd","6568ade3272517370d401596","5","","","","","","","","","","","","2649","[""SV_PolicingMSA/MI_2578/IMG_12_2578.jpg"",""SV_PolicingMSA/MI_2578/IMG_1_2578.jpg"",""SV_PolicingMSA/MI_2578/IMG_4_2578.jpg"",""SV_PolicingMSA/MI_2578/IMG_9_2578.jpg"",""SV_PolicingMSA/MI_2578/IMG_0_2578.jpg"",""SV_PolicingMSA/MI_2578/IMG_7_2578.jpg"",""SV_PolicingMSA/MI_2578/IMG_6_2578.jpg"",""SV_PolicingMSA/MI_2578/IMG_11_2578.jpg""]","3","","","","","","2","","4","[""./rc_img/cop_condGroup_12_SafeStreets_autoscaled.png"",""./rc_img/cop_condGroup_12_CommunitySafety_autoscaled.png""]","5","",""
"sliderTrial","html-slider-response","109","402962","0.0-109.0","","656776a7904ae00d6b91d1dd","6568ade3272517370d401596","5","","","","","","","","","","","","1342","[""SV_PolicingMSA/MI_2578/IMG_12_2578.jpg"",""SV_PolicingMSA/MI_2578/IMG_1_2578.jpg"",""SV_PolicingMSA/MI_2578/IMG_4_2578.jpg"",""SV_PolicingMSA/MI_2578/IMG_9_2578.jpg"",""SV_PolicingMSA/MI_2578/IMG_0_2578.jpg"",""SV_PolicingMSA/MI_2578/IMG_7_2578.jpg"",""SV_PolicingMSA/MI_2578/IMG_6_2578.jpg"",""SV_PolicingMSA/MI_2578/IMG_11_2578.jpg""]","5","","","","","","2","","4","[""./rc_img/cop_condGroup_11_SafeStreets_autoscaled.png"",""./rc_img/cop_condGroup_11_CommunitySafety_autoscaled.png""]","3","",""
"sliderTrial","html-slider-response","110","405934","0.0-110.0","","656776a7904ae00d6b91d1dd","6568ade3272517370d401596","5","","","","","","","","","","","","2969","[""SV_PolicingMSA/MI_2578/IMG_12_2578.jpg"",""SV_PolicingMSA/MI_2578/IMG_1_2578.jpg"",""SV_PolicingMSA/MI_2578/IMG_4_2578.jpg"",""SV_PolicingMSA/MI_2578/IMG_9_2578.jpg"",""SV_PolicingMSA/MI_2578/IMG_0_2578.jpg"",""SV_PolicingMSA/MI_2578/IMG_7_2578.jpg"",""SV_PolicingMSA/MI_2578/IMG_6_2578.jpg"",""SV_PolicingMSA/MI_2578/IMG_11_2578.jpg""]","5","","","","","","2","","4","[""./rc_img/cop_condGroup_16_SafeStreets_autoscaled.png"",""./rc_img/cop_condGroup_16_CommunitySafety_autoscaled.png""]","3","",""
"before_SVSlide_prompt","html-button-response","111","407263","0.0-111.0","","656776a7904ae00d6b91d1dd","6568ade3272517370d401596","5","","","","","","","","","","","","1328","Click [Next] to see the next neighborhood!","0","","","","","","","","","","","",""
"street view slide show","image-button-response","112","408279","0.0-112.0","","656776a7904ae00d6b91d1dd","6568ade3272517370d401596","5","","","","","","","","","","","","null","stimulus/SV_PolicingMSA/MI_2715/IMG_5_2715.jpg","null","","","","","","4","","","","","",""
"street view slide show","image-button-response","113","409291","0.0-113.0","","656776a7904ae00d6b91d1dd","6568ade3272517370d401596","5","","","","","","","","","","","","null","stimulus/SV_PolicingMSA/MI_2715/IMG_12_2715.jpg","null","","","","","","4","","","","","",""
"street view slide show","image-button-response","114","410303","0.0-114.0","","656776a7904ae00d6b91d1dd","6568ade3272517370d401596","5","","","","","","","","","","","","null","stimulus/SV_PolicingMSA/MI_2715/IMG_10_2715.jpg","null","","","","","","4","","","","","",""
"street view slide show","image-button-response","115","411317","0.0-115.0","","656776a7904ae00d6b91d1dd","6568ade3272517370d401596","5","","","","","","","","","","","","null","stimulus/SV_PolicingMSA/MI_2715/IMG_8_2715.jpg","null","","","","","","4","","","","","",""
"street view slide show","image-button-response","116","412320","0.0-116.0","","656776a7904ae00d6b91d1dd","6568ade3272517370d401596","5","","","","","","","","","","","","null","stimulus/SV_PolicingMSA/MI_2715/IMG_6_2715.jpg","null","","","","","","4","","","","","",""
"street view slide show","image-button-response","117","413473","0.0-117.0","","656776a7904ae00d6b91d1dd","6568ade3272517370d401596","5","","","","","","","","","","","","null","stimulus/SV_PolicingMSA/MI_2715/IMG_4_2715.jpg","null","","","","","","4","","","","","",""
"street view slide show","image-button-response","118","415475","0.0-118.0","","656776a7904ae00d6b91d1dd","6568ade3272517370d401596","5","","","","","","","","","","","","null","stimulus/SV_PolicingMSA/MI_2715/IMG_3_2715.jpg","null","","","","","","4","","","","","",""
"street view slide show","image-button-response","119","417483","0.0-119.0","","656776a7904ae00d6b91d1dd","6568ade3272517370d401596","5","","","","","","","","","","","","null","stimulus/SV_PolicingMSA/MI_2715/IMG_0_2715.jpg","null","","","","","","4","","","","","",""
"dot matrix survey1","survey","120","423563","0.0-120.0","","656776a7904ae00d6b91d1dd","6568ade3272517370d401596","5","","","","","","","","","","","","6072","","{""P0_Q0"":null,""P0_Q1"":{""wealthy"":1,""safe"":1,""diverse"":1,""walkable"":1,""traditional"":1}}","","","","","","4","[]","","","","",""
"dot matrix survey2","survey","121","428367","0.0-121.0","","656776a7904ae00d6b91d1dd","6568ade3272517370d401596","5","","","","","","","","","","","","4796","","{""P0_Q0"":null,""P0_Q1"":{""violence"":1,""crime"":1,""drug"":1,""schools"":1,""opportunities"":1}}","","","","","","4","[]","","","","",""
"dot matrix survey3","survey","122","432121","0.0-122.0","","656776a7904ae00d6b91d1dd","6568ade3272517370d401596","5","","","","","","","","","","","","3749","","{""P0_Q0"":null,""P0_Q1"":{""movein"":0,""moveout"":0,""shopping"":0,""walk"":0,""park"":0,""school"":0}}","","","","","","4","[]","","","","",""
"sliderTrial","html-slider-response","123","434844","0.0-123.0","","656776a7904ae00d6b91d1dd","6568ade3272517370d401596","5","","","","","","","","","","","","2721","[""SV_PolicingMSA/MI_2715/IMG_5_2715.jpg"",""SV_PolicingMSA/MI_2715/IMG_12_2715.jpg"",""SV_PolicingMSA/MI_2715/IMG_10_2715.jpg"",""SV_PolicingMSA/MI_2715/IMG_8_2715.jpg"",""SV_PolicingMSA/MI_2715/IMG_6_2715.jpg"",""SV_PolicingMSA/MI_2715/IMG_4_2715.jpg"",""SV_PolicingMSA/MI_2715/IMG_3_2715.jpg"",""SV_PolicingMSA/MI_2715/IMG_0_2715.jpg""]","3","","","","","","4","","4","[""./rc_img/cop_condGroup_15_CommunitySafety_autoscaled.png"",""./rc_img/cop_condGroup_15_SafeStreets_autoscaled.png""]","3","",""
"sliderTrial","html-slider-response","124","436764","0.0-124.0","","656776a7904ae00d6b91d1dd","6568ade3272517370d401596","5","","","","","","","","","","","","1917","[""SV_PolicingMSA/MI_2715/IMG_5_2715.jpg"",""SV_PolicingMSA/MI_2715/IMG_12_2715.jpg"",""SV_PolicingMSA/MI_2715/IMG_10_2715.jpg"",""SV_PolicingMSA/MI_2715/IMG_8_2715.jpg"",""SV_PolicingMSA/MI_2715/IMG_6_2715.jpg"",""SV_PolicingMSA/MI_2715/IMG_4_2715.jpg"",""SV_PolicingMSA/MI_2715/IMG_3_2715.jpg"",""SV_PolicingMSA/MI_2715/IMG_0_2715.jpg""]","6","","","","","","4","","4","[""./rc_img/cop_condGroup_6_SafeStreets_autoscaled.png"",""./rc_img/cop_condGroup_6_CommunitySafety_autoscaled.png""]","2","",""
"sliderTrial","html-slider-response","125","438321","0.0-125.0","","656776a7904ae00d6b91d1dd","6568ade3272517370d401596","5","","","","","","","","","","","","1555","[""SV_PolicingMSA/MI_2715/IMG_5_2715.jpg"",""SV_PolicingMSA/MI_2715/IMG_12_2715.jpg"",""SV_PolicingMSA/MI_2715/IMG_10_2715.jpg"",""SV_PolicingMSA/MI_2715/IMG_8_2715.jpg"",""SV_PolicingMSA/MI_2715/IMG_6_2715.jpg"",""SV_PolicingMSA/MI_2715/IMG_4_2715.jpg"",""SV_PolicingMSA/MI_2715/IMG_3_2715.jpg"",""SV_PolicingMSA/MI_2715/IMG_0_2715.jpg""]","2","","","","","","4","","4","[""./rc_img/cop_condGroup_1_CommunitySafety_autoscaled.png"",""./rc_img/cop_condGroup_1_SafeStreets_autoscaled.png""]","2","",""
"sliderTrial","html-slider-response","126","440680","0.0-126.0","","656776a7904ae00d6b91d1dd","6568ade3272517370d401596","5","","","","","","","","","","","","2357","[""SV_PolicingMSA/MI_2715/IMG_5_2715.jpg"",""SV_PolicingMSA/MI_2715/IMG_12_2715.jpg"",""SV_PolicingMSA/MI_2715/IMG_10_2715.jpg"",""SV_PolicingMSA/MI_2715/IMG_8_2715.jpg"",""SV_PolicingMSA/MI_2715/IMG_6_2715.jpg"",""SV_PolicingMSA/MI_2715/IMG_4_2715.jpg"",""SV_PolicingMSA/MI_2715/IMG_3_2715.jpg"",""SV_PolicingMSA/MI_2715/IMG_0_2715.jpg""]","2","","","","","","4","","4","[""./rc_img/cop_condGroup_4_CommunitySafety_autoscaled.png"",""./rc_img/cop_condGroup_4_SafeStreets_autoscaled.png""]","2","",""
"sliderTrial","html-slider-response","127","443204","0.0-127.0","","656776a7904ae00d6b91d1dd","6568ade3272517370d401596","5","","","","","","","","","","","","2522","[""SV_PolicingMSA/MI_2715/IMG_5_2715.jpg"",""SV_PolicingMSA/MI_2715/IMG_12_2715.jpg"",""SV_PolicingMSA/MI_2715/IMG_10_2715.jpg"",""SV_PolicingMSA/MI_2715/IMG_8_2715.jpg"",""SV_PolicingMSA/MI_2715/IMG_6_2715.jpg"",""SV_PolicingMSA/MI_2715/IMG_4_2715.jpg"",""SV_PolicingMSA/MI_2715/IMG_3_2715.jpg"",""SV_PolicingMSA/MI_2715/IMG_0_2715.jpg""]","6","","","","","","4","","4","[""./rc_img/cop_condGroup_19_SafeStreets_autoscaled.png"",""./rc_img/cop_condGroup_19_CommunitySafety_autoscaled.png""]","2","",""
"before_SVSlide_prompt","html-button-response","128","444768","0.0-128.0","","656776a7904ae00d6b91d1dd","6568ade3272517370d401596","5","","","","","","","","","","","","1563","Click [Next] to see the next neighborhood!","0","","","","","","","","","","","",""
"street view slide show","image-button-response","129","445784","0.0-129.0","","656776a7904ae00d6b91d1dd","6568ade3272517370d401596","5","","","","","","","","","","","","null","stimulus/SV_PolicingMSA/MI_1822/IMG_7_1822.jpg","null","","","","","","3","","","","","",""
"street view slide show","image-button-response","130","446786","0.0-130.0","","656776a7904ae00d6b91d1dd","6568ade3272517370d401596","5","","","","","","","","","","","","null","stimulus/SV_PolicingMSA/MI_1822/IMG_9_1822.jpg","null","","","","","","3","","","","","",""
"street view slide show","image-button-response","131","447788","0.0-131.0","","656776a7904ae00d6b91d1dd","6568ade3272517370d401596","5","","","","","","","","","","","","null","stimulus/SV_PolicingMSA/MI_1822/IMG_10_1822.jpg","null","","","","","","3","","","","","",""
"street view slide show","image-button-response","132","448794","0.0-132.0","","656776a7904ae00d6b91d1dd","6568ade3272517370d401596","5","","","","","","","","","","","","null","stimulus/SV_PolicingMSA/MI_1822/IMG_3_1822.jpg","null","","","","","","3","","","","","",""
"street view slide show","image-button-response","133","449810","0.0-133.0","","656776a7904ae00d6b91d1dd","6568ade3272517370d401596","5","","","","","","","","","","","","null","stimulus/SV_PolicingMSA/MI_1822/IMG_6_1822.jpg","null","","","","","","3","","","","","",""
"street view slide show","image-button-response","134","450821","0.0-134.0","","656776a7904ae00d6b91d1dd","6568ade3272517370d401596","5","","","","","","","","","","","","null","stimulus/SV_PolicingMSA/MI_1822/IMG_0_1822.jpg","null","","","","","","3","","","","","",""
"street view slide show","image-button-response","135","451823","0.0-135.0","","656776a7904ae00d6b91d1dd","6568ade3272517370d401596","5","","","","","","","","","","","","null","stimulus/SV_PolicingMSA/MI_1822/IMG_4_1822.jpg","null","","","","","","3","","","","","",""
"street view slide show","image-button-response","136","452833","0.0-136.0","","656776a7904ae00d6b91d1dd","6568ade3272517370d401596","5","","","","","","","","","","","","null","stimulus/SV_PolicingMSA/MI_1822/IMG_5_1822.jpg","null","","","","","","3","","","","","",""
"dot matrix survey1","survey","137","469960","0.0-137.0","","656776a7904ae00d6b91d1dd","6568ade3272517370d401596","5","","","","","","","","","","","","17113","","{""P0_Q0"":null,""P0_Q1"":{""wealthy"":2,""safe"":2,""traditional"":2,""walkable"":2,""diverse"":2}}","","","","","","3","[]","","","","",""
"dot matrix survey2","survey","138","473258","0.0-138.0","","656776a7904ae00d6b91d1dd","6568ade3272517370d401596","5","","","","","","","","","","","","3293","","{""P0_Q0"":null,""P0_Q1"":{""violence"":1,""crime"":1,""drug"":1,""schools"":1,""opportunities"":1}}","","","","","","3","[]","","","","",""
"dot matrix survey3","survey","139","480045","0.0-139.0","","656776a7904ae00d6b91d1dd","6568ade3272517370d401596","5","","","","","","","","","","","","6782","","{""P0_Q0"":null,""P0_Q1"":{""movein"":1,""moveout"":1,""shopping"":1,""walk"":1,""park"":1,""school"":1}}","","","","","","3","[]","","","","",""
"sliderTrial","html-slider-response","140","482479","0.0-140.0","","656776a7904ae00d6b91d1dd","6568ade3272517370d401596","5","","","","","","","","","","","","2431","[""SV_PolicingMSA/MI_1822/IMG_7_1822.jpg"",""SV_PolicingMSA/MI_1822/IMG_9_1822.jpg"",""SV_PolicingMSA/MI_1822/IMG_10_1822.jpg"",""SV_PolicingMSA/MI_1822/IMG_3_1822.jpg"",""SV_PolicingMSA/MI_1822/IMG_6_1822.jpg"",""SV_PolicingMSA/MI_1822/IMG_0_1822.jpg"",""SV_PolicingMSA/MI_1822/IMG_4_1822.jpg"",""SV_PolicingMSA/MI_1822/IMG_5_1822.jpg""]","3","","","","","","3","","4","[""./rc_img/cop_condGroup_7_CommunitySafety_autoscaled.png"",""./rc_img/cop_condGroup_7_SafeStreets_autoscaled.png""]","3","",""
"sliderTrial","html-slider-response","141","486083","0.0-141.0","","656776a7904ae00d6b91d1dd","6568ade3272517370d401596","5","","","","","","","","","","","","3602","[""SV_PolicingMSA/MI_1822/IMG_7_1822.jpg"",""SV_PolicingMSA/MI_1822/IMG_9_1822.jpg"",""SV_PolicingMSA/MI_1822/IMG_10_1822.jpg"",""SV_PolicingMSA/MI_1822/IMG_3_1822.jpg"",""SV_PolicingMSA/MI_1822/IMG_6_1822.jpg"",""SV_PolicingMSA/MI_1822/IMG_0_1822.jpg"",""SV_PolicingMSA/MI_1822/IMG_4_1822.jpg"",""SV_PolicingMSA/MI_1822/IMG_5_1822.jpg""]","2","","","","","","3","","4","[""./rc_img/cop_condGroup_13_SafeStreets_autoscaled.png"",""./rc_img/cop_condGroup_13_CommunitySafety_autoscaled.png""]","6","",""
"sliderTrial","html-slider-response","142","489417","0.0-142.0","","656776a7904ae00d6b91d1dd","6568ade3272517370d401596","5","","","","","","","","","","","","3333","[""SV_PolicingMSA/MI_1822/IMG_7_1822.jpg"",""SV_PolicingMSA/MI_1822/IMG_9_1822.jpg"",""SV_PolicingMSA/MI_1822/IMG_10_1822.jpg"",""SV_PolicingMSA/MI_1822/IMG_3_1822.jpg"",""SV_PolicingMSA/MI_1822/IMG_6_1822.jpg"",""SV_PolicingMSA/MI_1822/IMG_0_1822.jpg"",""SV_PolicingMSA/MI_1822/IMG_4_1822.jpg"",""SV_PolicingMSA/MI_1822/IMG_5_1822.jpg""]","3","","","","","","3","","4","[""./rc_img/cop_condGroup_17_CommunitySafety_autoscaled.png"",""./rc_img/cop_condGroup_17_SafeStreets_autoscaled.png""]","3","",""
"sliderTrial","html-slider-response","143","491734","0.0-143.0","","656776a7904ae00d6b91d1dd","6568ade3272517370d401596","5","","","","","","","","","","","","2315","[""SV_PolicingMSA/MI_1822/IMG_7_1822.jpg"",""SV_PolicingMSA/MI_1822/IMG_9_1822.jpg"",""SV_PolicingMSA/MI_1822/IMG_10_1822.jpg"",""SV_PolicingMSA/MI_1822/IMG_3_1822.jpg"",""SV_PolicingMSA/MI_1822/IMG_6_1822.jpg"",""SV_PolicingMSA/MI_1822/IMG_0_1822.jpg"",""SV_PolicingMSA/MI_1822/IMG_4_1822.jpg"",""SV_PolicingMSA/MI_1822/IMG_5_1822.jpg""]","6","","","","","","3","","4","[""./rc_img/cop_condGroup_8_SafeStreets_autoscaled.png"",""./rc_img/cop_condGroup_8_CommunitySafety_autoscaled.png""]","2","",""
"sliderTrial","html-slider-response","144","493753","0.0-144.0","","656776a7904ae00d6b91d1dd","6568ade3272517370d401596","5","","","","","","","","","","","","2017","[""SV_PolicingMSA/MI_1822/IMG_7_1822.jpg"",""SV_PolicingMSA/MI_1822/IMG_9_1822.jpg"",""SV_PolicingMSA/MI_1822/IMG_10_1822.jpg"",""SV_PolicingMSA/MI_1822/IMG_3_1822.jpg"",""SV_PolicingMSA/MI_1822/IMG_6_1822.jpg"",""SV_PolicingMSA/MI_1822/IMG_0_1822.jpg"",""SV_PolicingMSA/MI_1822/IMG_4_1822.jpg"",""SV_PolicingMSA/MI_1822/IMG_5_1822.jpg""]","3","","","","","","3","","4","[""./rc_img/cop_condGroup_9_SafeStreets_autoscaled.png"",""./rc_img/cop_condGroup_9_CommunitySafety_autoscaled.png""]","5","",""
"demographics","survey-html-form","145","505355","0.0-145.0","","656776a7904ae00d6b91d1dd","6568ade3272517370d401596","5","","","","","","","","","","","","11600","","{""age"":""19"",""sex"":""male"",""gender"":""man"",""gender-self-describe"":"""",""zipcode"":""77075""}","","","","","","","","","","","",""
"demographics-list","survey","146","521170","0.0-146.0","","656776a7904ae00d6b91d1dd","6568ade3272517370d401596","5","","","","","","","","","","","","15793","","{""P0_Q0"":null,""race-ethnicity"":[""Hispanic or Latinx""],""education"":""Associate’s degree"",""P1_Q0"":null,""ideology"":""Liberal"",""P2_Q0"":null,""num-moves"":0,""P3_Q0"":null,""social-ladder"":3}","","","","","","","[]","","","","",""
"end-survey","survey-text","147","527555","0.0-147.0","","656776a7904ae00d6b91d1dd","6568ade3272517370d401596","5","","","","","","","","","","","","6378","","{""Q0"":""""}","","","","","","","","","","","","2"
"end-survey","html-button-response","148","529260","0.0-148.0","","656776a7904ae00d6b91d1dd","6568ade3272517370d401596","5","","","","","","","","","","","","1704","
    You've reached the end of the survey. <br><br> 
    <b>Do not close or refresh this window.</b><br>
    On the next page, you will be automatically redirected to Prolific. <br><br>

    <div class=""alert alert-warning""><b>
    </div>
","0","","","","","","","","","","","",""
