"task","trial_type","trial_index","time_elapsed","internal_node_id","subject_id","study_id","session_id","section","width","height","webaudio","browser","browser_version","mobile","os","fullscreen","vsync_rate","webcam","microphone","rt","stimulus","response","success","timeout","failed_images","failed_audio","failed_video","block","accuracy","slider_start","choices","standardized_response","correct","num_attention_checks_correct"
"pavlovia-init","pavlovia","0","1429","0.0-0.0","","656776a7904ae00d6b91d1dd","6568a646f02565f56978d642","8","","","","","","","","","","","","","","","","","","","","","","","","","",""
"browser-check","browser-check","1","2433","0.0-1.0","","656776a7904ae00d6b91d1dd","6568a646f02565f56978d642","8","1920","955","true","chrome","119.0.0","false","Windows 10","true","59.99","true","true","","","","","","","","","","","","","","",""
"consent","html-button-response","2","7406","0.0-2.0","","656776a7904ae00d6b91d1dd","6568a646f02565f56978d642","8","","","","","","","","","","","","4972","
        <div style=""font-size: 80%; max-width:700px"">
            <h2>CONSENT FORM</h2>
        
            <div style=""text-align: left"">
            <h4>DESCRIPTION</h4>
            <p>
            You will complete a short task where you give your impressions of various neighborhoods and assign individuals to those spaces, and answer some questions about your thoughts and opinions.<br>
            The University of Michigan Institutional Review Board Health Sciences and Behavioral Sciences has determined that this study is exempt from IRB oversight.
            </p>

            <h4>TIME INVOLVEMENT</h4>
            <p>Your participation will take approximately 15 minutes. You will receive $3.15 upon completion of the study.</p>
        
            <h4>RISKS AND BENEFITS</h4>
            <p>
            The risks associated with this study are minimal. The benefits which may reasonably be expected to result from this study are none. We cannot and do not guarantee or promise that you will receive any benefits from this study.
            </p>
          
            <h4>SUBJECT'S RIGHTS</h4>
            <p>
            If you have read this form and have decided to participate in this project, please understand your participation is voluntary and you have the right to withdraw your consent or discontinue participation at any time without penalty or loss of benefits to which you are otherwise entitled. The alternative is not to participate. You have the right to refuse to answer particular questions. Your individual privacy will be maintained in all published and written data resulting from the study.
            </p>

            <h4>HUMAN SUBJECT APPROVAL</h4>
            <p>
            This study is exempt from ongoing IRB review.
            </p>

            <h4>CONTACT INFORMATION</h4>
            If you have any questions, concerns or complaints about this research, its procedures, risks and benefits, contact the Protocol Director, Nicholas Camp, npcamp@umich.edu, (443) 851-6783. <br>

            If you have questions about your rights as a research participant, or wish to obtain information, ask questions or discuss any concerns about this study with someone other than the researcher(s), please contact the following:<br><br>
            University of Michigan<br>
            Health Sciences and Behavioral Sciences Institutional Review Board (IRB-HSBS)<br>
            2800 Plymouth Road<br>
            Building 520, Room 1169Ann Arbor, MI 48109-2800<br>
            Telephone: 734-936-0933 or toll free (866) 936-0933<br>
            Fax: 734-936-1852<br>
            E-mail: irbhsbs@umich.edu<br><br>

            You can also contact the University of Michigan Compliance Hotline at 1-866-990-0111. You may also print this consent form to keep.
            <br><br>
            <div class=""alert alert-warning""><b>
            Do you consent to participate in this study? If you consent to participate in this study, please click “Accept and Continue”. If you select ""Decline and Exit"", you will be exited from the survey. <br>
            </b></div>
            </div>
        </div>
    ","1","","","","","","","","","","","",""
"","preload","3","18263","0.0-3.0","","656776a7904ae00d6b91d1dd","6568a646f02565f56978d642","8","","","","","","","","","","","","","","","true","false","[]","[]","[]","","","","","","",""
"instructions","html-button-response","4","64925","0.0-4.0","","656776a7904ae00d6b91d1dd","6568a646f02565f56978d642","8","","","","","","","","","","","","46659","
        <div class=""text-container"">
        <h1>Welcome to the study!</h1>
        
        <div class=""text-left"">
            <p>
                In this study, we are interested in what people can tell about spaces from Google Street View images. <br> Google Street View takes pictures of streets used for Google Earth and Google Maps. <br>You’ll see Google Street View images of different places and answer some questions about each one.<br>
            </p>
        </div>
        <img src = ""assets/img/example.png"" width = 500px, height = auto>
        <br>
    <br>
    ","0","","","","","","","","","","","",""
"instructions","html-button-response","5","79211","0.0-5.0","","656776a7904ae00d6b91d1dd","6568a646f02565f56978d642","8","","","","","","","","","","","","14285","
    <div class=""text-container"">
        <div class=""text-center"">
            <p>Please remember that your answers are completely anonymous.<br>Go with your gut response- there are no right or wrong answers!</p>
        </div>
    <br>
","0","","","","","","","","","","","",""
"before_SVSlide_prompt","html-button-response","6","79970","0.0-6.0","","656776a7904ae00d6b91d1dd","6568a646f02565f56978d642","8","","","","","","","","","","","","758","Click [Next] to see the next neighborhood!","0","","","","","","","","","","","",""
"street view slide show","image-button-response","7","80981","0.0-7.0","","656776a7904ae00d6b91d1dd","6568a646f02565f56978d642","8","","","","","","","","","","","","null","stimulus/SV_PolicingMSA/TX_109/IMG_7_109.jpg","null","","","","","","3","","","","","",""
"street view slide show","image-button-response","8","81992","0.0-8.0","","656776a7904ae00d6b91d1dd","6568a646f02565f56978d642","8","","","","","","","","","","","","null","stimulus/SV_PolicingMSA/TX_109/IMG_3_109.jpg","null","","","","","","3","","","","","",""
"street view slide show","image-button-response","9","83002","0.0-9.0","","656776a7904ae00d6b91d1dd","6568a646f02565f56978d642","8","","","","","","","","","","","","null","stimulus/SV_PolicingMSA/TX_109/IMG_10_109.jpg","null","","","","","","3","","","","","",""
"street view slide show","image-button-response","10","84019","0.0-10.0","","656776a7904ae00d6b91d1dd","6568a646f02565f56978d642","8","","","","","","","","","","","","null","stimulus/SV_PolicingMSA/TX_109/IMG_0_109.jpg","null","","","","","","3","","","","","",""
"street view slide show","image-button-response","11","85028","0.0-11.0","","656776a7904ae00d6b91d1dd","6568a646f02565f56978d642","8","","","","","","","","","","","","null","stimulus/SV_PolicingMSA/TX_109/IMG_4_109.jpg","null","","","","","","3","","","","","",""
"street view slide show","image-button-response","12","86046","0.0-12.0","","656776a7904ae00d6b91d1dd","6568a646f02565f56978d642","8","","","","","","","","","","","","null","stimulus/SV_PolicingMSA/TX_109/IMG_13_109.jpg","null","","","","","","3","","","","","",""
"street view slide show","image-button-response","13","87058","0.0-13.0","","656776a7904ae00d6b91d1dd","6568a646f02565f56978d642","8","","","","","","","","","","","","null","stimulus/SV_PolicingMSA/TX_109/IMG_6_109.jpg","null","","","","","","3","","","","","",""
"street view slide show","image-button-response","14","88068","0.0-14.0","","656776a7904ae00d6b91d1dd","6568a646f02565f56978d642","8","","","","","","","","","","","","null","stimulus/SV_PolicingMSA/TX_109/IMG_14_109.jpg","null","","","","","","3","","","","","",""
"dot matrix survey1","survey","15","119282","0.0-15.0","","656776a7904ae00d6b91d1dd","6568a646f02565f56978d642","8","","","","","","","","","","","","31148","","{""P0_Q0"":null,""P0_Q1"":{""wealthy"":1,""safe"":2,""walkable"":2,""traditional"":2,""diverse"":1}}","","","","","","3","[]","","","","",""
"dot matrix survey2","survey","16","134752","0.0-16.0","","656776a7904ae00d6b91d1dd","6568a646f02565f56978d642","8","","","","","","","","","","","","15461","","{""P0_Q0"":null,""P0_Q1"":{""violence"":2,""crime"":2,""drug"":3,""schools"":1,""opportunities"":1}}","","","","","","3","[]","","","","",""
"dot matrix survey3","survey","17","217299","0.0-17.0","","656776a7904ae00d6b91d1dd","6568a646f02565f56978d642","8","","","","","","","","","","","","82541","","{""P0_Q0"":null,""P0_Q1"":{""movein"":1,""moveout"":2,""shopping"":1,""walk"":2,""park"":0,""school"":1}}","","","","","","3","[]","","","","",""
"sliderTrial","html-slider-response","18","242651","0.0-18.0","","656776a7904ae00d6b91d1dd","6568a646f02565f56978d642","8","","","","","","","","","","","","25350","[""SV_PolicingMSA/TX_109/IMG_7_109.jpg"",""SV_PolicingMSA/TX_109/IMG_3_109.jpg"",""SV_PolicingMSA/TX_109/IMG_10_109.jpg"",""SV_PolicingMSA/TX_109/IMG_0_109.jpg"",""SV_PolicingMSA/TX_109/IMG_4_109.jpg"",""SV_PolicingMSA/TX_109/IMG_13_109.jpg"",""SV_PolicingMSA/TX_109/IMG_6_109.jpg"",""SV_PolicingMSA/TX_109/IMG_14_109.jpg""]","5","","","","","","3","","4","[""./rc_img/cop_condGroup_17_CommunitySafety_autoscaled.png"",""./rc_img/cop_condGroup_17_SafeStreets_autoscaled.png""]","5","",""
"sliderTrial","html-slider-response","19","252330","0.0-19.0","","656776a7904ae00d6b91d1dd","6568a646f02565f56978d642","8","","","","","","","","","","","","9677","[""SV_PolicingMSA/TX_109/IMG_7_109.jpg"",""SV_PolicingMSA/TX_109/IMG_3_109.jpg"",""SV_PolicingMSA/TX_109/IMG_10_109.jpg"",""SV_PolicingMSA/TX_109/IMG_0_109.jpg"",""SV_PolicingMSA/TX_109/IMG_4_109.jpg"",""SV_PolicingMSA/TX_109/IMG_13_109.jpg"",""SV_PolicingMSA/TX_109/IMG_6_109.jpg"",""SV_PolicingMSA/TX_109/IMG_14_109.jpg""]","3","","","","","","3","","4","[""./rc_img/cop_condGroup_11_SafeStreets_autoscaled.png"",""./rc_img/cop_condGroup_11_CommunitySafety_autoscaled.png""]","5","",""
"sliderTrial","html-slider-response","20","258536","0.0-20.0","","656776a7904ae00d6b91d1dd","6568a646f02565f56978d642","8","","","","","","","","","","","","6202","[""SV_PolicingMSA/TX_109/IMG_7_109.jpg"",""SV_PolicingMSA/TX_109/IMG_3_109.jpg"",""SV_PolicingMSA/TX_109/IMG_10_109.jpg"",""SV_PolicingMSA/TX_109/IMG_0_109.jpg"",""SV_PolicingMSA/TX_109/IMG_4_109.jpg"",""SV_PolicingMSA/TX_109/IMG_13_109.jpg"",""SV_PolicingMSA/TX_109/IMG_6_109.jpg"",""SV_PolicingMSA/TX_109/IMG_14_109.jpg""]","4","","","","","","3","","4","[""./rc_img/cop_condGroup_9_CommunitySafety_autoscaled.png"",""./rc_img/cop_condGroup_9_SafeStreets_autoscaled.png""]","4","",""
"sliderTrial","html-slider-response","21","262771","0.0-21.0","","656776a7904ae00d6b91d1dd","6568a646f02565f56978d642","8","","","","","","","","","","","","4233","[""SV_PolicingMSA/TX_109/IMG_7_109.jpg"",""SV_PolicingMSA/TX_109/IMG_3_109.jpg"",""SV_PolicingMSA/TX_109/IMG_10_109.jpg"",""SV_PolicingMSA/TX_109/IMG_0_109.jpg"",""SV_PolicingMSA/TX_109/IMG_4_109.jpg"",""SV_PolicingMSA/TX_109/IMG_13_109.jpg"",""SV_PolicingMSA/TX_109/IMG_6_109.jpg"",""SV_PolicingMSA/TX_109/IMG_14_109.jpg""]","3","","","","","","3","","4","[""./rc_img/cop_condGroup_14_SafeStreets_autoscaled.png"",""./rc_img/cop_condGroup_14_CommunitySafety_autoscaled.png""]","5","",""
"sliderTrial","html-slider-response","22","269484","0.0-22.0","","656776a7904ae00d6b91d1dd","6568a646f02565f56978d642","8","","","","","","","","","","","","6711","[""SV_PolicingMSA/TX_109/IMG_7_109.jpg"",""SV_PolicingMSA/TX_109/IMG_3_109.jpg"",""SV_PolicingMSA/TX_109/IMG_10_109.jpg"",""SV_PolicingMSA/TX_109/IMG_0_109.jpg"",""SV_PolicingMSA/TX_109/IMG_4_109.jpg"",""SV_PolicingMSA/TX_109/IMG_13_109.jpg"",""SV_PolicingMSA/TX_109/IMG_6_109.jpg"",""SV_PolicingMSA/TX_109/IMG_14_109.jpg""]","3","","","","","","3","","4","[""./rc_img/cop_condGroup_10_SafeStreets_autoscaled.png"",""./rc_img/cop_condGroup_10_CommunitySafety_autoscaled.png""]","5","",""
"before_SVSlide_prompt","html-button-response","23","270977","0.0-23.0","","656776a7904ae00d6b91d1dd","6568a646f02565f56978d642","8","","","","","","","","","","","","1491","Click [Next] to see the next neighborhood!","0","","","","","","","","","","","",""
"street view slide show","image-button-response","24","271993","0.0-24.0","","656776a7904ae00d6b91d1dd","6568a646f02565f56978d642","8","","","","","","","","","","","","null","stimulus/SV_PolicingMSA/TX_130/IMG_14_130.jpg","null","","","","","","0","","","","","",""
"street view slide show","image-button-response","25","273010","0.0-25.0","","656776a7904ae00d6b91d1dd","6568a646f02565f56978d642","8","","","","","","","","","","","","null","stimulus/SV_PolicingMSA/TX_130/IMG_13_130.jpg","null","","","","","","0","","","","","",""
"street view slide show","image-button-response","26","274012","0.0-26.0","","656776a7904ae00d6b91d1dd","6568a646f02565f56978d642","8","","","","","","","","","","","","null","stimulus/SV_PolicingMSA/TX_130/IMG_12_130.jpg","null","","","","","","0","","","","","",""
"street view slide show","image-button-response","27","275025","0.0-27.0","","656776a7904ae00d6b91d1dd","6568a646f02565f56978d642","8","","","","","","","","","","","","null","stimulus/SV_PolicingMSA/TX_130/IMG_8_130.jpg","null","","","","","","0","","","","","",""
"street view slide show","image-button-response","28","276035","0.0-28.0","","656776a7904ae00d6b91d1dd","6568a646f02565f56978d642","8","","","","","","","","","","","","null","stimulus/SV_PolicingMSA/TX_130/IMG_4_130.jpg","null","","","","","","0","","","","","",""
"street view slide show","image-button-response","29","277045","0.0-29.0","","656776a7904ae00d6b91d1dd","6568a646f02565f56978d642","8","","","","","","","","","","","","null","stimulus/SV_PolicingMSA/TX_130/IMG_10_130.jpg","null","","","","","","0","","","","","",""
"street view slide show","image-button-response","30","278052","0.0-30.0","","656776a7904ae00d6b91d1dd","6568a646f02565f56978d642","8","","","","","","","","","","","","null","stimulus/SV_PolicingMSA/TX_130/IMG_0_130.jpg","null","","","","","","0","","","","","",""
"street view slide show","image-button-response","31","279061","0.0-31.0","","656776a7904ae00d6b91d1dd","6568a646f02565f56978d642","8","","","","","","","","","","","","null","stimulus/SV_PolicingMSA/TX_130/IMG_7_130.jpg","null","","","","","","0","","","","","",""
"dot matrix survey1","survey","32","330885","0.0-32.0","","656776a7904ae00d6b91d1dd","6568a646f02565f56978d642","8","","","","","","","","","","","","51780","","{""P0_Q0"":null,""P0_Q1"":{""wealthy"":2,""safe"":2,""walkable"":2,""traditional"":3,""diverse"":2}}","","","","","","0","[]","","","","",""
"dot matrix survey2","survey","33","349232","0.0-33.0","","656776a7904ae00d6b91d1dd","6568a646f02565f56978d642","8","","","","","","","","","","","","18340","","{""P0_Q0"":null,""P0_Q1"":{""violence"":1,""crime"":2,""drug"":2,""schools"":2,""opportunities"":1}}","","","","","","0","[]","","","","",""
"dot matrix survey3","survey","34","374308","0.0-34.0","","656776a7904ae00d6b91d1dd","6568a646f02565f56978d642","8","","","","","","","","","","","","25071","","{""P0_Q0"":null,""P0_Q1"":{""movein"":2,""moveout"":1,""shopping"":3,""walk"":2,""park"":1,""school"":1}}","","","","","","0","[]","","","","",""
"sliderTrial","html-slider-response","35","382964","0.0-35.0","","656776a7904ae00d6b91d1dd","6568a646f02565f56978d642","8","","","","","","","","","","","","8655","[""SV_PolicingMSA/TX_130/IMG_14_130.jpg"",""SV_PolicingMSA/TX_130/IMG_13_130.jpg"",""SV_PolicingMSA/TX_130/IMG_12_130.jpg"",""SV_PolicingMSA/TX_130/IMG_8_130.jpg"",""SV_PolicingMSA/TX_130/IMG_4_130.jpg"",""SV_PolicingMSA/TX_130/IMG_10_130.jpg"",""SV_PolicingMSA/TX_130/IMG_0_130.jpg"",""SV_PolicingMSA/TX_130/IMG_7_130.jpg""]","3","","","","","","0","","4","[""./rc_img/cop_condGroup_20_CommunitySafety_autoscaled.png"",""./rc_img/cop_condGroup_20_SafeStreets_autoscaled.png""]","3","",""
"sliderTrial","html-slider-response","36","385758","0.0-36.0","","656776a7904ae00d6b91d1dd","6568a646f02565f56978d642","8","","","","","","","","","","","","2791","[""SV_PolicingMSA/TX_130/IMG_14_130.jpg"",""SV_PolicingMSA/TX_130/IMG_13_130.jpg"",""SV_PolicingMSA/TX_130/IMG_12_130.jpg"",""SV_PolicingMSA/TX_130/IMG_8_130.jpg"",""SV_PolicingMSA/TX_130/IMG_4_130.jpg"",""SV_PolicingMSA/TX_130/IMG_10_130.jpg"",""SV_PolicingMSA/TX_130/IMG_0_130.jpg"",""SV_PolicingMSA/TX_130/IMG_7_130.jpg""]","3","","","","","","0","","4","[""./rc_img/cop_condGroup_5_CommunitySafety_autoscaled.png"",""./rc_img/cop_condGroup_5_SafeStreets_autoscaled.png""]","3","",""
"sliderTrial","html-slider-response","37","391444","0.0-37.0","","656776a7904ae00d6b91d1dd","6568a646f02565f56978d642","8","","","","","","","","","","","","5684","[""SV_PolicingMSA/TX_130/IMG_14_130.jpg"",""SV_PolicingMSA/TX_130/IMG_13_130.jpg"",""SV_PolicingMSA/TX_130/IMG_12_130.jpg"",""SV_PolicingMSA/TX_130/IMG_8_130.jpg"",""SV_PolicingMSA/TX_130/IMG_4_130.jpg"",""SV_PolicingMSA/TX_130/IMG_10_130.jpg"",""SV_PolicingMSA/TX_130/IMG_0_130.jpg"",""SV_PolicingMSA/TX_130/IMG_7_130.jpg""]","3","","","","","","0","","4","[""./rc_img/cop_condGroup_6_CommunitySafety_autoscaled.png"",""./rc_img/cop_condGroup_6_SafeStreets_autoscaled.png""]","3","",""
"sliderTrial","html-slider-response","38","400298","0.0-38.0","","656776a7904ae00d6b91d1dd","6568a646f02565f56978d642","8","","","","","","","","","","","","8851","[""SV_PolicingMSA/TX_130/IMG_14_130.jpg"",""SV_PolicingMSA/TX_130/IMG_13_130.jpg"",""SV_PolicingMSA/TX_130/IMG_12_130.jpg"",""SV_PolicingMSA/TX_130/IMG_8_130.jpg"",""SV_PolicingMSA/TX_130/IMG_4_130.jpg"",""SV_PolicingMSA/TX_130/IMG_10_130.jpg"",""SV_PolicingMSA/TX_130/IMG_0_130.jpg"",""SV_PolicingMSA/TX_130/IMG_7_130.jpg""]","4","","","","","","0","","4","[""./rc_img/cop_condGroup_8_SafeStreets_autoscaled.png"",""./rc_img/cop_condGroup_8_CommunitySafety_autoscaled.png""]","4","",""
"sliderTrial_attention","html-slider-response","39","410309","0.0-39.0","","656776a7904ae00d6b91d1dd","6568a646f02565f56978d642","8","","","","","","","","","","","","null","[""SV_PolicingMSA/TX_130/IMG_14_130.jpg"",""SV_PolicingMSA/TX_130/IMG_13_130.jpg"",""SV_PolicingMSA/TX_130/IMG_12_130.jpg"",""SV_PolicingMSA/TX_130/IMG_8_130.jpg"",""SV_PolicingMSA/TX_130/IMG_4_130.jpg"",""SV_PolicingMSA/TX_130/IMG_10_130.jpg"",""SV_PolicingMSA/TX_130/IMG_0_130.jpg"",""SV_PolicingMSA/TX_130/IMG_7_130.jpg""]","null","","","","","","0","","4","[""./assets/img/attnchk.png"",""./assets/img/attnchk.png""]","","true",""
"sliderTrial","html-slider-response","40","418614","0.0-40.0","","656776a7904ae00d6b91d1dd","6568a646f02565f56978d642","8","","","","","","","","","","","","8299","[""SV_PolicingMSA/TX_130/IMG_14_130.jpg"",""SV_PolicingMSA/TX_130/IMG_13_130.jpg"",""SV_PolicingMSA/TX_130/IMG_12_130.jpg"",""SV_PolicingMSA/TX_130/IMG_8_130.jpg"",""SV_PolicingMSA/TX_130/IMG_4_130.jpg"",""SV_PolicingMSA/TX_130/IMG_10_130.jpg"",""SV_PolicingMSA/TX_130/IMG_0_130.jpg"",""SV_PolicingMSA/TX_130/IMG_7_130.jpg""]","3","","","","","","0","","4","[""./rc_img/cop_condGroup_3_CommunitySafety_autoscaled.png"",""./rc_img/cop_condGroup_3_SafeStreets_autoscaled.png""]","3","",""
"before_SVSlide_prompt","html-button-response","41","420276","0.0-41.0","","656776a7904ae00d6b91d1dd","6568a646f02565f56978d642","8","","","","","","","","","","","","1661","Click [Next] to see the next neighborhood!","0","","","","","","","","","","","",""
"street view slide show","image-button-response","42","421288","0.0-42.0","","656776a7904ae00d6b91d1dd","6568a646f02565f56978d642","8","","","","","","","","","","","","null","stimulus/SV_PolicingMSA/TX_348/IMG_3_348.jpg","null","","","","","","1","","","","","",""
"street view slide show","image-button-response","43","422297","0.0-43.0","","656776a7904ae00d6b91d1dd","6568a646f02565f56978d642","8","","","","","","","","","","","","null","stimulus/SV_PolicingMSA/TX_348/IMG_2_348.jpg","null","","","","","","1","","","","","",""
"street view slide show","image-button-response","44","423300","0.0-44.0","","656776a7904ae00d6b91d1dd","6568a646f02565f56978d642","8","","","","","","","","","","","","null","stimulus/SV_PolicingMSA/TX_348/IMG_11_348.jpg","null","","","","","","1","","","","","",""
"street view slide show","image-button-response","45","424316","0.0-45.0","","656776a7904ae00d6b91d1dd","6568a646f02565f56978d642","8","","","","","","","","","","","","null","stimulus/SV_PolicingMSA/TX_348/IMG_1_348.jpg","null","","","","","","1","","","","","",""
"street view slide show","image-button-response","46","425331","0.0-46.0","","656776a7904ae00d6b91d1dd","6568a646f02565f56978d642","8","","","","","","","","","","","","null","stimulus/SV_PolicingMSA/TX_348/IMG_6_348.jpg","null","","","","","","1","","","","","",""
"street view slide show","image-button-response","47","426346","0.0-47.0","","656776a7904ae00d6b91d1dd","6568a646f02565f56978d642","8","","","","","","","","","","","","null","stimulus/SV_PolicingMSA/TX_348/IMG_13_348.jpg","null","","","","","","1","","","","","",""
"street view slide show","image-button-response","48","427361","0.0-48.0","","656776a7904ae00d6b91d1dd","6568a646f02565f56978d642","8","","","","","","","","","","","","null","stimulus/SV_PolicingMSA/TX_348/IMG_5_348.jpg","null","","","","","","1","","","","","",""
"street view slide show","image-button-response","49","428376","0.0-49.0","","656776a7904ae00d6b91d1dd","6568a646f02565f56978d642","8","","","","","","","","","","","","null","stimulus/SV_PolicingMSA/TX_348/IMG_4_348.jpg","null","","","","","","1","","","","","",""
"dot matrix survey1","survey","50","451859","0.0-50.0","","656776a7904ae00d6b91d1dd","6568a646f02565f56978d642","8","","","","","","","","","","","","23457","","{""P0_Q0"":null,""P0_Q1"":{""wealthy"":2,""safe"":2,""walkable"":1,""traditional"":1,""diverse"":2}}","","","","","","1","[]","","","","",""
"dot matrix survey2","survey","51","482068","0.0-51.0","","656776a7904ae00d6b91d1dd","6568a646f02565f56978d642","8","","","","","","","","","","","","30204","","{""P0_Q0"":null,""P0_Q1"":{""violence"":2,""crime"":1,""drug"":3,""schools"":2,""opportunities"":1}}","","","","","","1","[]","","","","",""
"dot matrix survey3","survey","52","503954","0.0-52.0","","656776a7904ae00d6b91d1dd","6568a646f02565f56978d642","8","","","","","","","","","","","","21875","","{""P0_Q0"":null,""P0_Q1"":{""movein"":1,""moveout"":3,""shopping"":1,""walk"":1,""park"":0,""school"":1}}","","","","","","1","[]","","","","",""
"sliderTrial","html-slider-response","53","527066","0.0-53.0","","656776a7904ae00d6b91d1dd","6568a646f02565f56978d642","8","","","","","","","","","","","","23111","[""SV_PolicingMSA/TX_348/IMG_3_348.jpg"",""SV_PolicingMSA/TX_348/IMG_2_348.jpg"",""SV_PolicingMSA/TX_348/IMG_11_348.jpg"",""SV_PolicingMSA/TX_348/IMG_1_348.jpg"",""SV_PolicingMSA/TX_348/IMG_6_348.jpg"",""SV_PolicingMSA/TX_348/IMG_13_348.jpg"",""SV_PolicingMSA/TX_348/IMG_5_348.jpg"",""SV_PolicingMSA/TX_348/IMG_4_348.jpg""]","4","","","","","","1","","4","[""./rc_img/cop_condGroup_4_SafeStreets_autoscaled.png"",""./rc_img/cop_condGroup_4_CommunitySafety_autoscaled.png""]","4","",""
"sliderTrial","html-slider-response","54","544330","0.0-54.0","","656776a7904ae00d6b91d1dd","6568a646f02565f56978d642","8","","","","","","","","","","","","17261","[""SV_PolicingMSA/TX_348/IMG_3_348.jpg"",""SV_PolicingMSA/TX_348/IMG_2_348.jpg"",""SV_PolicingMSA/TX_348/IMG_11_348.jpg"",""SV_PolicingMSA/TX_348/IMG_1_348.jpg"",""SV_PolicingMSA/TX_348/IMG_6_348.jpg"",""SV_PolicingMSA/TX_348/IMG_13_348.jpg"",""SV_PolicingMSA/TX_348/IMG_5_348.jpg"",""SV_PolicingMSA/TX_348/IMG_4_348.jpg""]","5","","","","","","1","","4","[""./rc_img/cop_condGroup_7_CommunitySafety_autoscaled.png"",""./rc_img/cop_condGroup_7_SafeStreets_autoscaled.png""]","5","",""
"sliderTrial_attention","html-slider-response","55","554342","0.0-55.0","","656776a7904ae00d6b91d1dd","6568a646f02565f56978d642","8","","","","","","","","","","","","null","[""SV_PolicingMSA/TX_348/IMG_3_348.jpg"",""SV_PolicingMSA/TX_348/IMG_2_348.jpg"",""SV_PolicingMSA/TX_348/IMG_11_348.jpg"",""SV_PolicingMSA/TX_348/IMG_1_348.jpg"",""SV_PolicingMSA/TX_348/IMG_6_348.jpg"",""SV_PolicingMSA/TX_348/IMG_13_348.jpg"",""SV_PolicingMSA/TX_348/IMG_5_348.jpg"",""SV_PolicingMSA/TX_348/IMG_4_348.jpg""]","null","","","","","","1","","4","[""./assets/img/attnchk.png"",""./assets/img/attnchk.png""]","","true",""
"sliderTrial","html-slider-response","56","562954","0.0-56.0","","656776a7904ae00d6b91d1dd","6568a646f02565f56978d642","8","","","","","","","","","","","","8608","[""SV_PolicingMSA/TX_348/IMG_3_348.jpg"",""SV_PolicingMSA/TX_348/IMG_2_348.jpg"",""SV_PolicingMSA/TX_348/IMG_11_348.jpg"",""SV_PolicingMSA/TX_348/IMG_1_348.jpg"",""SV_PolicingMSA/TX_348/IMG_6_348.jpg"",""SV_PolicingMSA/TX_348/IMG_13_348.jpg"",""SV_PolicingMSA/TX_348/IMG_5_348.jpg"",""SV_PolicingMSA/TX_348/IMG_4_348.jpg""]","5","","","","","","1","","4","[""./rc_img/cop_condGroup_2_CommunitySafety_autoscaled.png"",""./rc_img/cop_condGroup_2_SafeStreets_autoscaled.png""]","5","",""
"sliderTrial","html-slider-response","57","565414","0.0-57.0","","656776a7904ae00d6b91d1dd","6568a646f02565f56978d642","8","","","","","","","","","","","","2458","[""SV_PolicingMSA/TX_348/IMG_3_348.jpg"",""SV_PolicingMSA/TX_348/IMG_2_348.jpg"",""SV_PolicingMSA/TX_348/IMG_11_348.jpg"",""SV_PolicingMSA/TX_348/IMG_1_348.jpg"",""SV_PolicingMSA/TX_348/IMG_6_348.jpg"",""SV_PolicingMSA/TX_348/IMG_13_348.jpg"",""SV_PolicingMSA/TX_348/IMG_5_348.jpg"",""SV_PolicingMSA/TX_348/IMG_4_348.jpg""]","4","","","","","","1","","4","[""./rc_img/cop_condGroup_12_CommunitySafety_autoscaled.png"",""./rc_img/cop_condGroup_12_SafeStreets_autoscaled.png""]","4","",""
"sliderTrial","html-slider-response","58","569367","0.0-58.0","","656776a7904ae00d6b91d1dd","6568a646f02565f56978d642","8","","","","","","","","","","","","3951","[""SV_PolicingMSA/TX_348/IMG_3_348.jpg"",""SV_PolicingMSA/TX_348/IMG_2_348.jpg"",""SV_PolicingMSA/TX_348/IMG_11_348.jpg"",""SV_PolicingMSA/TX_348/IMG_1_348.jpg"",""SV_PolicingMSA/TX_348/IMG_6_348.jpg"",""SV_PolicingMSA/TX_348/IMG_13_348.jpg"",""SV_PolicingMSA/TX_348/IMG_5_348.jpg"",""SV_PolicingMSA/TX_348/IMG_4_348.jpg""]","4","","","","","","1","","4","[""./rc_img/cop_condGroup_16_SafeStreets_autoscaled.png"",""./rc_img/cop_condGroup_16_CommunitySafety_autoscaled.png""]","4","",""
"before_SVSlide_prompt","html-button-response","59","570529","0.0-59.0","","656776a7904ae00d6b91d1dd","6568a646f02565f56978d642","8","","","","","","","","","","","","1161","Click [Next] to see the next neighborhood!","0","","","","","","","","","","","",""
"street view slide show","image-button-response","60","571543","0.0-60.0","","656776a7904ae00d6b91d1dd","6568a646f02565f56978d642","8","","","","","","","","","","","","null","stimulus/SV_PolicingMSA/TX_134/IMG_11_134.jpg","null","","","","","","2","","","","","",""
"street view slide show","image-button-response","61","572558","0.0-61.0","","656776a7904ae00d6b91d1dd","6568a646f02565f56978d642","8","","","","","","","","","","","","null","stimulus/SV_PolicingMSA/TX_134/IMG_5_134.jpg","null","","","","","","2","","","","","",""
"street view slide show","image-button-response","62","573561","0.0-62.0","","656776a7904ae00d6b91d1dd","6568a646f02565f56978d642","8","","","","","","","","","","","","null","stimulus/SV_PolicingMSA/TX_134/IMG_8_134.jpg","null","","","","","","2","","","","","",""
"street view slide show","image-button-response","63","575498","0.0-63.0","","656776a7904ae00d6b91d1dd","6568a646f02565f56978d642","8","","","","","","","","","","","","null","stimulus/SV_PolicingMSA/TX_134/IMG_4_134.jpg","null","","","","","","2","","","","","",""
"street view slide show","image-button-response","64","576507","0.0-64.0","","656776a7904ae00d6b91d1dd","6568a646f02565f56978d642","8","","","","","","","","","","","","null","stimulus/SV_PolicingMSA/TX_134/IMG_3_134.jpg","null","","","","","","2","","","","","",""
"street view slide show","image-button-response","65","577515","0.0-65.0","","656776a7904ae00d6b91d1dd","6568a646f02565f56978d642","8","","","","","","","","","","","","null","stimulus/SV_PolicingMSA/TX_134/IMG_2_134.jpg","null","","","","","","2","","","","","",""
"street view slide show","image-button-response","66","578518","0.0-66.0","","656776a7904ae00d6b91d1dd","6568a646f02565f56978d642","8","","","","","","","","","","","","null","stimulus/SV_PolicingMSA/TX_134/IMG_0_134.jpg","null","","","","","","2","","","","","",""
"street view slide show","image-button-response","67","579535","0.0-67.0","","656776a7904ae00d6b91d1dd","6568a646f02565f56978d642","8","","","","","","","","","","","","null","stimulus/SV_PolicingMSA/TX_134/IMG_13_134.jpg","null","","","","","","2","","","","","",""
"dot matrix survey1","survey","68","593219","0.0-68.0","","656776a7904ae00d6b91d1dd","6568a646f02565f56978d642","8","","","","","","","","","","","","13663","","{""P0_Q0"":null,""P0_Q1"":{""wealthy"":1,""safe"":2,""walkable"":2,""traditional"":2,""diverse"":2}}","","","","","","2","[]","","","","",""
"dot matrix survey2","survey","69","607830","0.0-69.0","","656776a7904ae00d6b91d1dd","6568a646f02565f56978d642","8","","","","","","","","","","","","14605","","{""P0_Q0"":null,""P0_Q1"":{""violence"":1,""crime"":1,""drug"":2,""schools"":1,""opportunities"":1}}","","","","","","2","[]","","","","",""
"dot matrix survey3","survey","70","649507","0.0-70.0","","656776a7904ae00d6b91d1dd","6568a646f02565f56978d642","8","","","","","","","","","","","","41668","","{""P0_Q0"":null,""P0_Q1"":{""movein"":1,""moveout"":2,""shopping"":2,""walk"":2,""park"":1,""school"":1}}","","","","","","2","[]","","","","",""
"sliderTrial","html-slider-response","71","656534","0.0-71.0","","656776a7904ae00d6b91d1dd","6568a646f02565f56978d642","8","","","","","","","","","","","","7025","[""SV_PolicingMSA/TX_134/IMG_11_134.jpg"",""SV_PolicingMSA/TX_134/IMG_5_134.jpg"",""SV_PolicingMSA/TX_134/IMG_8_134.jpg"",""SV_PolicingMSA/TX_134/IMG_4_134.jpg"",""SV_PolicingMSA/TX_134/IMG_3_134.jpg"",""SV_PolicingMSA/TX_134/IMG_2_134.jpg"",""SV_PolicingMSA/TX_134/IMG_0_134.jpg"",""SV_PolicingMSA/TX_134/IMG_13_134.jpg""]","3","","","","","","2","","4","[""./rc_img/cop_condGroup_1_CommunitySafety_autoscaled.png"",""./rc_img/cop_condGroup_1_SafeStreets_autoscaled.png""]","3","",""
"sliderTrial","html-slider-response","72","659770","0.0-72.0","","656776a7904ae00d6b91d1dd","6568a646f02565f56978d642","8","","","","","","","","","","","","3233","[""SV_PolicingMSA/TX_134/IMG_11_134.jpg"",""SV_PolicingMSA/TX_134/IMG_5_134.jpg"",""SV_PolicingMSA/TX_134/IMG_8_134.jpg"",""SV_PolicingMSA/TX_134/IMG_4_134.jpg"",""SV_PolicingMSA/TX_134/IMG_3_134.jpg"",""SV_PolicingMSA/TX_134/IMG_2_134.jpg"",""SV_PolicingMSA/TX_134/IMG_0_134.jpg"",""SV_PolicingMSA/TX_134/IMG_13_134.jpg""]","4","","","","","","2","","4","[""./rc_img/cop_condGroup_19_SafeStreets_autoscaled.png"",""./rc_img/cop_condGroup_19_CommunitySafety_autoscaled.png""]","4","",""
"sliderTrial","html-slider-response","73","663039","0.0-73.0","","656776a7904ae00d6b91d1dd","6568a646f02565f56978d642","8","","","","","","","","","","","","3265","[""SV_PolicingMSA/TX_134/IMG_11_134.jpg"",""SV_PolicingMSA/TX_134/IMG_5_134.jpg"",""SV_PolicingMSA/TX_134/IMG_8_134.jpg"",""SV_PolicingMSA/TX_134/IMG_4_134.jpg"",""SV_PolicingMSA/TX_134/IMG_3_134.jpg"",""SV_PolicingMSA/TX_134/IMG_2_134.jpg"",""SV_PolicingMSA/TX_134/IMG_0_134.jpg"",""SV_PolicingMSA/TX_134/IMG_13_134.jpg""]","3","","","","","","2","","4","[""./rc_img/cop_condGroup_13_CommunitySafety_autoscaled.png"",""./rc_img/cop_condGroup_13_SafeStreets_autoscaled.png""]","3","",""
"sliderTrial","html-slider-response","74","669542","0.0-74.0","","656776a7904ae00d6b91d1dd","6568a646f02565f56978d642","8","","","","","","","","","","","","6502","[""SV_PolicingMSA/TX_134/IMG_11_134.jpg"",""SV_PolicingMSA/TX_134/IMG_5_134.jpg"",""SV_PolicingMSA/TX_134/IMG_8_134.jpg"",""SV_PolicingMSA/TX_134/IMG_4_134.jpg"",""SV_PolicingMSA/TX_134/IMG_3_134.jpg"",""SV_PolicingMSA/TX_134/IMG_2_134.jpg"",""SV_PolicingMSA/TX_134/IMG_0_134.jpg"",""SV_PolicingMSA/TX_134/IMG_13_134.jpg""]","5","","","","","","2","","4","[""./rc_img/cop_condGroup_15_CommunitySafety_autoscaled.png"",""./rc_img/cop_condGroup_15_SafeStreets_autoscaled.png""]","5","",""
"sliderTrial","html-slider-response","75","675109","0.0-75.0","","656776a7904ae00d6b91d1dd","6568a646f02565f56978d642","8","","","","","","","","","","","","5564","[""SV_PolicingMSA/TX_134/IMG_11_134.jpg"",""SV_PolicingMSA/TX_134/IMG_5_134.jpg"",""SV_PolicingMSA/TX_134/IMG_8_134.jpg"",""SV_PolicingMSA/TX_134/IMG_4_134.jpg"",""SV_PolicingMSA/TX_134/IMG_3_134.jpg"",""SV_PolicingMSA/TX_134/IMG_2_134.jpg"",""SV_PolicingMSA/TX_134/IMG_0_134.jpg"",""SV_PolicingMSA/TX_134/IMG_13_134.jpg""]","5","","","","","","2","","4","[""./rc_img/cop_condGroup_18_SafeStreets_autoscaled.png"",""./rc_img/cop_condGroup_18_CommunitySafety_autoscaled.png""]","3","",""
"half-way","html-button-response","76","681354","0.0-76.0","","656776a7904ae00d6b91d1dd","6568a646f02565f56978d642","8","","","","","","","","","","","","6244","
    <h3>You are now half way through the study.</h3>
    <p>Please take a quick, 15-second break before you continue.</p>
    <img src='assets/img/countdown-15.gif'>
    <p>The study will automatically advance forward after the countdown is complete. <br> However, you may click ""Next"" to advance forward now if you wish.</p>
    ","0","","","","","","","","","","","",""
"before_SVSlide_prompt","html-button-response","77","682542","0.0-77.0","","656776a7904ae00d6b91d1dd","6568a646f02565f56978d642","8","","","","","","","","","","","","1187","Click [Next] to see the next neighborhood!","0","","","","","","","","","","","",""
"street view slide show","image-button-response","78","683548","0.0-78.0","","656776a7904ae00d6b91d1dd","6568a646f02565f56978d642","8","","","","","","","","","","","","null","stimulus/SV_PolicingMSA/TX_576/IMG_10_576.jpg","null","","","","","","2","","","","","",""
"street view slide show","image-button-response","79","684554","0.0-79.0","","656776a7904ae00d6b91d1dd","6568a646f02565f56978d642","8","","","","","","","","","","","","null","stimulus/SV_PolicingMSA/TX_576/IMG_0_576.jpg","null","","","","","","2","","","","","",""
"street view slide show","image-button-response","80","685567","0.0-80.0","","656776a7904ae00d6b91d1dd","6568a646f02565f56978d642","8","","","","","","","","","","","","null","stimulus/SV_PolicingMSA/TX_576/IMG_7_576.jpg","null","","","","","","2","","","","","",""
"street view slide show","image-button-response","81","686579","0.0-81.0","","656776a7904ae00d6b91d1dd","6568a646f02565f56978d642","8","","","","","","","","","","","","null","stimulus/SV_PolicingMSA/TX_576/IMG_6_576.jpg","null","","","","","","2","","","","","",""
"street view slide show","image-button-response","82","687591","0.0-82.0","","656776a7904ae00d6b91d1dd","6568a646f02565f56978d642","8","","","","","","","","","","","","null","stimulus/SV_PolicingMSA/TX_576/IMG_5_576.jpg","null","","","","","","2","","","","","",""
"street view slide show","image-button-response","83","688605","0.0-83.0","","656776a7904ae00d6b91d1dd","6568a646f02565f56978d642","8","","","","","","","","","","","","null","stimulus/SV_PolicingMSA/TX_576/IMG_13_576.jpg","null","","","","","","2","","","","","",""
"street view slide show","image-button-response","84","689612","0.0-84.0","","656776a7904ae00d6b91d1dd","6568a646f02565f56978d642","8","","","","","","","","","","","","null","stimulus/SV_PolicingMSA/TX_576/IMG_1_576.jpg","null","","","","","","2","","","","","",""
"street view slide show","image-button-response","85","690627","0.0-85.0","","656776a7904ae00d6b91d1dd","6568a646f02565f56978d642","8","","","","","","","","","","","","null","stimulus/SV_PolicingMSA/TX_576/IMG_11_576.jpg","null","","","","","","2","","","","","",""
"dot matrix survey1","survey","86","725960","0.0-86.0","","656776a7904ae00d6b91d1dd","6568a646f02565f56978d642","8","","","","","","","","","","","","35308","","{""P0_Q0"":null,""P0_Q1"":{""wealthy"":3,""safe"":2,""walkable"":1,""traditional"":2,""diverse"":1}}","","","","","","2","[]","","","","",""
"dot matrix survey2","survey","87","752033","0.0-87.0","","656776a7904ae00d6b91d1dd","6568a646f02565f56978d642","8","","","","","","","","","","","","26060","","{""P0_Q0"":null,""P0_Q1"":{""violence"":1,""crime"":1,""drug"":2,""schools"":2,""opportunities"":2}}","","","","","","2","[]","","","","",""
"dot matrix survey3","survey","88","851730","0.0-88.0","","656776a7904ae00d6b91d1dd","6568a646f02565f56978d642","8","","","","","","","","","","","","99684","","{""P0_Q0"":null,""P0_Q1"":{""movein"":2,""moveout"":1,""shopping"":3,""walk"":2,""park"":1,""school"":1}}","","","","","","2","[]","","","","",""
"sliderTrial","html-slider-response","89","855910","0.0-89.0","","656776a7904ae00d6b91d1dd","6568a646f02565f56978d642","8","","","","","","","","","","","","4178","[""SV_PolicingMSA/TX_576/IMG_10_576.jpg"",""SV_PolicingMSA/TX_576/IMG_0_576.jpg"",""SV_PolicingMSA/TX_576/IMG_7_576.jpg"",""SV_PolicingMSA/TX_576/IMG_6_576.jpg"",""SV_PolicingMSA/TX_576/IMG_5_576.jpg"",""SV_PolicingMSA/TX_576/IMG_13_576.jpg"",""SV_PolicingMSA/TX_576/IMG_1_576.jpg"",""SV_PolicingMSA/TX_576/IMG_11_576.jpg""]","3","","","","","","2","","4","[""./rc_img/cop_condGroup_20_CommunitySafety_autoscaled.png"",""./rc_img/cop_condGroup_20_SafeStreets_autoscaled.png""]","3","",""
"sliderTrial","html-slider-response","90","858328","0.0-90.0","","656776a7904ae00d6b91d1dd","6568a646f02565f56978d642","8","","","","","","","","","","","","2415","[""SV_PolicingMSA/TX_576/IMG_10_576.jpg"",""SV_PolicingMSA/TX_576/IMG_0_576.jpg"",""SV_PolicingMSA/TX_576/IMG_7_576.jpg"",""SV_PolicingMSA/TX_576/IMG_6_576.jpg"",""SV_PolicingMSA/TX_576/IMG_5_576.jpg"",""SV_PolicingMSA/TX_576/IMG_13_576.jpg"",""SV_PolicingMSA/TX_576/IMG_1_576.jpg"",""SV_PolicingMSA/TX_576/IMG_11_576.jpg""]","3","","","","","","2","","4","[""./rc_img/cop_condGroup_5_CommunitySafety_autoscaled.png"",""./rc_img/cop_condGroup_5_SafeStreets_autoscaled.png""]","3","",""
"sliderTrial","html-slider-response","91","860660","0.0-91.0","","656776a7904ae00d6b91d1dd","6568a646f02565f56978d642","8","","","","","","","","","","","","2330","[""SV_PolicingMSA/TX_576/IMG_10_576.jpg"",""SV_PolicingMSA/TX_576/IMG_0_576.jpg"",""SV_PolicingMSA/TX_576/IMG_7_576.jpg"",""SV_PolicingMSA/TX_576/IMG_6_576.jpg"",""SV_PolicingMSA/TX_576/IMG_5_576.jpg"",""SV_PolicingMSA/TX_576/IMG_13_576.jpg"",""SV_PolicingMSA/TX_576/IMG_1_576.jpg"",""SV_PolicingMSA/TX_576/IMG_11_576.jpg""]","3","","","","","","2","","4","[""./rc_img/cop_condGroup_6_CommunitySafety_autoscaled.png"",""./rc_img/cop_condGroup_6_SafeStreets_autoscaled.png""]","3","",""
"sliderTrial","html-slider-response","92","863186","0.0-92.0","","656776a7904ae00d6b91d1dd","6568a646f02565f56978d642","8","","","","","","","","","","","","2524","[""SV_PolicingMSA/TX_576/IMG_10_576.jpg"",""SV_PolicingMSA/TX_576/IMG_0_576.jpg"",""SV_PolicingMSA/TX_576/IMG_7_576.jpg"",""SV_PolicingMSA/TX_576/IMG_6_576.jpg"",""SV_PolicingMSA/TX_576/IMG_5_576.jpg"",""SV_PolicingMSA/TX_576/IMG_13_576.jpg"",""SV_PolicingMSA/TX_576/IMG_1_576.jpg"",""SV_PolicingMSA/TX_576/IMG_11_576.jpg""]","5","","","","","","2","","4","[""./rc_img/cop_condGroup_8_SafeStreets_autoscaled.png"",""./rc_img/cop_condGroup_8_CommunitySafety_autoscaled.png""]","3","",""
"sliderTrial","html-slider-response","93","865578","0.0-93.0","","656776a7904ae00d6b91d1dd","6568a646f02565f56978d642","8","","","","","","","","","","","","2389","[""SV_PolicingMSA/TX_576/IMG_10_576.jpg"",""SV_PolicingMSA/TX_576/IMG_0_576.jpg"",""SV_PolicingMSA/TX_576/IMG_7_576.jpg"",""SV_PolicingMSA/TX_576/IMG_6_576.jpg"",""SV_PolicingMSA/TX_576/IMG_5_576.jpg"",""SV_PolicingMSA/TX_576/IMG_13_576.jpg"",""SV_PolicingMSA/TX_576/IMG_1_576.jpg"",""SV_PolicingMSA/TX_576/IMG_11_576.jpg""]","3","","","","","","2","","4","[""./rc_img/cop_condGroup_3_CommunitySafety_autoscaled.png"",""./rc_img/cop_condGroup_3_SafeStreets_autoscaled.png""]","3","",""
"before_SVSlide_prompt","html-button-response","94","866716","0.0-94.0","","656776a7904ae00d6b91d1dd","6568a646f02565f56978d642","8","","","","","","","","","","","","1138","Click [Next] to see the next neighborhood!","0","","","","","","","","","","","",""
"street view slide show","image-button-response","95","867719","0.0-95.0","","656776a7904ae00d6b91d1dd","6568a646f02565f56978d642","8","","","","","","","","","","","","null","stimulus/SV_PolicingMSA/TX_575/IMG_3_575.jpg","null","","","","","","3","","","","","",""
"street view slide show","image-button-response","96","868728","0.0-96.0","","656776a7904ae00d6b91d1dd","6568a646f02565f56978d642","8","","","","","","","","","","","","null","stimulus/SV_PolicingMSA/TX_575/IMG_12_575.jpg","null","","","","","","3","","","","","",""
"street view slide show","image-button-response","97","869736","0.0-97.0","","656776a7904ae00d6b91d1dd","6568a646f02565f56978d642","8","","","","","","","","","","","","null","stimulus/SV_PolicingMSA/TX_575/IMG_10_575.jpg","null","","","","","","3","","","","","",""
"street view slide show","image-button-response","98","870754","0.0-98.0","","656776a7904ae00d6b91d1dd","6568a646f02565f56978d642","8","","","","","","","","","","","","null","stimulus/SV_PolicingMSA/TX_575/IMG_5_575.jpg","null","","","","","","3","","","","","",""
"street view slide show","image-button-response","99","871766","0.0-99.0","","656776a7904ae00d6b91d1dd","6568a646f02565f56978d642","8","","","","","","","","","","","","null","stimulus/SV_PolicingMSA/TX_575/IMG_14_575.jpg","null","","","","","","3","","","","","",""
"street view slide show","image-button-response","100","872780","0.0-100.0","","656776a7904ae00d6b91d1dd","6568a646f02565f56978d642","8","","","","","","","","","","","","null","stimulus/SV_PolicingMSA/TX_575/IMG_9_575.jpg","null","","","","","","3","","","","","",""
"street view slide show","image-button-response","101","873799","0.0-101.0","","656776a7904ae00d6b91d1dd","6568a646f02565f56978d642","8","","","","","","","","","","","","null","stimulus/SV_PolicingMSA/TX_575/IMG_6_575.jpg","null","","","","","","3","","","","","",""
"street view slide show","image-button-response","102","874803","0.0-102.0","","656776a7904ae00d6b91d1dd","6568a646f02565f56978d642","8","","","","","","","","","","","","null","stimulus/SV_PolicingMSA/TX_575/IMG_4_575.jpg","null","","","","","","3","","","","","",""
"dot matrix survey1","survey","103","905720","0.0-103.0","","656776a7904ae00d6b91d1dd","6568a646f02565f56978d642","8","","","","","","","","","","","","30898","","{""P0_Q0"":null,""P0_Q1"":{""wealthy"":3,""safe"":2,""walkable"":2,""traditional"":2,""diverse"":3}}","","","","","","3","[]","","","","",""
"dot matrix survey2","survey","104","926898","0.0-104.0","","656776a7904ae00d6b91d1dd","6568a646f02565f56978d642","8","","","","","","","","","","","","21173","","{""P0_Q0"":null,""P0_Q1"":{""violence"":1,""crime"":2,""drug"":1,""schools"":3,""opportunities"":2}}","","","","","","3","[]","","","","",""
"dot matrix survey3","survey","105","941185","0.0-105.0","","656776a7904ae00d6b91d1dd","6568a646f02565f56978d642","8","","","","","","","","","","","","14276","","{""P0_Q0"":null,""P0_Q1"":{""movein"":3,""moveout"":1,""shopping"":3,""walk"":2,""park"":1,""school"":2}}","","","","","","3","[]","","","","",""
"sliderTrial","html-slider-response","106","944184","0.0-106.0","","656776a7904ae00d6b91d1dd","6568a646f02565f56978d642","8","","","","","","","","","","","","2997","[""SV_PolicingMSA/TX_575/IMG_3_575.jpg"",""SV_PolicingMSA/TX_575/IMG_12_575.jpg"",""SV_PolicingMSA/TX_575/IMG_10_575.jpg"",""SV_PolicingMSA/TX_575/IMG_5_575.jpg"",""SV_PolicingMSA/TX_575/IMG_14_575.jpg"",""SV_PolicingMSA/TX_575/IMG_9_575.jpg"",""SV_PolicingMSA/TX_575/IMG_6_575.jpg"",""SV_PolicingMSA/TX_575/IMG_4_575.jpg""]","5","","","","","","3","","4","[""./rc_img/cop_condGroup_4_SafeStreets_autoscaled.png"",""./rc_img/cop_condGroup_4_CommunitySafety_autoscaled.png""]","3","",""
"sliderTrial","html-slider-response","107","946038","0.0-107.0","","656776a7904ae00d6b91d1dd","6568a646f02565f56978d642","8","","","","","","","","","","","","1852","[""SV_PolicingMSA/TX_575/IMG_3_575.jpg"",""SV_PolicingMSA/TX_575/IMG_12_575.jpg"",""SV_PolicingMSA/TX_575/IMG_10_575.jpg"",""SV_PolicingMSA/TX_575/IMG_5_575.jpg"",""SV_PolicingMSA/TX_575/IMG_14_575.jpg"",""SV_PolicingMSA/TX_575/IMG_9_575.jpg"",""SV_PolicingMSA/TX_575/IMG_6_575.jpg"",""SV_PolicingMSA/TX_575/IMG_4_575.jpg""]","3","","","","","","3","","4","[""./rc_img/cop_condGroup_7_CommunitySafety_autoscaled.png"",""./rc_img/cop_condGroup_7_SafeStreets_autoscaled.png""]","3","",""
"sliderTrial","html-slider-response","108","948138","0.0-108.0","","656776a7904ae00d6b91d1dd","6568a646f02565f56978d642","8","","","","","","","","","","","","2098","[""SV_PolicingMSA/TX_575/IMG_3_575.jpg"",""SV_PolicingMSA/TX_575/IMG_12_575.jpg"",""SV_PolicingMSA/TX_575/IMG_10_575.jpg"",""SV_PolicingMSA/TX_575/IMG_5_575.jpg"",""SV_PolicingMSA/TX_575/IMG_14_575.jpg"",""SV_PolicingMSA/TX_575/IMG_9_575.jpg"",""SV_PolicingMSA/TX_575/IMG_6_575.jpg"",""SV_PolicingMSA/TX_575/IMG_4_575.jpg""]","3","","","","","","3","","4","[""./rc_img/cop_condGroup_2_CommunitySafety_autoscaled.png"",""./rc_img/cop_condGroup_2_SafeStreets_autoscaled.png""]","3","",""
"sliderTrial","html-slider-response","109","951053","0.0-109.0","","656776a7904ae00d6b91d1dd","6568a646f02565f56978d642","8","","","","","","","","","","","","2912","[""SV_PolicingMSA/TX_575/IMG_3_575.jpg"",""SV_PolicingMSA/TX_575/IMG_12_575.jpg"",""SV_PolicingMSA/TX_575/IMG_10_575.jpg"",""SV_PolicingMSA/TX_575/IMG_5_575.jpg"",""SV_PolicingMSA/TX_575/IMG_14_575.jpg"",""SV_PolicingMSA/TX_575/IMG_9_575.jpg"",""SV_PolicingMSA/TX_575/IMG_6_575.jpg"",""SV_PolicingMSA/TX_575/IMG_4_575.jpg""]","3","","","","","","3","","4","[""./rc_img/cop_condGroup_12_CommunitySafety_autoscaled.png"",""./rc_img/cop_condGroup_12_SafeStreets_autoscaled.png""]","3","",""
"sliderTrial","html-slider-response","110","963349","0.0-110.0","","656776a7904ae00d6b91d1dd","6568a646f02565f56978d642","8","","","","","","","","","","","","12293","[""SV_PolicingMSA/TX_575/IMG_3_575.jpg"",""SV_PolicingMSA/TX_575/IMG_12_575.jpg"",""SV_PolicingMSA/TX_575/IMG_10_575.jpg"",""SV_PolicingMSA/TX_575/IMG_5_575.jpg"",""SV_PolicingMSA/TX_575/IMG_14_575.jpg"",""SV_PolicingMSA/TX_575/IMG_9_575.jpg"",""SV_PolicingMSA/TX_575/IMG_6_575.jpg"",""SV_PolicingMSA/TX_575/IMG_4_575.jpg""]","5","","","","","","3","","4","[""./rc_img/cop_condGroup_16_SafeStreets_autoscaled.png"",""./rc_img/cop_condGroup_16_CommunitySafety_autoscaled.png""]","3","",""
"before_SVSlide_prompt","html-button-response","111","964758","0.0-111.0","","656776a7904ae00d6b91d1dd","6568a646f02565f56978d642","8","","","","","","","","","","","","1408","Click [Next] to see the next neighborhood!","0","","","","","","","","","","","",""
"street view slide show","image-button-response","112","965767","0.0-112.0","","656776a7904ae00d6b91d1dd","6568a646f02565f56978d642","8","","","","","","","","","","","","null","stimulus/SV_PolicingMSA/TX_298/IMG_0_298.jpg","null","","","","","","4","","","","","",""
"street view slide show","image-button-response","113","966775","0.0-113.0","","656776a7904ae00d6b91d1dd","6568a646f02565f56978d642","8","","","","","","","","","","","","null","stimulus/SV_PolicingMSA/TX_298/IMG_2_298.jpg","null","","","","","","4","","","","","",""
"street view slide show","image-button-response","114","967787","0.0-114.0","","656776a7904ae00d6b91d1dd","6568a646f02565f56978d642","8","","","","","","","","","","","","null","stimulus/SV_PolicingMSA/TX_298/IMG_13_298.jpg","null","","","","","","4","","","","","",""
"street view slide show","image-button-response","115","968793","0.0-115.0","","656776a7904ae00d6b91d1dd","6568a646f02565f56978d642","8","","","","","","","","","","","","null","stimulus/SV_PolicingMSA/TX_298/IMG_6_298.jpg","null","","","","","","4","","","","","",""
"street view slide show","image-button-response","116","969811","0.0-116.0","","656776a7904ae00d6b91d1dd","6568a646f02565f56978d642","8","","","","","","","","","","","","null","stimulus/SV_PolicingMSA/TX_298/IMG_8_298.jpg","null","","","","","","4","","","","","",""
"street view slide show","image-button-response","117","970826","0.0-117.0","","656776a7904ae00d6b91d1dd","6568a646f02565f56978d642","8","","","","","","","","","","","","null","stimulus/SV_PolicingMSA/TX_298/IMG_3_298.jpg","null","","","","","","4","","","","","",""
"street view slide show","image-button-response","118","971842","0.0-118.0","","656776a7904ae00d6b91d1dd","6568a646f02565f56978d642","8","","","","","","","","","","","","null","stimulus/SV_PolicingMSA/TX_298/IMG_11_298.jpg","null","","","","","","4","","","","","",""
"street view slide show","image-button-response","119","972847","0.0-119.0","","656776a7904ae00d6b91d1dd","6568a646f02565f56978d642","8","","","","","","","","","","","","null","stimulus/SV_PolicingMSA/TX_298/IMG_7_298.jpg","null","","","","","","4","","","","","",""
"dot matrix survey1","survey","120","1029930","0.0-120.0","","656776a7904ae00d6b91d1dd","6568a646f02565f56978d642","8","","","","","","","","","","","","57054","","{""P0_Q0"":null,""P0_Q1"":{""wealthy"":3,""safe"":3,""walkable"":3,""traditional"":3,""diverse"":1}}","","","","","","4","[]","","","","",""
"dot matrix survey2","survey","121","1046712","0.0-121.0","","656776a7904ae00d6b91d1dd","6568a646f02565f56978d642","8","","","","","","","","","","","","16776","","{""P0_Q0"":null,""P0_Q1"":{""violence"":1,""crime"":1,""drug"":1,""schools"":3,""opportunities"":3}}","","","","","","4","[]","","","","",""
"dot matrix survey3","survey","122","1100585","0.0-122.0","","656776a7904ae00d6b91d1dd","6568a646f02565f56978d642","8","","","","","","","","","","","","53869","","{""P0_Q0"":null,""P0_Q1"":{""movein"":3,""moveout"":1,""shopping"":3,""walk"":3,""park"":1,""school"":2}}","","","","","","4","[]","","","","",""
"sliderTrial","html-slider-response","123","1103240","0.0-123.0","","656776a7904ae00d6b91d1dd","6568a646f02565f56978d642","8","","","","","","","","","","","","2653","[""SV_PolicingMSA/TX_298/IMG_0_298.jpg"",""SV_PolicingMSA/TX_298/IMG_2_298.jpg"",""SV_PolicingMSA/TX_298/IMG_13_298.jpg"",""SV_PolicingMSA/TX_298/IMG_6_298.jpg"",""SV_PolicingMSA/TX_298/IMG_8_298.jpg"",""SV_PolicingMSA/TX_298/IMG_3_298.jpg"",""SV_PolicingMSA/TX_298/IMG_11_298.jpg"",""SV_PolicingMSA/TX_298/IMG_7_298.jpg""]","4","","","","","","4","","4","[""./rc_img/cop_condGroup_1_CommunitySafety_autoscaled.png"",""./rc_img/cop_condGroup_1_SafeStreets_autoscaled.png""]","4","",""
"sliderTrial","html-slider-response","124","1105218","0.0-124.0","","656776a7904ae00d6b91d1dd","6568a646f02565f56978d642","8","","","","","","","","","","","","1975","[""SV_PolicingMSA/TX_298/IMG_0_298.jpg"",""SV_PolicingMSA/TX_298/IMG_2_298.jpg"",""SV_PolicingMSA/TX_298/IMG_13_298.jpg"",""SV_PolicingMSA/TX_298/IMG_6_298.jpg"",""SV_PolicingMSA/TX_298/IMG_8_298.jpg"",""SV_PolicingMSA/TX_298/IMG_3_298.jpg"",""SV_PolicingMSA/TX_298/IMG_11_298.jpg"",""SV_PolicingMSA/TX_298/IMG_7_298.jpg""]","5","","","","","","4","","4","[""./rc_img/cop_condGroup_19_SafeStreets_autoscaled.png"",""./rc_img/cop_condGroup_19_CommunitySafety_autoscaled.png""]","3","",""
"sliderTrial","html-slider-response","125","1108727","0.0-125.0","","656776a7904ae00d6b91d1dd","6568a646f02565f56978d642","8","","","","","","","","","","","","3507","[""SV_PolicingMSA/TX_298/IMG_0_298.jpg"",""SV_PolicingMSA/TX_298/IMG_2_298.jpg"",""SV_PolicingMSA/TX_298/IMG_13_298.jpg"",""SV_PolicingMSA/TX_298/IMG_6_298.jpg"",""SV_PolicingMSA/TX_298/IMG_8_298.jpg"",""SV_PolicingMSA/TX_298/IMG_3_298.jpg"",""SV_PolicingMSA/TX_298/IMG_11_298.jpg"",""SV_PolicingMSA/TX_298/IMG_7_298.jpg""]","2","","","","","","4","","4","[""./rc_img/cop_condGroup_13_CommunitySafety_autoscaled.png"",""./rc_img/cop_condGroup_13_SafeStreets_autoscaled.png""]","2","",""
"sliderTrial","html-slider-response","126","1111180","0.0-126.0","","656776a7904ae00d6b91d1dd","6568a646f02565f56978d642","8","","","","","","","","","","","","2450","[""SV_PolicingMSA/TX_298/IMG_0_298.jpg"",""SV_PolicingMSA/TX_298/IMG_2_298.jpg"",""SV_PolicingMSA/TX_298/IMG_13_298.jpg"",""SV_PolicingMSA/TX_298/IMG_6_298.jpg"",""SV_PolicingMSA/TX_298/IMG_8_298.jpg"",""SV_PolicingMSA/TX_298/IMG_3_298.jpg"",""SV_PolicingMSA/TX_298/IMG_11_298.jpg"",""SV_PolicingMSA/TX_298/IMG_7_298.jpg""]","4","","","","","","4","","4","[""./rc_img/cop_condGroup_15_CommunitySafety_autoscaled.png"",""./rc_img/cop_condGroup_15_SafeStreets_autoscaled.png""]","4","",""
"sliderTrial","html-slider-response","127","1115382","0.0-127.0","","656776a7904ae00d6b91d1dd","6568a646f02565f56978d642","8","","","","","","","","","","","","4199","[""SV_PolicingMSA/TX_298/IMG_0_298.jpg"",""SV_PolicingMSA/TX_298/IMG_2_298.jpg"",""SV_PolicingMSA/TX_298/IMG_13_298.jpg"",""SV_PolicingMSA/TX_298/IMG_6_298.jpg"",""SV_PolicingMSA/TX_298/IMG_8_298.jpg"",""SV_PolicingMSA/TX_298/IMG_3_298.jpg"",""SV_PolicingMSA/TX_298/IMG_11_298.jpg"",""SV_PolicingMSA/TX_298/IMG_7_298.jpg""]","6","","","","","","4","","4","[""./rc_img/cop_condGroup_18_SafeStreets_autoscaled.png"",""./rc_img/cop_condGroup_18_CommunitySafety_autoscaled.png""]","2","",""
"before_SVSlide_prompt","html-button-response","128","1116446","0.0-128.0","","656776a7904ae00d6b91d1dd","6568a646f02565f56978d642","8","","","","","","","","","","","","1063","Click [Next] to see the next neighborhood!","0","","","","","","","","","","","",""
"street view slide show","image-button-response","129","1117448","0.0-129.0","","656776a7904ae00d6b91d1dd","6568a646f02565f56978d642","8","","","","","","","","","","","","null","stimulus/SV_PolicingMSA/TX_4061/IMG_5_4061.jpg","null","","","","","","5","","","","","",""
"street view slide show","image-button-response","130","1118465","0.0-130.0","","656776a7904ae00d6b91d1dd","6568a646f02565f56978d642","8","","","","","","","","","","","","null","stimulus/SV_PolicingMSA/TX_4061/IMG_12_4061.jpg","null","","","","","","5","","","","","",""
"street view slide show","image-button-response","131","1119476","0.0-131.0","","656776a7904ae00d6b91d1dd","6568a646f02565f56978d642","8","","","","","","","","","","","","null","stimulus/SV_PolicingMSA/TX_4061/IMG_1_4061.jpg","null","","","","","","5","","","","","",""
"street view slide show","image-button-response","132","1120486","0.0-132.0","","656776a7904ae00d6b91d1dd","6568a646f02565f56978d642","8","","","","","","","","","","","","null","stimulus/SV_PolicingMSA/TX_4061/IMG_3_4061.jpg","null","","","","","","5","","","","","",""
"street view slide show","image-button-response","133","1121502","0.0-133.0","","656776a7904ae00d6b91d1dd","6568a646f02565f56978d642","8","","","","","","","","","","","","null","stimulus/SV_PolicingMSA/TX_4061/IMG_14_4061.jpg","null","","","","","","5","","","","","",""
"street view slide show","image-button-response","134","1122509","0.0-134.0","","656776a7904ae00d6b91d1dd","6568a646f02565f56978d642","8","","","","","","","","","","","","null","stimulus/SV_PolicingMSA/TX_4061/IMG_8_4061.jpg","null","","","","","","5","","","","","",""
"street view slide show","image-button-response","135","1123523","0.0-135.0","","656776a7904ae00d6b91d1dd","6568a646f02565f56978d642","8","","","","","","","","","","","","null","stimulus/SV_PolicingMSA/TX_4061/IMG_4_4061.jpg","null","","","","","","5","","","","","",""
"street view slide show","image-button-response","136","1124527","0.0-136.0","","656776a7904ae00d6b91d1dd","6568a646f02565f56978d642","8","","","","","","","","","","","","null","stimulus/SV_PolicingMSA/TX_4061/IMG_13_4061.jpg","null","","","","","","5","","","","","",""
"dot matrix survey1","survey","137","1144059","0.0-137.0","","656776a7904ae00d6b91d1dd","6568a646f02565f56978d642","8","","","","","","","","","","","","19518","","{""P0_Q0"":null,""P0_Q1"":{""wealthy"":2,""safe"":2,""walkable"":1,""traditional"":1,""diverse"":2}}","","","","","","5","[]","","","","",""
"dot matrix survey2","survey","138","1176783","0.0-138.0","","656776a7904ae00d6b91d1dd","6568a646f02565f56978d642","8","","","","","","","","","","","","32715","","{""P0_Q0"":null,""P0_Q1"":{""violence"":1,""crime"":2,""drug"":2,""schools"":2,""opportunities"":1}}","","","","","","5","[]","","","","",""
"dot matrix survey3","survey","139","1264526","0.0-139.0","","656776a7904ae00d6b91d1dd","6568a646f02565f56978d642","8","","","","","","","","","","","","87737","","{""P0_Q0"":null,""P0_Q1"":{""movein"":1,""moveout"":1,""shopping"":3,""walk"":2,""park"":1,""school"":1}}","","","","","","5","[]","","","","",""
"sliderTrial","html-slider-response","140","1267442","0.0-140.0","","656776a7904ae00d6b91d1dd","6568a646f02565f56978d642","8","","","","","","","","","","","","2913","[""SV_PolicingMSA/TX_4061/IMG_5_4061.jpg"",""SV_PolicingMSA/TX_4061/IMG_12_4061.jpg"",""SV_PolicingMSA/TX_4061/IMG_1_4061.jpg"",""SV_PolicingMSA/TX_4061/IMG_3_4061.jpg"",""SV_PolicingMSA/TX_4061/IMG_14_4061.jpg"",""SV_PolicingMSA/TX_4061/IMG_8_4061.jpg"",""SV_PolicingMSA/TX_4061/IMG_4_4061.jpg"",""SV_PolicingMSA/TX_4061/IMG_13_4061.jpg""]","4","","","","","","5","","4","[""./rc_img/cop_condGroup_17_CommunitySafety_autoscaled.png"",""./rc_img/cop_condGroup_17_SafeStreets_autoscaled.png""]","4","",""
"sliderTrial","html-slider-response","141","1275826","0.0-141.0","","656776a7904ae00d6b91d1dd","6568a646f02565f56978d642","8","","","","","","","","","","","","8382","[""SV_PolicingMSA/TX_4061/IMG_5_4061.jpg"",""SV_PolicingMSA/TX_4061/IMG_12_4061.jpg"",""SV_PolicingMSA/TX_4061/IMG_1_4061.jpg"",""SV_PolicingMSA/TX_4061/IMG_3_4061.jpg"",""SV_PolicingMSA/TX_4061/IMG_14_4061.jpg"",""SV_PolicingMSA/TX_4061/IMG_8_4061.jpg"",""SV_PolicingMSA/TX_4061/IMG_4_4061.jpg"",""SV_PolicingMSA/TX_4061/IMG_13_4061.jpg""]","5","","","","","","5","","4","[""./rc_img/cop_condGroup_11_SafeStreets_autoscaled.png"",""./rc_img/cop_condGroup_11_CommunitySafety_autoscaled.png""]","3","",""
"sliderTrial","html-slider-response","142","1277759","0.0-142.0","","656776a7904ae00d6b91d1dd","6568a646f02565f56978d642","8","","","","","","","","","","","","1930","[""SV_PolicingMSA/TX_4061/IMG_5_4061.jpg"",""SV_PolicingMSA/TX_4061/IMG_12_4061.jpg"",""SV_PolicingMSA/TX_4061/IMG_1_4061.jpg"",""SV_PolicingMSA/TX_4061/IMG_3_4061.jpg"",""SV_PolicingMSA/TX_4061/IMG_14_4061.jpg"",""SV_PolicingMSA/TX_4061/IMG_8_4061.jpg"",""SV_PolicingMSA/TX_4061/IMG_4_4061.jpg"",""SV_PolicingMSA/TX_4061/IMG_13_4061.jpg""]","3","","","","","","5","","4","[""./rc_img/cop_condGroup_9_CommunitySafety_autoscaled.png"",""./rc_img/cop_condGroup_9_SafeStreets_autoscaled.png""]","3","",""
"sliderTrial","html-slider-response","143","1280596","0.0-143.0","","656776a7904ae00d6b91d1dd","6568a646f02565f56978d642","8","","","","","","","","","","","","2835","[""SV_PolicingMSA/TX_4061/IMG_5_4061.jpg"",""SV_PolicingMSA/TX_4061/IMG_12_4061.jpg"",""SV_PolicingMSA/TX_4061/IMG_1_4061.jpg"",""SV_PolicingMSA/TX_4061/IMG_3_4061.jpg"",""SV_PolicingMSA/TX_4061/IMG_14_4061.jpg"",""SV_PolicingMSA/TX_4061/IMG_8_4061.jpg"",""SV_PolicingMSA/TX_4061/IMG_4_4061.jpg"",""SV_PolicingMSA/TX_4061/IMG_13_4061.jpg""]","5","","","","","","5","","4","[""./rc_img/cop_condGroup_14_SafeStreets_autoscaled.png"",""./rc_img/cop_condGroup_14_CommunitySafety_autoscaled.png""]","3","",""
"sliderTrial","html-slider-response","144","1282547","0.0-144.0","","656776a7904ae00d6b91d1dd","6568a646f02565f56978d642","8","","","","","","","","","","","","1948","[""SV_PolicingMSA/TX_4061/IMG_5_4061.jpg"",""SV_PolicingMSA/TX_4061/IMG_12_4061.jpg"",""SV_PolicingMSA/TX_4061/IMG_1_4061.jpg"",""SV_PolicingMSA/TX_4061/IMG_3_4061.jpg"",""SV_PolicingMSA/TX_4061/IMG_14_4061.jpg"",""SV_PolicingMSA/TX_4061/IMG_8_4061.jpg"",""SV_PolicingMSA/TX_4061/IMG_4_4061.jpg"",""SV_PolicingMSA/TX_4061/IMG_13_4061.jpg""]","5","","","","","","5","","4","[""./rc_img/cop_condGroup_10_SafeStreets_autoscaled.png"",""./rc_img/cop_condGroup_10_CommunitySafety_autoscaled.png""]","3","",""
"demographics","survey-html-form","145","1300721","0.0-145.0","","656776a7904ae00d6b91d1dd","6568a646f02565f56978d642","8","","","","","","","","","","","","18171","","{""age"":""25"",""sex"":""female"",""gender"":""woman"",""gender-self-describe"":"""",""zipcode"":""85012""}","","","","","","","","","","","",""
"demographics-list","survey","146","1425601","0.0-146.0","","656776a7904ae00d6b91d1dd","6568a646f02565f56978d642","8","","","","","","","","","","","","124854","","{""P0_Q0"":null,""race-ethnicity"":[""Hispanic or Latinx""],""education"":""Some college"",""P1_Q0"":null,""ideology"":""Moderate"",""P2_Q0"":null,""num-moves"":6,""P3_Q0"":null,""social-ladder"":6}","","","","","","","[]","","","","",""
"end-survey","survey-text","147","1427422","0.0-147.0","","656776a7904ae00d6b91d1dd","6568a646f02565f56978d642","8","","","","","","","","","","","","1815","","{""Q0"":""""}","","","","","","","","","","","","2"
"end-survey","html-button-response","148","1428535","0.0-148.0","","656776a7904ae00d6b91d1dd","6568a646f02565f56978d642","8","","","","","","","","","","","","1112","
    You've reached the end of the survey. <br><br> 
    <b>Do not close or refresh this window.</b><br>
    On the next page, you will be automatically redirected to Prolific. <br><br>

    <div class=""alert alert-warning""><b>
    </div>
","0","","","","","","","","","","","",""
