"task","trial_type","trial_index","time_elapsed","internal_node_id","subject_id","study_id","session_id","section","width","height","webaudio","browser","browser_version","mobile","os","fullscreen","vsync_rate","webcam","microphone","rt","stimulus","response","success","timeout","failed_images","failed_audio","failed_video","block","accuracy","slider_start","choices","standardized_response","correct","num_attention_checks_correct"
"pavlovia-init","pavlovia","0","1171","0.0-0.0","","656776a7904ae00d6b91d1dd","6568acec0fcec2bb6b9c0740","11","","","","","","","","","","","","","","","","","","","","","","","","","",""
"browser-check","browser-check","1","2161","0.0-1.0","","656776a7904ae00d6b91d1dd","6568acec0fcec2bb6b9c0740","11","1335","1273","true","chrome","119.0.0","false","Windows 10","true","60.79","false","false","","","","","","","","","","","","","","",""
"consent","html-button-response","2","15019","0.0-2.0","","656776a7904ae00d6b91d1dd","6568acec0fcec2bb6b9c0740","11","","","","","","","","","","","","12857","
        <div style=""font-size: 80%; max-width:700px"">
            <h2>CONSENT FORM</h2>
        
            <div style=""text-align: left"">
            <h4>DESCRIPTION</h4>
            <p>
            You will complete a short task where you give your impressions of various neighborhoods and assign individuals to those spaces, and answer some questions about your thoughts and opinions.<br>
            The University of Michigan Institutional Review Board Health Sciences and Behavioral Sciences has determined that this study is exempt from IRB oversight.
            </p>

            <h4>TIME INVOLVEMENT</h4>
            <p>Your participation will take approximately 15 minutes. You will receive $3.15 upon completion of the study.</p>
        
            <h4>RISKS AND BENEFITS</h4>
            <p>
            The risks associated with this study are minimal. The benefits which may reasonably be expected to result from this study are none. We cannot and do not guarantee or promise that you will receive any benefits from this study.
            </p>
          
            <h4>SUBJECT'S RIGHTS</h4>
            <p>
            If you have read this form and have decided to participate in this project, please understand your participation is voluntary and you have the right to withdraw your consent or discontinue participation at any time without penalty or loss of benefits to which you are otherwise entitled. The alternative is not to participate. You have the right to refuse to answer particular questions. Your individual privacy will be maintained in all published and written data resulting from the study.
            </p>

            <h4>HUMAN SUBJECT APPROVAL</h4>
            <p>
            This study is exempt from ongoing IRB review.
            </p>

            <h4>CONTACT INFORMATION</h4>
            If you have any questions, concerns or complaints about this research, its procedures, risks and benefits, contact the Protocol Director, Nicholas Camp, npcamp@umich.edu, (443) 851-6783. <br>

            If you have questions about your rights as a research participant, or wish to obtain information, ask questions or discuss any concerns about this study with someone other than the researcher(s), please contact the following:<br><br>
            University of Michigan<br>
            Health Sciences and Behavioral Sciences Institutional Review Board (IRB-HSBS)<br>
            2800 Plymouth Road<br>
            Building 520, Room 1169Ann Arbor, MI 48109-2800<br>
            Telephone: 734-936-0933 or toll free (866) 936-0933<br>
            Fax: 734-936-1852<br>
            E-mail: irbhsbs@umich.edu<br><br>

            You can also contact the University of Michigan Compliance Hotline at 1-866-990-0111. You may also print this consent form to keep.
            <br><br>
            <div class=""alert alert-warning""><b>
            Do you consent to participate in this study? If you consent to participate in this study, please click “Accept and Continue”. If you select ""Decline and Exit"", you will be exited from the survey. <br>
            </b></div>
            </div>
        </div>
    ","1","","","","","","","","","","","",""
"","preload","3","17016","0.0-3.0","","656776a7904ae00d6b91d1dd","6568acec0fcec2bb6b9c0740","11","","","","","","","","","","","","","","","true","false","[]","[]","[]","","","","","","",""
"instructions","html-button-response","4","22255","0.0-4.0","","656776a7904ae00d6b91d1dd","6568acec0fcec2bb6b9c0740","11","","","","","","","","","","","","5238","
        <div class=""text-container"">
        <h1>Welcome to the study!</h1>
        
        <div class=""text-left"">
            <p>
                In this study, we are interested in what people can tell about spaces from Google Street View images. <br> Google Street View takes pictures of streets used for Google Earth and Google Maps. <br>You’ll see Google Street View images of different places and answer some questions about each one.<br>
            </p>
        </div>
        <img src = ""assets/img/example.png"" width = 500px, height = auto>
        <br>
    <br>
    ","0","","","","","","","","","","","",""
"instructions","html-button-response","5","24995","0.0-5.0","","656776a7904ae00d6b91d1dd","6568acec0fcec2bb6b9c0740","11","","","","","","","","","","","","2739","
    <div class=""text-container"">
        <div class=""text-center"">
            <p>Please remember that your answers are completely anonymous.<br>Go with your gut response- there are no right or wrong answers!</p>
        </div>
    <br>
","0","","","","","","","","","","","",""
"before_SVSlide_prompt","html-button-response","6","453060","0.0-6.0","","656776a7904ae00d6b91d1dd","6568acec0fcec2bb6b9c0740","11","","","","","","","","","","","","428065","Click [Next] to see the next neighborhood!","0","","","","","","","","","","","",""
"street view slide show","image-button-response","7","454074","0.0-7.0","","656776a7904ae00d6b91d1dd","6568acec0fcec2bb6b9c0740","11","","","","","","","","","","","","null","stimulus/SV_PolicingMSA/NY_4752/IMG_2_4752.jpg","null","","","","","","5","","","","","",""
"street view slide show","image-button-response","8","455085","0.0-8.0","","656776a7904ae00d6b91d1dd","6568acec0fcec2bb6b9c0740","11","","","","","","","","","","","","null","stimulus/SV_PolicingMSA/NY_4752/IMG_7_4752.jpg","null","","","","","","5","","","","","",""
"street view slide show","image-button-response","9","456100","0.0-9.0","","656776a7904ae00d6b91d1dd","6568acec0fcec2bb6b9c0740","11","","","","","","","","","","","","null","stimulus/SV_PolicingMSA/NY_4752/IMG_12_4752.jpg","null","","","","","","5","","","","","",""
"street view slide show","image-button-response","10","457102","0.0-10.0","","656776a7904ae00d6b91d1dd","6568acec0fcec2bb6b9c0740","11","","","","","","","","","","","","null","stimulus/SV_PolicingMSA/NY_4752/IMG_4_4752.jpg","null","","","","","","5","","","","","",""
"street view slide show","image-button-response","11","458118","0.0-11.0","","656776a7904ae00d6b91d1dd","6568acec0fcec2bb6b9c0740","11","","","","","","","","","","","","null","stimulus/SV_PolicingMSA/NY_4752/IMG_9_4752.jpg","null","","","","","","5","","","","","",""
"street view slide show","image-button-response","12","459119","0.0-12.0","","656776a7904ae00d6b91d1dd","6568acec0fcec2bb6b9c0740","11","","","","","","","","","","","","null","stimulus/SV_PolicingMSA/NY_4752/IMG_6_4752.jpg","null","","","","","","5","","","","","",""
"street view slide show","image-button-response","13","460134","0.0-13.0","","656776a7904ae00d6b91d1dd","6568acec0fcec2bb6b9c0740","11","","","","","","","","","","","","null","stimulus/SV_PolicingMSA/NY_4752/IMG_3_4752.jpg","null","","","","","","5","","","","","",""
"street view slide show","image-button-response","14","461136","0.0-14.0","","656776a7904ae00d6b91d1dd","6568acec0fcec2bb6b9c0740","11","","","","","","","","","","","","null","stimulus/SV_PolicingMSA/NY_4752/IMG_0_4752.jpg","null","","","","","","5","","","","","",""
"dot matrix survey1","survey","15","597028","0.0-15.0","","656776a7904ae00d6b91d1dd","6568acec0fcec2bb6b9c0740","11","","","","","","","","","","","","135850","","{""P0_Q0"":null,""P0_Q1"":{""wealthy"":0,""safe"":1,""walkable"":2,""traditional"":1,""diverse"":3}}","","","","","","5","[]","","","","",""
"dot matrix survey2","survey","16","679324","0.0-16.0","","656776a7904ae00d6b91d1dd","6568acec0fcec2bb6b9c0740","11","","","","","","","","","","","","82289","","{""P0_Q0"":null,""P0_Q1"":{""violence"":2,""crime"":3,""drug"":1,""schools"":0,""opportunities"":0}}","","","","","","5","[]","","","","",""
"dot matrix survey3","survey","17","751351","0.0-17.0","","656776a7904ae00d6b91d1dd","6568acec0fcec2bb6b9c0740","11","","","","","","","","","","","","72021","","{""P0_Q0"":null,""P0_Q1"":{""movein"":0,""moveout"":0,""walk"":0,""shopping"":0,""park"":0,""school"":0}}","","","","","","5","[]","","","","",""
"sliderTrial","html-slider-response","18","760055","0.0-18.0","","656776a7904ae00d6b91d1dd","6568acec0fcec2bb6b9c0740","11","","","","","","","","","","","","8703","[""SV_PolicingMSA/NY_4752/IMG_2_4752.jpg"",""SV_PolicingMSA/NY_4752/IMG_7_4752.jpg"",""SV_PolicingMSA/NY_4752/IMG_12_4752.jpg"",""SV_PolicingMSA/NY_4752/IMG_4_4752.jpg"",""SV_PolicingMSA/NY_4752/IMG_9_4752.jpg"",""SV_PolicingMSA/NY_4752/IMG_6_4752.jpg"",""SV_PolicingMSA/NY_4752/IMG_3_4752.jpg"",""SV_PolicingMSA/NY_4752/IMG_0_4752.jpg""]","1","","","","","","5","","4","[""./rc_img/cop_condGroup_13_CommunitySafety_autoscaled.png"",""./rc_img/cop_condGroup_13_SafeStreets_autoscaled.png""]","1","",""
"sliderTrial","html-slider-response","19","765910","0.0-19.0","","656776a7904ae00d6b91d1dd","6568acec0fcec2bb6b9c0740","11","","","","","","","","","","","","5853","[""SV_PolicingMSA/NY_4752/IMG_2_4752.jpg"",""SV_PolicingMSA/NY_4752/IMG_7_4752.jpg"",""SV_PolicingMSA/NY_4752/IMG_12_4752.jpg"",""SV_PolicingMSA/NY_4752/IMG_4_4752.jpg"",""SV_PolicingMSA/NY_4752/IMG_9_4752.jpg"",""SV_PolicingMSA/NY_4752/IMG_6_4752.jpg"",""SV_PolicingMSA/NY_4752/IMG_3_4752.jpg"",""SV_PolicingMSA/NY_4752/IMG_0_4752.jpg""]","7","","","","","","5","","4","[""./rc_img/cop_condGroup_7_CommunitySafety_autoscaled.png"",""./rc_img/cop_condGroup_7_SafeStreets_autoscaled.png""]","7","",""
"sliderTrial","html-slider-response","20","774163","0.0-20.0","","656776a7904ae00d6b91d1dd","6568acec0fcec2bb6b9c0740","11","","","","","","","","","","","","8253","[""SV_PolicingMSA/NY_4752/IMG_2_4752.jpg"",""SV_PolicingMSA/NY_4752/IMG_7_4752.jpg"",""SV_PolicingMSA/NY_4752/IMG_12_4752.jpg"",""SV_PolicingMSA/NY_4752/IMG_4_4752.jpg"",""SV_PolicingMSA/NY_4752/IMG_9_4752.jpg"",""SV_PolicingMSA/NY_4752/IMG_6_4752.jpg"",""SV_PolicingMSA/NY_4752/IMG_3_4752.jpg"",""SV_PolicingMSA/NY_4752/IMG_0_4752.jpg""]","7","","","","","","5","","4","[""./rc_img/cop_condGroup_3_CommunitySafety_autoscaled.png"",""./rc_img/cop_condGroup_3_SafeStreets_autoscaled.png""]","7","",""
"sliderTrial","html-slider-response","21","820968","0.0-21.0","","656776a7904ae00d6b91d1dd","6568acec0fcec2bb6b9c0740","11","","","","","","","","","","","","46803","[""SV_PolicingMSA/NY_4752/IMG_2_4752.jpg"",""SV_PolicingMSA/NY_4752/IMG_7_4752.jpg"",""SV_PolicingMSA/NY_4752/IMG_12_4752.jpg"",""SV_PolicingMSA/NY_4752/IMG_4_4752.jpg"",""SV_PolicingMSA/NY_4752/IMG_9_4752.jpg"",""SV_PolicingMSA/NY_4752/IMG_6_4752.jpg"",""SV_PolicingMSA/NY_4752/IMG_3_4752.jpg"",""SV_PolicingMSA/NY_4752/IMG_0_4752.jpg""]","1","","","","","","5","","4","[""./rc_img/cop_condGroup_6_SafeStreets_autoscaled.png"",""./rc_img/cop_condGroup_6_CommunitySafety_autoscaled.png""]","7","",""
"sliderTrial","html-slider-response","22","823992","0.0-22.0","","656776a7904ae00d6b91d1dd","6568acec0fcec2bb6b9c0740","11","","","","","","","","","","","","3023","[""SV_PolicingMSA/NY_4752/IMG_2_4752.jpg"",""SV_PolicingMSA/NY_4752/IMG_7_4752.jpg"",""SV_PolicingMSA/NY_4752/IMG_12_4752.jpg"",""SV_PolicingMSA/NY_4752/IMG_4_4752.jpg"",""SV_PolicingMSA/NY_4752/IMG_9_4752.jpg"",""SV_PolicingMSA/NY_4752/IMG_6_4752.jpg"",""SV_PolicingMSA/NY_4752/IMG_3_4752.jpg"",""SV_PolicingMSA/NY_4752/IMG_0_4752.jpg""]","7","","","","","","5","","4","[""./rc_img/cop_condGroup_11_SafeStreets_autoscaled.png"",""./rc_img/cop_condGroup_11_CommunitySafety_autoscaled.png""]","1","",""
"before_SVSlide_prompt","html-button-response","23","917611","0.0-23.0","","656776a7904ae00d6b91d1dd","6568acec0fcec2bb6b9c0740","11","","","","","","","","","","","","93619","Click [Next] to see the next neighborhood!","0","","","","","","","","","","","",""
"street view slide show","image-button-response","24","918614","0.0-24.0","","656776a7904ae00d6b91d1dd","6568acec0fcec2bb6b9c0740","11","","","","","","","","","","","","null","stimulus/SV_PolicingMSA/NJ_979/IMG_2_979.jpg","null","","","","","","0","","","","","",""
"street view slide show","image-button-response","25","919615","0.0-25.0","","656776a7904ae00d6b91d1dd","6568acec0fcec2bb6b9c0740","11","","","","","","","","","","","","null","stimulus/SV_PolicingMSA/NJ_979/IMG_1_979.jpg","null","","","","","","0","","","","","",""
"street view slide show","image-button-response","26","920617","0.0-26.0","","656776a7904ae00d6b91d1dd","6568acec0fcec2bb6b9c0740","11","","","","","","","","","","","","null","stimulus/SV_PolicingMSA/NJ_979/IMG_3_979.jpg","null","","","","","","0","","","","","",""
"street view slide show","image-button-response","27","921628","0.0-27.0","","656776a7904ae00d6b91d1dd","6568acec0fcec2bb6b9c0740","11","","","","","","","","","","","","null","stimulus/SV_PolicingMSA/NJ_979/IMG_10_979.jpg","null","","","","","","0","","","","","",""
"street view slide show","image-button-response","28","922629","0.0-28.0","","656776a7904ae00d6b91d1dd","6568acec0fcec2bb6b9c0740","11","","","","","","","","","","","","null","stimulus/SV_PolicingMSA/NJ_979/IMG_8_979.jpg","null","","","","","","0","","","","","",""
"street view slide show","image-button-response","29","923635","0.0-29.0","","656776a7904ae00d6b91d1dd","6568acec0fcec2bb6b9c0740","11","","","","","","","","","","","","null","stimulus/SV_PolicingMSA/NJ_979/IMG_13_979.jpg","null","","","","","","0","","","","","",""
"street view slide show","image-button-response","30","924647","0.0-30.0","","656776a7904ae00d6b91d1dd","6568acec0fcec2bb6b9c0740","11","","","","","","","","","","","","null","stimulus/SV_PolicingMSA/NJ_979/IMG_7_979.jpg","null","","","","","","0","","","","","",""
"street view slide show","image-button-response","31","925657","0.0-31.0","","656776a7904ae00d6b91d1dd","6568acec0fcec2bb6b9c0740","11","","","","","","","","","","","","null","stimulus/SV_PolicingMSA/NJ_979/IMG_12_979.jpg","null","","","","","","0","","","","","",""
"dot matrix survey1","survey","32","961119","0.0-32.0","","656776a7904ae00d6b91d1dd","6568acec0fcec2bb6b9c0740","11","","","","","","","","","","","","35453","","{""P0_Q0"":null,""P0_Q1"":{""wealthy"":1,""safe"":3,""walkable"":2,""traditional"":1,""diverse"":2}}","","","","","","0","[]","","","","",""
"dot matrix survey2","survey","33","1020572","0.0-33.0","","656776a7904ae00d6b91d1dd","6568acec0fcec2bb6b9c0740","11","","","","","","","","","","","","59446","","{""P0_Q0"":null,""P0_Q1"":{""violence"":1,""crime"":2,""drug"":1,""schools"":2,""opportunities"":1}}","","","","","","0","[]","","","","",""
"dot matrix survey3","survey","34","1062364","0.0-34.0","","656776a7904ae00d6b91d1dd","6568acec0fcec2bb6b9c0740","11","","","","","","","","","","","","41787","","{""P0_Q0"":null,""P0_Q1"":{""movein"":1,""shopping"":0,""moveout"":4,""walk"":0,""park"":1,""school"":0}}","","","","","","0","[]","","","","",""
"sliderTrial","html-slider-response","35","1111081","0.0-35.0","","656776a7904ae00d6b91d1dd","6568acec0fcec2bb6b9c0740","11","","","","","","","","","","","","48716","[""SV_PolicingMSA/NJ_979/IMG_2_979.jpg"",""SV_PolicingMSA/NJ_979/IMG_1_979.jpg"",""SV_PolicingMSA/NJ_979/IMG_3_979.jpg"",""SV_PolicingMSA/NJ_979/IMG_10_979.jpg"",""SV_PolicingMSA/NJ_979/IMG_8_979.jpg"",""SV_PolicingMSA/NJ_979/IMG_13_979.jpg"",""SV_PolicingMSA/NJ_979/IMG_7_979.jpg"",""SV_PolicingMSA/NJ_979/IMG_12_979.jpg""]","6","","","","","","0","","4","[""./rc_img/cop_condGroup_17_SafeStreets_autoscaled.png"",""./rc_img/cop_condGroup_17_CommunitySafety_autoscaled.png""]","2","",""
"sliderTrial","html-slider-response","36","1114922","0.0-36.0","","656776a7904ae00d6b91d1dd","6568acec0fcec2bb6b9c0740","11","","","","","","","","","","","","3839","[""SV_PolicingMSA/NJ_979/IMG_2_979.jpg"",""SV_PolicingMSA/NJ_979/IMG_1_979.jpg"",""SV_PolicingMSA/NJ_979/IMG_3_979.jpg"",""SV_PolicingMSA/NJ_979/IMG_10_979.jpg"",""SV_PolicingMSA/NJ_979/IMG_8_979.jpg"",""SV_PolicingMSA/NJ_979/IMG_13_979.jpg"",""SV_PolicingMSA/NJ_979/IMG_7_979.jpg"",""SV_PolicingMSA/NJ_979/IMG_12_979.jpg""]","3","","","","","","0","","4","[""./rc_img/cop_condGroup_19_CommunitySafety_autoscaled.png"",""./rc_img/cop_condGroup_19_SafeStreets_autoscaled.png""]","3","",""
"sliderTrial_attention","html-slider-response","37","1124924","0.0-37.0","","656776a7904ae00d6b91d1dd","6568acec0fcec2bb6b9c0740","11","","","","","","","","","","","","null","[""SV_PolicingMSA/NJ_979/IMG_2_979.jpg"",""SV_PolicingMSA/NJ_979/IMG_1_979.jpg"",""SV_PolicingMSA/NJ_979/IMG_3_979.jpg"",""SV_PolicingMSA/NJ_979/IMG_10_979.jpg"",""SV_PolicingMSA/NJ_979/IMG_8_979.jpg"",""SV_PolicingMSA/NJ_979/IMG_13_979.jpg"",""SV_PolicingMSA/NJ_979/IMG_7_979.jpg"",""SV_PolicingMSA/NJ_979/IMG_12_979.jpg""]","null","","","","","","0","","4","[""./assets/img/attnchk.png"",""./assets/img/attnchk.png""]","","true",""
"sliderTrial","html-slider-response","38","1129643","0.0-38.0","","656776a7904ae00d6b91d1dd","6568acec0fcec2bb6b9c0740","11","","","","","","","","","","","","4718","[""SV_PolicingMSA/NJ_979/IMG_2_979.jpg"",""SV_PolicingMSA/NJ_979/IMG_1_979.jpg"",""SV_PolicingMSA/NJ_979/IMG_3_979.jpg"",""SV_PolicingMSA/NJ_979/IMG_10_979.jpg"",""SV_PolicingMSA/NJ_979/IMG_8_979.jpg"",""SV_PolicingMSA/NJ_979/IMG_13_979.jpg"",""SV_PolicingMSA/NJ_979/IMG_7_979.jpg"",""SV_PolicingMSA/NJ_979/IMG_12_979.jpg""]","6","","","","","","0","","4","[""./rc_img/cop_condGroup_20_SafeStreets_autoscaled.png"",""./rc_img/cop_condGroup_20_CommunitySafety_autoscaled.png""]","2","",""
"sliderTrial","html-slider-response","39","1132655","0.0-39.0","","656776a7904ae00d6b91d1dd","6568acec0fcec2bb6b9c0740","11","","","","","","","","","","","","3011","[""SV_PolicingMSA/NJ_979/IMG_2_979.jpg"",""SV_PolicingMSA/NJ_979/IMG_1_979.jpg"",""SV_PolicingMSA/NJ_979/IMG_3_979.jpg"",""SV_PolicingMSA/NJ_979/IMG_10_979.jpg"",""SV_PolicingMSA/NJ_979/IMG_8_979.jpg"",""SV_PolicingMSA/NJ_979/IMG_13_979.jpg"",""SV_PolicingMSA/NJ_979/IMG_7_979.jpg"",""SV_PolicingMSA/NJ_979/IMG_12_979.jpg""]","2","","","","","","0","","4","[""./rc_img/cop_condGroup_4_SafeStreets_autoscaled.png"",""./rc_img/cop_condGroup_4_CommunitySafety_autoscaled.png""]","6","",""
"sliderTrial","html-slider-response","40","1135965","0.0-40.0","","656776a7904ae00d6b91d1dd","6568acec0fcec2bb6b9c0740","11","","","","","","","","","","","","3309","[""SV_PolicingMSA/NJ_979/IMG_2_979.jpg"",""SV_PolicingMSA/NJ_979/IMG_1_979.jpg"",""SV_PolicingMSA/NJ_979/IMG_3_979.jpg"",""SV_PolicingMSA/NJ_979/IMG_10_979.jpg"",""SV_PolicingMSA/NJ_979/IMG_8_979.jpg"",""SV_PolicingMSA/NJ_979/IMG_13_979.jpg"",""SV_PolicingMSA/NJ_979/IMG_7_979.jpg"",""SV_PolicingMSA/NJ_979/IMG_12_979.jpg""]","2","","","","","","0","","4","[""./rc_img/cop_condGroup_5_CommunitySafety_autoscaled.png"",""./rc_img/cop_condGroup_5_SafeStreets_autoscaled.png""]","2","",""
"before_SVSlide_prompt","html-button-response","41","1161411","0.0-41.0","","656776a7904ae00d6b91d1dd","6568acec0fcec2bb6b9c0740","11","","","","","","","","","","","","25445","Click [Next] to see the next neighborhood!","0","","","","","","","","","","","",""
"street view slide show","image-button-response","42","1162418","0.0-42.0","","656776a7904ae00d6b91d1dd","6568acec0fcec2bb6b9c0740","11","","","","","","","","","","","","null","stimulus/SV_PolicingMSA/NY_5249/IMG_1_5249.jpg","null","","","","","","1","","","","","",""
"street view slide show","image-button-response","43","1163433","0.0-43.0","","656776a7904ae00d6b91d1dd","6568acec0fcec2bb6b9c0740","11","","","","","","","","","","","","null","stimulus/SV_PolicingMSA/NY_5249/IMG_7_5249.jpg","null","","","","","","1","","","","","",""
"street view slide show","image-button-response","44","1164434","0.0-44.0","","656776a7904ae00d6b91d1dd","6568acec0fcec2bb6b9c0740","11","","","","","","","","","","","","null","stimulus/SV_PolicingMSA/NY_5249/IMG_8_5249.jpg","null","","","","","","1","","","","","",""
"street view slide show","image-button-response","45","1165444","0.0-45.0","","656776a7904ae00d6b91d1dd","6568acec0fcec2bb6b9c0740","11","","","","","","","","","","","","null","stimulus/SV_PolicingMSA/NY_5249/IMG_11_5249.jpg","null","","","","","","1","","","","","",""
"street view slide show","image-button-response","46","1166460","0.0-46.0","","656776a7904ae00d6b91d1dd","6568acec0fcec2bb6b9c0740","11","","","","","","","","","","","","null","stimulus/SV_PolicingMSA/NY_5249/IMG_10_5249.jpg","null","","","","","","1","","","","","",""
"street view slide show","image-button-response","47","1167476","0.0-47.0","","656776a7904ae00d6b91d1dd","6568acec0fcec2bb6b9c0740","11","","","","","","","","","","","","null","stimulus/SV_PolicingMSA/NY_5249/IMG_0_5249.jpg","null","","","","","","1","","","","","",""
"street view slide show","image-button-response","48","1168484","0.0-48.0","","656776a7904ae00d6b91d1dd","6568acec0fcec2bb6b9c0740","11","","","","","","","","","","","","null","stimulus/SV_PolicingMSA/NY_5249/IMG_4_5249.jpg","null","","","","","","1","","","","","",""
"street view slide show","image-button-response","49","1169500","0.0-49.0","","656776a7904ae00d6b91d1dd","6568acec0fcec2bb6b9c0740","11","","","","","","","","","","","","null","stimulus/SV_PolicingMSA/NY_5249/IMG_9_5249.jpg","null","","","","","","1","","","","","",""
"dot matrix survey1","survey","50","1197828","0.0-50.0","","656776a7904ae00d6b91d1dd","6568acec0fcec2bb6b9c0740","11","","","","","","","","","","","","28322","","{""P0_Q0"":null,""P0_Q1"":{""wealthy"":2,""safe"":4,""walkable"":3,""traditional"":1,""diverse"":1}}","","","","","","1","[]","","","","",""
"dot matrix survey2","survey","51","1278806","0.0-51.0","","656776a7904ae00d6b91d1dd","6568acec0fcec2bb6b9c0740","11","","","","","","","","","","","","80974","","{""P0_Q0"":null,""P0_Q1"":{""violence"":0,""crime"":1,""drug"":0,""schools"":3,""opportunities"":3}}","","","","","","1","[]","","","","",""
"dot matrix survey3","survey","52","1297739","0.0-52.0","","656776a7904ae00d6b91d1dd","6568acec0fcec2bb6b9c0740","11","","","","","","","","","","","","18924","","{""P0_Q0"":null,""P0_Q1"":{""movein"":3,""moveout"":1,""shopping"":2,""walk"":2,""park"":1,""school"":3}}","","","","","","1","[]","","","","",""
"sliderTrial","html-slider-response","53","1301395","0.0-53.0","","656776a7904ae00d6b91d1dd","6568acec0fcec2bb6b9c0740","11","","","","","","","","","","","","3655","[""SV_PolicingMSA/NY_5249/IMG_1_5249.jpg"",""SV_PolicingMSA/NY_5249/IMG_7_5249.jpg"",""SV_PolicingMSA/NY_5249/IMG_8_5249.jpg"",""SV_PolicingMSA/NY_5249/IMG_11_5249.jpg"",""SV_PolicingMSA/NY_5249/IMG_10_5249.jpg"",""SV_PolicingMSA/NY_5249/IMG_0_5249.jpg"",""SV_PolicingMSA/NY_5249/IMG_4_5249.jpg"",""SV_PolicingMSA/NY_5249/IMG_9_5249.jpg""]","2","","","","","","1","","4","[""./rc_img/cop_condGroup_8_CommunitySafety_autoscaled.png"",""./rc_img/cop_condGroup_8_SafeStreets_autoscaled.png""]","2","",""
"sliderTrial","html-slider-response","54","1304441","0.0-54.0","","656776a7904ae00d6b91d1dd","6568acec0fcec2bb6b9c0740","11","","","","","","","","","","","","3045","[""SV_PolicingMSA/NY_5249/IMG_1_5249.jpg"",""SV_PolicingMSA/NY_5249/IMG_7_5249.jpg"",""SV_PolicingMSA/NY_5249/IMG_8_5249.jpg"",""SV_PolicingMSA/NY_5249/IMG_11_5249.jpg"",""SV_PolicingMSA/NY_5249/IMG_10_5249.jpg"",""SV_PolicingMSA/NY_5249/IMG_0_5249.jpg"",""SV_PolicingMSA/NY_5249/IMG_4_5249.jpg"",""SV_PolicingMSA/NY_5249/IMG_9_5249.jpg""]","7","","","","","","1","","4","[""./rc_img/cop_condGroup_10_SafeStreets_autoscaled.png"",""./rc_img/cop_condGroup_10_CommunitySafety_autoscaled.png""]","1","",""
"sliderTrial","html-slider-response","55","1310097","0.0-55.0","","656776a7904ae00d6b91d1dd","6568acec0fcec2bb6b9c0740","11","","","","","","","","","","","","5655","[""SV_PolicingMSA/NY_5249/IMG_1_5249.jpg"",""SV_PolicingMSA/NY_5249/IMG_7_5249.jpg"",""SV_PolicingMSA/NY_5249/IMG_8_5249.jpg"",""SV_PolicingMSA/NY_5249/IMG_11_5249.jpg"",""SV_PolicingMSA/NY_5249/IMG_10_5249.jpg"",""SV_PolicingMSA/NY_5249/IMG_0_5249.jpg"",""SV_PolicingMSA/NY_5249/IMG_4_5249.jpg"",""SV_PolicingMSA/NY_5249/IMG_9_5249.jpg""]","1","","","","","","1","","4","[""./rc_img/cop_condGroup_15_CommunitySafety_autoscaled.png"",""./rc_img/cop_condGroup_15_SafeStreets_autoscaled.png""]","1","",""
"sliderTrial_attention","html-slider-response","56","1320103","0.0-56.0","","656776a7904ae00d6b91d1dd","6568acec0fcec2bb6b9c0740","11","","","","","","","","","","","","null","[""SV_PolicingMSA/NY_5249/IMG_1_5249.jpg"",""SV_PolicingMSA/NY_5249/IMG_7_5249.jpg"",""SV_PolicingMSA/NY_5249/IMG_8_5249.jpg"",""SV_PolicingMSA/NY_5249/IMG_11_5249.jpg"",""SV_PolicingMSA/NY_5249/IMG_10_5249.jpg"",""SV_PolicingMSA/NY_5249/IMG_0_5249.jpg"",""SV_PolicingMSA/NY_5249/IMG_4_5249.jpg"",""SV_PolicingMSA/NY_5249/IMG_9_5249.jpg""]","null","","","","","","1","","4","[""./assets/img/attnchk.png"",""./assets/img/attnchk.png""]","","true",""
"sliderTrial","html-slider-response","57","1326127","0.0-57.0","","656776a7904ae00d6b91d1dd","6568acec0fcec2bb6b9c0740","11","","","","","","","","","","","","6023","[""SV_PolicingMSA/NY_5249/IMG_1_5249.jpg"",""SV_PolicingMSA/NY_5249/IMG_7_5249.jpg"",""SV_PolicingMSA/NY_5249/IMG_8_5249.jpg"",""SV_PolicingMSA/NY_5249/IMG_11_5249.jpg"",""SV_PolicingMSA/NY_5249/IMG_10_5249.jpg"",""SV_PolicingMSA/NY_5249/IMG_0_5249.jpg"",""SV_PolicingMSA/NY_5249/IMG_4_5249.jpg"",""SV_PolicingMSA/NY_5249/IMG_9_5249.jpg""]","2","","","","","","1","","4","[""./rc_img/cop_condGroup_16_CommunitySafety_autoscaled.png"",""./rc_img/cop_condGroup_16_SafeStreets_autoscaled.png""]","2","",""
"sliderTrial","html-slider-response","58","1339355","0.0-58.0","","656776a7904ae00d6b91d1dd","6568acec0fcec2bb6b9c0740","11","","","","","","","","","","","","13227","[""SV_PolicingMSA/NY_5249/IMG_1_5249.jpg"",""SV_PolicingMSA/NY_5249/IMG_7_5249.jpg"",""SV_PolicingMSA/NY_5249/IMG_8_5249.jpg"",""SV_PolicingMSA/NY_5249/IMG_11_5249.jpg"",""SV_PolicingMSA/NY_5249/IMG_10_5249.jpg"",""SV_PolicingMSA/NY_5249/IMG_0_5249.jpg"",""SV_PolicingMSA/NY_5249/IMG_4_5249.jpg"",""SV_PolicingMSA/NY_5249/IMG_9_5249.jpg""]","2","","","","","","1","","4","[""./rc_img/cop_condGroup_1_CommunitySafety_autoscaled.png"",""./rc_img/cop_condGroup_1_SafeStreets_autoscaled.png""]","2","",""
"before_SVSlide_prompt","html-button-response","59","1345967","0.0-59.0","","656776a7904ae00d6b91d1dd","6568acec0fcec2bb6b9c0740","11","","","","","","","","","","","","6611","Click [Next] to see the next neighborhood!","0","","","","","","","","","","","",""
"street view slide show","image-button-response","60","1346969","0.0-60.0","","656776a7904ae00d6b91d1dd","6568acec0fcec2bb6b9c0740","11","","","","","","","","","","","","null","stimulus/SV_PolicingMSA/NJ_1052/IMG_10_1052.jpg","null","","","","","","3","","","","","",""
"street view slide show","image-button-response","61","1347984","0.0-61.0","","656776a7904ae00d6b91d1dd","6568acec0fcec2bb6b9c0740","11","","","","","","","","","","","","null","stimulus/SV_PolicingMSA/NJ_1052/IMG_13_1052.jpg","null","","","","","","3","","","","","",""
"street view slide show","image-button-response","62","1349000","0.0-62.0","","656776a7904ae00d6b91d1dd","6568acec0fcec2bb6b9c0740","11","","","","","","","","","","","","null","stimulus/SV_PolicingMSA/NJ_1052/IMG_5_1052.jpg","null","","","","","","3","","","","","",""
"street view slide show","image-button-response","63","1350001","0.0-63.0","","656776a7904ae00d6b91d1dd","6568acec0fcec2bb6b9c0740","11","","","","","","","","","","","","null","stimulus/SV_PolicingMSA/NJ_1052/IMG_11_1052.jpg","null","","","","","","3","","","","","",""
"street view slide show","image-button-response","64","1351012","0.0-64.0","","656776a7904ae00d6b91d1dd","6568acec0fcec2bb6b9c0740","11","","","","","","","","","","","","null","stimulus/SV_PolicingMSA/NJ_1052/IMG_12_1052.jpg","null","","","","","","3","","","","","",""
"street view slide show","image-button-response","65","1352018","0.0-65.0","","656776a7904ae00d6b91d1dd","6568acec0fcec2bb6b9c0740","11","","","","","","","","","","","","null","stimulus/SV_PolicingMSA/NJ_1052/IMG_4_1052.jpg","null","","","","","","3","","","","","",""
"street view slide show","image-button-response","66","1353018","0.0-66.0","","656776a7904ae00d6b91d1dd","6568acec0fcec2bb6b9c0740","11","","","","","","","","","","","","null","stimulus/SV_PolicingMSA/NJ_1052/IMG_3_1052.jpg","null","","","","","","3","","","","","",""
"street view slide show","image-button-response","67","1354032","0.0-67.0","","656776a7904ae00d6b91d1dd","6568acec0fcec2bb6b9c0740","11","","","","","","","","","","","","null","stimulus/SV_PolicingMSA/NJ_1052/IMG_0_1052.jpg","null","","","","","","3","","","","","",""
"dot matrix survey1","survey","68","1383455","0.0-68.0","","656776a7904ae00d6b91d1dd","6568acec0fcec2bb6b9c0740","11","","","","","","","","","","","","29417","","{""P0_Q0"":null,""P0_Q1"":{""wealthy"":1,""safe"":2,""walkable"":1,""traditional"":2,""diverse"":2}}","","","","","","3","[]","","","","",""
"dot matrix survey2","survey","69","1408677","0.0-69.0","","656776a7904ae00d6b91d1dd","6568acec0fcec2bb6b9c0740","11","","","","","","","","","","","","25217","","{""P0_Q0"":null,""P0_Q1"":{""violence"":0,""crime"":1,""drug"":0,""schools"":3,""opportunities"":3}}","","","","","","3","[]","","","","",""
"dot matrix survey3","survey","70","1447183","0.0-70.0","","656776a7904ae00d6b91d1dd","6568acec0fcec2bb6b9c0740","11","","","","","","","","","","","","38502","","{""P0_Q0"":null,""P0_Q1"":{""movein"":2,""moveout"":3,""shopping"":1,""walk"":0,""park"":0,""school"":2}}","","","","","","3","[]","","","","",""
"sliderTrial","html-slider-response","71","1450978","0.0-71.0","","656776a7904ae00d6b91d1dd","6568acec0fcec2bb6b9c0740","11","","","","","","","","","","","","3794","[""SV_PolicingMSA/NJ_1052/IMG_10_1052.jpg"",""SV_PolicingMSA/NJ_1052/IMG_13_1052.jpg"",""SV_PolicingMSA/NJ_1052/IMG_5_1052.jpg"",""SV_PolicingMSA/NJ_1052/IMG_11_1052.jpg"",""SV_PolicingMSA/NJ_1052/IMG_12_1052.jpg"",""SV_PolicingMSA/NJ_1052/IMG_4_1052.jpg"",""SV_PolicingMSA/NJ_1052/IMG_3_1052.jpg"",""SV_PolicingMSA/NJ_1052/IMG_0_1052.jpg""]","2","","","","","","3","","4","[""./rc_img/cop_condGroup_8_CommunitySafety_autoscaled.png"",""./rc_img/cop_condGroup_8_SafeStreets_autoscaled.png""]","2","",""
"sliderTrial","html-slider-response","72","1455532","0.0-72.0","","656776a7904ae00d6b91d1dd","6568acec0fcec2bb6b9c0740","11","","","","","","","","","","","","4553","[""SV_PolicingMSA/NJ_1052/IMG_10_1052.jpg"",""SV_PolicingMSA/NJ_1052/IMG_13_1052.jpg"",""SV_PolicingMSA/NJ_1052/IMG_5_1052.jpg"",""SV_PolicingMSA/NJ_1052/IMG_11_1052.jpg"",""SV_PolicingMSA/NJ_1052/IMG_12_1052.jpg"",""SV_PolicingMSA/NJ_1052/IMG_4_1052.jpg"",""SV_PolicingMSA/NJ_1052/IMG_3_1052.jpg"",""SV_PolicingMSA/NJ_1052/IMG_0_1052.jpg""]","2","","","","","","3","","4","[""./rc_img/cop_condGroup_10_SafeStreets_autoscaled.png"",""./rc_img/cop_condGroup_10_CommunitySafety_autoscaled.png""]","6","",""
"sliderTrial","html-slider-response","73","1459053","0.0-73.0","","656776a7904ae00d6b91d1dd","6568acec0fcec2bb6b9c0740","11","","","","","","","","","","","","3519","[""SV_PolicingMSA/NJ_1052/IMG_10_1052.jpg"",""SV_PolicingMSA/NJ_1052/IMG_13_1052.jpg"",""SV_PolicingMSA/NJ_1052/IMG_5_1052.jpg"",""SV_PolicingMSA/NJ_1052/IMG_11_1052.jpg"",""SV_PolicingMSA/NJ_1052/IMG_12_1052.jpg"",""SV_PolicingMSA/NJ_1052/IMG_4_1052.jpg"",""SV_PolicingMSA/NJ_1052/IMG_3_1052.jpg"",""SV_PolicingMSA/NJ_1052/IMG_0_1052.jpg""]","5","","","","","","3","","4","[""./rc_img/cop_condGroup_15_CommunitySafety_autoscaled.png"",""./rc_img/cop_condGroup_15_SafeStreets_autoscaled.png""]","5","",""
"sliderTrial","html-slider-response","74","1461482","0.0-74.0","","656776a7904ae00d6b91d1dd","6568acec0fcec2bb6b9c0740","11","","","","","","","","","","","","2428","[""SV_PolicingMSA/NJ_1052/IMG_10_1052.jpg"",""SV_PolicingMSA/NJ_1052/IMG_13_1052.jpg"",""SV_PolicingMSA/NJ_1052/IMG_5_1052.jpg"",""SV_PolicingMSA/NJ_1052/IMG_11_1052.jpg"",""SV_PolicingMSA/NJ_1052/IMG_12_1052.jpg"",""SV_PolicingMSA/NJ_1052/IMG_4_1052.jpg"",""SV_PolicingMSA/NJ_1052/IMG_3_1052.jpg"",""SV_PolicingMSA/NJ_1052/IMG_0_1052.jpg""]","3","","","","","","3","","4","[""./rc_img/cop_condGroup_16_CommunitySafety_autoscaled.png"",""./rc_img/cop_condGroup_16_SafeStreets_autoscaled.png""]","3","",""
"sliderTrial","html-slider-response","75","1463700","0.0-75.0","","656776a7904ae00d6b91d1dd","6568acec0fcec2bb6b9c0740","11","","","","","","","","","","","","2217","[""SV_PolicingMSA/NJ_1052/IMG_10_1052.jpg"",""SV_PolicingMSA/NJ_1052/IMG_13_1052.jpg"",""SV_PolicingMSA/NJ_1052/IMG_5_1052.jpg"",""SV_PolicingMSA/NJ_1052/IMG_11_1052.jpg"",""SV_PolicingMSA/NJ_1052/IMG_12_1052.jpg"",""SV_PolicingMSA/NJ_1052/IMG_4_1052.jpg"",""SV_PolicingMSA/NJ_1052/IMG_3_1052.jpg"",""SV_PolicingMSA/NJ_1052/IMG_0_1052.jpg""]","2","","","","","","3","","4","[""./rc_img/cop_condGroup_1_CommunitySafety_autoscaled.png"",""./rc_img/cop_condGroup_1_SafeStreets_autoscaled.png""]","2","",""
"half-way","html-button-response","76","1479461","0.0-76.0","","656776a7904ae00d6b91d1dd","6568acec0fcec2bb6b9c0740","11","","","","","","","","","","","","null","
    <h3>You are now half way through the study.</h3>
    <p>Please take a quick, 15-second break before you continue.</p>
    <img src='assets/img/countdown-15.gif'>
    <p>The study will automatically advance forward after the countdown is complete. <br> However, you may click ""Next"" to advance forward now if you wish.</p>
    ","null","","","","","","","","","","","",""
"before_SVSlide_prompt","html-button-response","77","1488038","0.0-77.0","","656776a7904ae00d6b91d1dd","6568acec0fcec2bb6b9c0740","11","","","","","","","","","","","","8576","Click [Next] to see the next neighborhood!","0","","","","","","","","","","","",""
"street view slide show","image-button-response","78","1489048","0.0-78.0","","656776a7904ae00d6b91d1dd","6568acec0fcec2bb6b9c0740","11","","","","","","","","","","","","null","stimulus/SV_PolicingMSA/NJ_1880/IMG_10_1880.jpg","null","","","","","","2","","","","","",""
"street view slide show","image-button-response","79","1490059","0.0-79.0","","656776a7904ae00d6b91d1dd","6568acec0fcec2bb6b9c0740","11","","","","","","","","","","","","null","stimulus/SV_PolicingMSA/NJ_1880/IMG_12_1880.jpg","null","","","","","","2","","","","","",""
"street view slide show","image-button-response","80","1491071","0.0-80.0","","656776a7904ae00d6b91d1dd","6568acec0fcec2bb6b9c0740","11","","","","","","","","","","","","null","stimulus/SV_PolicingMSA/NJ_1880/IMG_3_1880.jpg","null","","","","","","2","","","","","",""
"street view slide show","image-button-response","81","1492085","0.0-81.0","","656776a7904ae00d6b91d1dd","6568acec0fcec2bb6b9c0740","11","","","","","","","","","","","","null","stimulus/SV_PolicingMSA/NJ_1880/IMG_2_1880.jpg","null","","","","","","2","","","","","",""
"street view slide show","image-button-response","82","1493097","0.0-82.0","","656776a7904ae00d6b91d1dd","6568acec0fcec2bb6b9c0740","11","","","","","","","","","","","","null","stimulus/SV_PolicingMSA/NJ_1880/IMG_8_1880.jpg","null","","","","","","2","","","","","",""
"street view slide show","image-button-response","83","1494110","0.0-83.0","","656776a7904ae00d6b91d1dd","6568acec0fcec2bb6b9c0740","11","","","","","","","","","","","","null","stimulus/SV_PolicingMSA/NJ_1880/IMG_13_1880.jpg","null","","","","","","2","","","","","",""
"street view slide show","image-button-response","84","1495111","0.0-84.0","","656776a7904ae00d6b91d1dd","6568acec0fcec2bb6b9c0740","11","","","","","","","","","","","","null","stimulus/SV_PolicingMSA/NJ_1880/IMG_6_1880.jpg","null","","","","","","2","","","","","",""
"street view slide show","image-button-response","85","1496121","0.0-85.0","","656776a7904ae00d6b91d1dd","6568acec0fcec2bb6b9c0740","11","","","","","","","","","","","","null","stimulus/SV_PolicingMSA/NJ_1880/IMG_11_1880.jpg","null","","","","","","2","","","","","",""
"dot matrix survey1","survey","86","1506781","0.0-86.0","","656776a7904ae00d6b91d1dd","6568acec0fcec2bb6b9c0740","11","","","","","","","","","","","","10654","","{""P0_Q0"":null,""P0_Q1"":{""wealthy"":0,""safe"":1,""walkable"":1,""traditional"":0,""diverse"":2}}","","","","","","2","[]","","","","",""
"dot matrix survey2","survey","87","1514742","0.0-87.0","","656776a7904ae00d6b91d1dd","6568acec0fcec2bb6b9c0740","11","","","","","","","","","","","","7956","","{""P0_Q0"":null,""P0_Q1"":{""violence"":2,""crime"":3,""drug"":2,""schools"":1,""opportunities"":1}}","","","","","","2","[]","","","","",""
"dot matrix survey3","survey","88","1529955","0.0-88.0","","656776a7904ae00d6b91d1dd","6568acec0fcec2bb6b9c0740","11","","","","","","","","","","","","15209","","{""P0_Q0"":null,""P0_Q1"":{""movein"":0,""moveout"":4,""shopping"":1,""walk"":1,""park"":1,""school"":1}}","","","","","","2","[]","","","","",""
"sliderTrial","html-slider-response","89","1532978","0.0-89.0","","656776a7904ae00d6b91d1dd","6568acec0fcec2bb6b9c0740","11","","","","","","","","","","","","3022","[""SV_PolicingMSA/NJ_1880/IMG_10_1880.jpg"",""SV_PolicingMSA/NJ_1880/IMG_12_1880.jpg"",""SV_PolicingMSA/NJ_1880/IMG_3_1880.jpg"",""SV_PolicingMSA/NJ_1880/IMG_2_1880.jpg"",""SV_PolicingMSA/NJ_1880/IMG_8_1880.jpg"",""SV_PolicingMSA/NJ_1880/IMG_13_1880.jpg"",""SV_PolicingMSA/NJ_1880/IMG_6_1880.jpg"",""SV_PolicingMSA/NJ_1880/IMG_11_1880.jpg""]","2","","","","","","2","","4","[""./rc_img/cop_condGroup_17_SafeStreets_autoscaled.png"",""./rc_img/cop_condGroup_17_CommunitySafety_autoscaled.png""]","6","",""
"sliderTrial","html-slider-response","90","1537206","0.0-90.0","","656776a7904ae00d6b91d1dd","6568acec0fcec2bb6b9c0740","11","","","","","","","","","","","","4227","[""SV_PolicingMSA/NJ_1880/IMG_10_1880.jpg"",""SV_PolicingMSA/NJ_1880/IMG_12_1880.jpg"",""SV_PolicingMSA/NJ_1880/IMG_3_1880.jpg"",""SV_PolicingMSA/NJ_1880/IMG_2_1880.jpg"",""SV_PolicingMSA/NJ_1880/IMG_8_1880.jpg"",""SV_PolicingMSA/NJ_1880/IMG_13_1880.jpg"",""SV_PolicingMSA/NJ_1880/IMG_6_1880.jpg"",""SV_PolicingMSA/NJ_1880/IMG_11_1880.jpg""]","3","","","","","","2","","4","[""./rc_img/cop_condGroup_19_CommunitySafety_autoscaled.png"",""./rc_img/cop_condGroup_19_SafeStreets_autoscaled.png""]","3","",""
"sliderTrial","html-slider-response","91","1540126","0.0-91.0","","656776a7904ae00d6b91d1dd","6568acec0fcec2bb6b9c0740","11","","","","","","","","","","","","2919","[""SV_PolicingMSA/NJ_1880/IMG_10_1880.jpg"",""SV_PolicingMSA/NJ_1880/IMG_12_1880.jpg"",""SV_PolicingMSA/NJ_1880/IMG_3_1880.jpg"",""SV_PolicingMSA/NJ_1880/IMG_2_1880.jpg"",""SV_PolicingMSA/NJ_1880/IMG_8_1880.jpg"",""SV_PolicingMSA/NJ_1880/IMG_13_1880.jpg"",""SV_PolicingMSA/NJ_1880/IMG_6_1880.jpg"",""SV_PolicingMSA/NJ_1880/IMG_11_1880.jpg""]","6","","","","","","2","","4","[""./rc_img/cop_condGroup_20_SafeStreets_autoscaled.png"",""./rc_img/cop_condGroup_20_CommunitySafety_autoscaled.png""]","2","",""
"sliderTrial","html-slider-response","92","1545098","0.0-92.0","","656776a7904ae00d6b91d1dd","6568acec0fcec2bb6b9c0740","11","","","","","","","","","","","","4971","[""SV_PolicingMSA/NJ_1880/IMG_10_1880.jpg"",""SV_PolicingMSA/NJ_1880/IMG_12_1880.jpg"",""SV_PolicingMSA/NJ_1880/IMG_3_1880.jpg"",""SV_PolicingMSA/NJ_1880/IMG_2_1880.jpg"",""SV_PolicingMSA/NJ_1880/IMG_8_1880.jpg"",""SV_PolicingMSA/NJ_1880/IMG_13_1880.jpg"",""SV_PolicingMSA/NJ_1880/IMG_6_1880.jpg"",""SV_PolicingMSA/NJ_1880/IMG_11_1880.jpg""]","6","","","","","","2","","4","[""./rc_img/cop_condGroup_4_SafeStreets_autoscaled.png"",""./rc_img/cop_condGroup_4_CommunitySafety_autoscaled.png""]","2","",""
"sliderTrial","html-slider-response","93","1551158","0.0-93.0","","656776a7904ae00d6b91d1dd","6568acec0fcec2bb6b9c0740","11","","","","","","","","","","","","6059","[""SV_PolicingMSA/NJ_1880/IMG_10_1880.jpg"",""SV_PolicingMSA/NJ_1880/IMG_12_1880.jpg"",""SV_PolicingMSA/NJ_1880/IMG_3_1880.jpg"",""SV_PolicingMSA/NJ_1880/IMG_2_1880.jpg"",""SV_PolicingMSA/NJ_1880/IMG_8_1880.jpg"",""SV_PolicingMSA/NJ_1880/IMG_13_1880.jpg"",""SV_PolicingMSA/NJ_1880/IMG_6_1880.jpg"",""SV_PolicingMSA/NJ_1880/IMG_11_1880.jpg""]","2","","","","","","2","","4","[""./rc_img/cop_condGroup_5_CommunitySafety_autoscaled.png"",""./rc_img/cop_condGroup_5_SafeStreets_autoscaled.png""]","2","",""
"before_SVSlide_prompt","html-button-response","94","1567908","0.0-94.0","","656776a7904ae00d6b91d1dd","6568acec0fcec2bb6b9c0740","11","","","","","","","","","","","","16749","Click [Next] to see the next neighborhood!","0","","","","","","","","","","","",""
"street view slide show","image-button-response","95","1568915","0.0-95.0","","656776a7904ae00d6b91d1dd","6568acec0fcec2bb6b9c0740","11","","","","","","","","","","","","null","stimulus/SV_PolicingMSA/NY_2731/IMG_2_2731.jpg","null","","","","","","3","","","","","",""
"street view slide show","image-button-response","96","1569930","0.0-96.0","","656776a7904ae00d6b91d1dd","6568acec0fcec2bb6b9c0740","11","","","","","","","","","","","","null","stimulus/SV_PolicingMSA/NY_2731/IMG_9_2731.jpg","null","","","","","","3","","","","","",""
"street view slide show","image-button-response","97","1570946","0.0-97.0","","656776a7904ae00d6b91d1dd","6568acec0fcec2bb6b9c0740","11","","","","","","","","","","","","null","stimulus/SV_PolicingMSA/NY_2731/IMG_3_2731.jpg","null","","","","","","3","","","","","",""
"street view slide show","image-button-response","98","1571948","0.0-98.0","","656776a7904ae00d6b91d1dd","6568acec0fcec2bb6b9c0740","11","","","","","","","","","","","","null","stimulus/SV_PolicingMSA/NY_2731/IMG_11_2731.jpg","null","","","","","","3","","","","","",""
"street view slide show","image-button-response","99","1572949","0.0-99.0","","656776a7904ae00d6b91d1dd","6568acec0fcec2bb6b9c0740","11","","","","","","","","","","","","null","stimulus/SV_PolicingMSA/NY_2731/IMG_5_2731.jpg","null","","","","","","3","","","","","",""
"street view slide show","image-button-response","100","1573950","0.0-100.0","","656776a7904ae00d6b91d1dd","6568acec0fcec2bb6b9c0740","11","","","","","","","","","","","","null","stimulus/SV_PolicingMSA/NY_2731/IMG_8_2731.jpg","null","","","","","","3","","","","","",""
"street view slide show","image-button-response","101","1574963","0.0-101.0","","656776a7904ae00d6b91d1dd","6568acec0fcec2bb6b9c0740","11","","","","","","","","","","","","null","stimulus/SV_PolicingMSA/NY_2731/IMG_12_2731.jpg","null","","","","","","3","","","","","",""
"street view slide show","image-button-response","102","1575970","0.0-102.0","","656776a7904ae00d6b91d1dd","6568acec0fcec2bb6b9c0740","11","","","","","","","","","","","","null","stimulus/SV_PolicingMSA/NY_2731/IMG_10_2731.jpg","null","","","","","","3","","","","","",""
"dot matrix survey1","survey","103","1591739","0.0-103.0","","656776a7904ae00d6b91d1dd","6568acec0fcec2bb6b9c0740","11","","","","","","","","","","","","15764","","{""P0_Q0"":null,""P0_Q1"":{""wealthy"":0,""safe"":1,""walkable"":2,""traditional"":1,""diverse"":1}}","","","","","","3","[]","","","","",""
"dot matrix survey2","survey","104","1615445","0.0-104.0","","656776a7904ae00d6b91d1dd","6568acec0fcec2bb6b9c0740","11","","","","","","","","","","","","23701","","{""P0_Q0"":null,""P0_Q1"":{""violence"":2,""crime"":1,""drug"":1,""schools"":0,""opportunities"":1}}","","","","","","3","[]","","","","",""
"dot matrix survey3","survey","105","1627249","0.0-105.0","","656776a7904ae00d6b91d1dd","6568acec0fcec2bb6b9c0740","11","","","","","","","","","","","","11800","","{""P0_Q0"":null,""P0_Q1"":{""movein"":0,""moveout"":4,""shopping"":1,""walk"":2,""park"":1,""school"":2}}","","","","","","3","[]","","","","",""
"sliderTrial","html-slider-response","106","1657550","0.0-106.0","","656776a7904ae00d6b91d1dd","6568acec0fcec2bb6b9c0740","11","","","","","","","","","","","","30300","[""SV_PolicingMSA/NY_2731/IMG_2_2731.jpg"",""SV_PolicingMSA/NY_2731/IMG_9_2731.jpg"",""SV_PolicingMSA/NY_2731/IMG_3_2731.jpg"",""SV_PolicingMSA/NY_2731/IMG_11_2731.jpg"",""SV_PolicingMSA/NY_2731/IMG_5_2731.jpg"",""SV_PolicingMSA/NY_2731/IMG_8_2731.jpg"",""SV_PolicingMSA/NY_2731/IMG_12_2731.jpg"",""SV_PolicingMSA/NY_2731/IMG_10_2731.jpg""]","6","","","","","","3","","4","[""./rc_img/cop_condGroup_13_CommunitySafety_autoscaled.png"",""./rc_img/cop_condGroup_13_SafeStreets_autoscaled.png""]","6","",""
"sliderTrial","html-slider-response","107","1660422","0.0-107.0","","656776a7904ae00d6b91d1dd","6568acec0fcec2bb6b9c0740","11","","","","","","","","","","","","2871","[""SV_PolicingMSA/NY_2731/IMG_2_2731.jpg"",""SV_PolicingMSA/NY_2731/IMG_9_2731.jpg"",""SV_PolicingMSA/NY_2731/IMG_3_2731.jpg"",""SV_PolicingMSA/NY_2731/IMG_11_2731.jpg"",""SV_PolicingMSA/NY_2731/IMG_5_2731.jpg"",""SV_PolicingMSA/NY_2731/IMG_8_2731.jpg"",""SV_PolicingMSA/NY_2731/IMG_12_2731.jpg"",""SV_PolicingMSA/NY_2731/IMG_10_2731.jpg""]","6","","","","","","3","","4","[""./rc_img/cop_condGroup_7_CommunitySafety_autoscaled.png"",""./rc_img/cop_condGroup_7_SafeStreets_autoscaled.png""]","6","",""
"sliderTrial","html-slider-response","108","1663056","0.0-108.0","","656776a7904ae00d6b91d1dd","6568acec0fcec2bb6b9c0740","11","","","","","","","","","","","","2633","[""SV_PolicingMSA/NY_2731/IMG_2_2731.jpg"",""SV_PolicingMSA/NY_2731/IMG_9_2731.jpg"",""SV_PolicingMSA/NY_2731/IMG_3_2731.jpg"",""SV_PolicingMSA/NY_2731/IMG_11_2731.jpg"",""SV_PolicingMSA/NY_2731/IMG_5_2731.jpg"",""SV_PolicingMSA/NY_2731/IMG_8_2731.jpg"",""SV_PolicingMSA/NY_2731/IMG_12_2731.jpg"",""SV_PolicingMSA/NY_2731/IMG_10_2731.jpg""]","6","","","","","","3","","4","[""./rc_img/cop_condGroup_3_CommunitySafety_autoscaled.png"",""./rc_img/cop_condGroup_3_SafeStreets_autoscaled.png""]","6","",""
"sliderTrial","html-slider-response","109","1666204","0.0-109.0","","656776a7904ae00d6b91d1dd","6568acec0fcec2bb6b9c0740","11","","","","","","","","","","","","3147","[""SV_PolicingMSA/NY_2731/IMG_2_2731.jpg"",""SV_PolicingMSA/NY_2731/IMG_9_2731.jpg"",""SV_PolicingMSA/NY_2731/IMG_3_2731.jpg"",""SV_PolicingMSA/NY_2731/IMG_11_2731.jpg"",""SV_PolicingMSA/NY_2731/IMG_5_2731.jpg"",""SV_PolicingMSA/NY_2731/IMG_8_2731.jpg"",""SV_PolicingMSA/NY_2731/IMG_12_2731.jpg"",""SV_PolicingMSA/NY_2731/IMG_10_2731.jpg""]","1","","","","","","3","","4","[""./rc_img/cop_condGroup_6_SafeStreets_autoscaled.png"",""./rc_img/cop_condGroup_6_CommunitySafety_autoscaled.png""]","7","",""
"sliderTrial","html-slider-response","110","1670864","0.0-110.0","","656776a7904ae00d6b91d1dd","6568acec0fcec2bb6b9c0740","11","","","","","","","","","","","","4659","[""SV_PolicingMSA/NY_2731/IMG_2_2731.jpg"",""SV_PolicingMSA/NY_2731/IMG_9_2731.jpg"",""SV_PolicingMSA/NY_2731/IMG_3_2731.jpg"",""SV_PolicingMSA/NY_2731/IMG_11_2731.jpg"",""SV_PolicingMSA/NY_2731/IMG_5_2731.jpg"",""SV_PolicingMSA/NY_2731/IMG_8_2731.jpg"",""SV_PolicingMSA/NY_2731/IMG_12_2731.jpg"",""SV_PolicingMSA/NY_2731/IMG_10_2731.jpg""]","6","","","","","","3","","4","[""./rc_img/cop_condGroup_11_SafeStreets_autoscaled.png"",""./rc_img/cop_condGroup_11_CommunitySafety_autoscaled.png""]","2","",""
"before_SVSlide_prompt","html-button-response","111","1671904","0.0-111.0","","656776a7904ae00d6b91d1dd","6568acec0fcec2bb6b9c0740","11","","","","","","","","","","","","1040","Click [Next] to see the next neighborhood!","0","","","","","","","","","","","",""
"street view slide show","image-button-response","112","1672905","0.0-112.0","","656776a7904ae00d6b91d1dd","6568acec0fcec2bb6b9c0740","11","","","","","","","","","","","","null","stimulus/SV_PolicingMSA/NY_2726/IMG_11_2726.jpg","null","","","","","","2","","","","","",""
"street view slide show","image-button-response","113","1673913","0.0-113.0","","656776a7904ae00d6b91d1dd","6568acec0fcec2bb6b9c0740","11","","","","","","","","","","","","null","stimulus/SV_PolicingMSA/NY_2726/IMG_14_2726.jpg","null","","","","","","2","","","","","",""
"street view slide show","image-button-response","114","1674925","0.0-114.0","","656776a7904ae00d6b91d1dd","6568acec0fcec2bb6b9c0740","11","","","","","","","","","","","","null","stimulus/SV_PolicingMSA/NY_2726/IMG_3_2726.jpg","null","","","","","","2","","","","","",""
"street view slide show","image-button-response","115","1675941","0.0-115.0","","656776a7904ae00d6b91d1dd","6568acec0fcec2bb6b9c0740","11","","","","","","","","","","","","null","stimulus/SV_PolicingMSA/NY_2726/IMG_1_2726.jpg","null","","","","","","2","","","","","",""
"street view slide show","image-button-response","116","1676945","0.0-116.0","","656776a7904ae00d6b91d1dd","6568acec0fcec2bb6b9c0740","11","","","","","","","","","","","","null","stimulus/SV_PolicingMSA/NY_2726/IMG_10_2726.jpg","null","","","","","","2","","","","","",""
"street view slide show","image-button-response","117","1677960","0.0-117.0","","656776a7904ae00d6b91d1dd","6568acec0fcec2bb6b9c0740","11","","","","","","","","","","","","null","stimulus/SV_PolicingMSA/NY_2726/IMG_12_2726.jpg","null","","","","","","2","","","","","",""
"street view slide show","image-button-response","118","1678968","0.0-118.0","","656776a7904ae00d6b91d1dd","6568acec0fcec2bb6b9c0740","11","","","","","","","","","","","","null","stimulus/SV_PolicingMSA/NY_2726/IMG_7_2726.jpg","null","","","","","","2","","","","","",""
"street view slide show","image-button-response","119","1679977","0.0-119.0","","656776a7904ae00d6b91d1dd","6568acec0fcec2bb6b9c0740","11","","","","","","","","","","","","null","stimulus/SV_PolicingMSA/NY_2726/IMG_2_2726.jpg","null","","","","","","2","","","","","",""
"dot matrix survey1","survey","120","1685366","0.0-120.0","","656776a7904ae00d6b91d1dd","6568acec0fcec2bb6b9c0740","11","","","","","","","","","","","","5383","","{""P0_Q0"":null,""P0_Q1"":{""wealthy"":0,""safe"":1,""walkable"":2,""traditional"":1,""diverse"":1}}","","","","","","2","[]","","","","",""
"dot matrix survey2","survey","121","1686852","0.0-121.0","","656776a7904ae00d6b91d1dd","6568acec0fcec2bb6b9c0740","11","","","","","","","","","","","","1482","","{""P0_Q0"":null,""P0_Q1"":null}","","","","","","2","[]","","","","",""
"dot matrix survey3","survey","122","1755426","0.0-122.0","","656776a7904ae00d6b91d1dd","6568acec0fcec2bb6b9c0740","11","","","","","","","","","","","","68570","","{""P0_Q0"":null,""P0_Q1"":{""movein"":0,""moveout"":4,""shopping"":1,""walk"":2,""park"":1,""school"":2}}","","","","","","2","[]","","","","",""
"sliderTrial","html-slider-response","123","1758318","0.0-123.0","","656776a7904ae00d6b91d1dd","6568acec0fcec2bb6b9c0740","11","","","","","","","","","","","","2890","[""SV_PolicingMSA/NY_2726/IMG_11_2726.jpg"",""SV_PolicingMSA/NY_2726/IMG_14_2726.jpg"",""SV_PolicingMSA/NY_2726/IMG_3_2726.jpg"",""SV_PolicingMSA/NY_2726/IMG_1_2726.jpg"",""SV_PolicingMSA/NY_2726/IMG_10_2726.jpg"",""SV_PolicingMSA/NY_2726/IMG_12_2726.jpg"",""SV_PolicingMSA/NY_2726/IMG_7_2726.jpg"",""SV_PolicingMSA/NY_2726/IMG_2_2726.jpg""]","2","","","","","","2","","4","[""./rc_img/cop_condGroup_2_SafeStreets_autoscaled.png"",""./rc_img/cop_condGroup_2_CommunitySafety_autoscaled.png""]","6","",""
"sliderTrial","html-slider-response","124","1760772","0.0-124.0","","656776a7904ae00d6b91d1dd","6568acec0fcec2bb6b9c0740","11","","","","","","","","","","","","2453","[""SV_PolicingMSA/NY_2726/IMG_11_2726.jpg"",""SV_PolicingMSA/NY_2726/IMG_14_2726.jpg"",""SV_PolicingMSA/NY_2726/IMG_3_2726.jpg"",""SV_PolicingMSA/NY_2726/IMG_1_2726.jpg"",""SV_PolicingMSA/NY_2726/IMG_10_2726.jpg"",""SV_PolicingMSA/NY_2726/IMG_12_2726.jpg"",""SV_PolicingMSA/NY_2726/IMG_7_2726.jpg"",""SV_PolicingMSA/NY_2726/IMG_2_2726.jpg""]","7","","","","","","2","","4","[""./rc_img/cop_condGroup_14_CommunitySafety_autoscaled.png"",""./rc_img/cop_condGroup_14_SafeStreets_autoscaled.png""]","7","",""
"sliderTrial","html-slider-response","125","1763304","0.0-125.0","","656776a7904ae00d6b91d1dd","6568acec0fcec2bb6b9c0740","11","","","","","","","","","","","","2531","[""SV_PolicingMSA/NY_2726/IMG_11_2726.jpg"",""SV_PolicingMSA/NY_2726/IMG_14_2726.jpg"",""SV_PolicingMSA/NY_2726/IMG_3_2726.jpg"",""SV_PolicingMSA/NY_2726/IMG_1_2726.jpg"",""SV_PolicingMSA/NY_2726/IMG_10_2726.jpg"",""SV_PolicingMSA/NY_2726/IMG_12_2726.jpg"",""SV_PolicingMSA/NY_2726/IMG_7_2726.jpg"",""SV_PolicingMSA/NY_2726/IMG_2_2726.jpg""]","2","","","","","","2","","4","[""./rc_img/cop_condGroup_9_SafeStreets_autoscaled.png"",""./rc_img/cop_condGroup_9_CommunitySafety_autoscaled.png""]","6","",""
"sliderTrial","html-slider-response","126","1767236","0.0-126.0","","656776a7904ae00d6b91d1dd","6568acec0fcec2bb6b9c0740","11","","","","","","","","","","","","3931","[""SV_PolicingMSA/NY_2726/IMG_11_2726.jpg"",""SV_PolicingMSA/NY_2726/IMG_14_2726.jpg"",""SV_PolicingMSA/NY_2726/IMG_3_2726.jpg"",""SV_PolicingMSA/NY_2726/IMG_1_2726.jpg"",""SV_PolicingMSA/NY_2726/IMG_10_2726.jpg"",""SV_PolicingMSA/NY_2726/IMG_12_2726.jpg"",""SV_PolicingMSA/NY_2726/IMG_7_2726.jpg"",""SV_PolicingMSA/NY_2726/IMG_2_2726.jpg""]","5","","","","","","2","","4","[""./rc_img/cop_condGroup_12_CommunitySafety_autoscaled.png"",""./rc_img/cop_condGroup_12_SafeStreets_autoscaled.png""]","5","",""
"sliderTrial","html-slider-response","127","1770726","0.0-127.0","","656776a7904ae00d6b91d1dd","6568acec0fcec2bb6b9c0740","11","","","","","","","","","","","","3489","[""SV_PolicingMSA/NY_2726/IMG_11_2726.jpg"",""SV_PolicingMSA/NY_2726/IMG_14_2726.jpg"",""SV_PolicingMSA/NY_2726/IMG_3_2726.jpg"",""SV_PolicingMSA/NY_2726/IMG_1_2726.jpg"",""SV_PolicingMSA/NY_2726/IMG_10_2726.jpg"",""SV_PolicingMSA/NY_2726/IMG_12_2726.jpg"",""SV_PolicingMSA/NY_2726/IMG_7_2726.jpg"",""SV_PolicingMSA/NY_2726/IMG_2_2726.jpg""]","2","","","","","","2","","4","[""./rc_img/cop_condGroup_18_CommunitySafety_autoscaled.png"",""./rc_img/cop_condGroup_18_SafeStreets_autoscaled.png""]","2","",""
"before_SVSlide_prompt","html-button-response","128","1774616","0.0-128.0","","656776a7904ae00d6b91d1dd","6568acec0fcec2bb6b9c0740","11","","","","","","","","","","","","3889","Click [Next] to see the next neighborhood!","0","","","","","","","","","","","",""
"street view slide show","image-button-response","129","1775623","0.0-129.0","","656776a7904ae00d6b91d1dd","6568acec0fcec2bb6b9c0740","11","","","","","","","","","","","","null","stimulus/SV_PolicingMSA/NY_5291/IMG_14_5291.jpg","null","","","","","","4","","","","","",""
"street view slide show","image-button-response","130","1776633","0.0-130.0","","656776a7904ae00d6b91d1dd","6568acec0fcec2bb6b9c0740","11","","","","","","","","","","","","null","stimulus/SV_PolicingMSA/NY_5291/IMG_6_5291.jpg","null","","","","","","4","","","","","",""
"street view slide show","image-button-response","131","1777644","0.0-131.0","","656776a7904ae00d6b91d1dd","6568acec0fcec2bb6b9c0740","11","","","","","","","","","","","","null","stimulus/SV_PolicingMSA/NY_5291/IMG_3_5291.jpg","null","","","","","","4","","","","","",""
"street view slide show","image-button-response","132","1778650","0.0-132.0","","656776a7904ae00d6b91d1dd","6568acec0fcec2bb6b9c0740","11","","","","","","","","","","","","null","stimulus/SV_PolicingMSA/NY_5291/IMG_5_5291.jpg","null","","","","","","4","","","","","",""
"street view slide show","image-button-response","133","1779651","0.0-133.0","","656776a7904ae00d6b91d1dd","6568acec0fcec2bb6b9c0740","11","","","","","","","","","","","","null","stimulus/SV_PolicingMSA/NY_5291/IMG_8_5291.jpg","null","","","","","","4","","","","","",""
"street view slide show","image-button-response","134","1780666","0.0-134.0","","656776a7904ae00d6b91d1dd","6568acec0fcec2bb6b9c0740","11","","","","","","","","","","","","null","stimulus/SV_PolicingMSA/NY_5291/IMG_9_5291.jpg","null","","","","","","4","","","","","",""
"street view slide show","image-button-response","135","1781676","0.0-135.0","","656776a7904ae00d6b91d1dd","6568acec0fcec2bb6b9c0740","11","","","","","","","","","","","","null","stimulus/SV_PolicingMSA/NY_5291/IMG_4_5291.jpg","null","","","","","","4","","","","","",""
"street view slide show","image-button-response","136","1782688","0.0-136.0","","656776a7904ae00d6b91d1dd","6568acec0fcec2bb6b9c0740","11","","","","","","","","","","","","null","stimulus/SV_PolicingMSA/NY_5291/IMG_2_5291.jpg","null","","","","","","4","","","","","",""
"dot matrix survey1","survey","137","1793070","0.0-137.0","","656776a7904ae00d6b91d1dd","6568acec0fcec2bb6b9c0740","11","","","","","","","","","","","","10377","","{""P0_Q0"":null,""P0_Q1"":{""wealthy"":0,""safe"":1,""walkable"":2,""traditional"":1,""diverse"":1}}","","","","","","4","[]","","","","",""
"dot matrix survey2","survey","138","1799824","0.0-138.0","","656776a7904ae00d6b91d1dd","6568acec0fcec2bb6b9c0740","11","","","","","","","","","","","","6750","","{""P0_Q0"":null,""P0_Q1"":{""violence"":1,""crime"":2,""drug"":2,""schools"":1,""opportunities"":1}}","","","","","","4","[]","","","","",""
"dot matrix survey3","survey","139","1806002","0.0-139.0","","656776a7904ae00d6b91d1dd","6568acec0fcec2bb6b9c0740","11","","","","","","","","","","","","6174","","{""P0_Q0"":null,""P0_Q1"":{""movein"":0,""moveout"":4,""shopping"":1,""walk"":2,""park"":2,""school"":1}}","","","","","","4","[]","","","","",""
"sliderTrial","html-slider-response","140","1809044","0.0-140.0","","656776a7904ae00d6b91d1dd","6568acec0fcec2bb6b9c0740","11","","","","","","","","","","","","3040","[""SV_PolicingMSA/NY_5291/IMG_14_5291.jpg"",""SV_PolicingMSA/NY_5291/IMG_6_5291.jpg"",""SV_PolicingMSA/NY_5291/IMG_3_5291.jpg"",""SV_PolicingMSA/NY_5291/IMG_5_5291.jpg"",""SV_PolicingMSA/NY_5291/IMG_8_5291.jpg"",""SV_PolicingMSA/NY_5291/IMG_9_5291.jpg"",""SV_PolicingMSA/NY_5291/IMG_4_5291.jpg"",""SV_PolicingMSA/NY_5291/IMG_2_5291.jpg""]","2","","","","","","4","","4","[""./rc_img/cop_condGroup_2_SafeStreets_autoscaled.png"",""./rc_img/cop_condGroup_2_CommunitySafety_autoscaled.png""]","6","",""
"sliderTrial","html-slider-response","141","1810866","0.0-141.0","","656776a7904ae00d6b91d1dd","6568acec0fcec2bb6b9c0740","11","","","","","","","","","","","","1821","[""SV_PolicingMSA/NY_5291/IMG_14_5291.jpg"",""SV_PolicingMSA/NY_5291/IMG_6_5291.jpg"",""SV_PolicingMSA/NY_5291/IMG_3_5291.jpg"",""SV_PolicingMSA/NY_5291/IMG_5_5291.jpg"",""SV_PolicingMSA/NY_5291/IMG_8_5291.jpg"",""SV_PolicingMSA/NY_5291/IMG_9_5291.jpg"",""SV_PolicingMSA/NY_5291/IMG_4_5291.jpg"",""SV_PolicingMSA/NY_5291/IMG_2_5291.jpg""]","7","","","","","","4","","4","[""./rc_img/cop_condGroup_14_CommunitySafety_autoscaled.png"",""./rc_img/cop_condGroup_14_SafeStreets_autoscaled.png""]","7","",""
"sliderTrial","html-slider-response","142","1813081","0.0-142.0","","656776a7904ae00d6b91d1dd","6568acec0fcec2bb6b9c0740","11","","","","","","","","","","","","2213","[""SV_PolicingMSA/NY_5291/IMG_14_5291.jpg"",""SV_PolicingMSA/NY_5291/IMG_6_5291.jpg"",""SV_PolicingMSA/NY_5291/IMG_3_5291.jpg"",""SV_PolicingMSA/NY_5291/IMG_5_5291.jpg"",""SV_PolicingMSA/NY_5291/IMG_8_5291.jpg"",""SV_PolicingMSA/NY_5291/IMG_9_5291.jpg"",""SV_PolicingMSA/NY_5291/IMG_4_5291.jpg"",""SV_PolicingMSA/NY_5291/IMG_2_5291.jpg""]","6","","","","","","4","","4","[""./rc_img/cop_condGroup_9_SafeStreets_autoscaled.png"",""./rc_img/cop_condGroup_9_CommunitySafety_autoscaled.png""]","2","",""
"sliderTrial","html-slider-response","143","1814974","0.0-143.0","","656776a7904ae00d6b91d1dd","6568acec0fcec2bb6b9c0740","11","","","","","","","","","","","","1893","[""SV_PolicingMSA/NY_5291/IMG_14_5291.jpg"",""SV_PolicingMSA/NY_5291/IMG_6_5291.jpg"",""SV_PolicingMSA/NY_5291/IMG_3_5291.jpg"",""SV_PolicingMSA/NY_5291/IMG_5_5291.jpg"",""SV_PolicingMSA/NY_5291/IMG_8_5291.jpg"",""SV_PolicingMSA/NY_5291/IMG_9_5291.jpg"",""SV_PolicingMSA/NY_5291/IMG_4_5291.jpg"",""SV_PolicingMSA/NY_5291/IMG_2_5291.jpg""]","2","","","","","","4","","4","[""./rc_img/cop_condGroup_12_CommunitySafety_autoscaled.png"",""./rc_img/cop_condGroup_12_SafeStreets_autoscaled.png""]","2","",""
"sliderTrial","html-slider-response","144","1816928","0.0-144.0","","656776a7904ae00d6b91d1dd","6568acec0fcec2bb6b9c0740","11","","","","","","","","","","","","1953","[""SV_PolicingMSA/NY_5291/IMG_14_5291.jpg"",""SV_PolicingMSA/NY_5291/IMG_6_5291.jpg"",""SV_PolicingMSA/NY_5291/IMG_3_5291.jpg"",""SV_PolicingMSA/NY_5291/IMG_5_5291.jpg"",""SV_PolicingMSA/NY_5291/IMG_8_5291.jpg"",""SV_PolicingMSA/NY_5291/IMG_9_5291.jpg"",""SV_PolicingMSA/NY_5291/IMG_4_5291.jpg"",""SV_PolicingMSA/NY_5291/IMG_2_5291.jpg""]","6","","","","","","4","","4","[""./rc_img/cop_condGroup_18_CommunitySafety_autoscaled.png"",""./rc_img/cop_condGroup_18_SafeStreets_autoscaled.png""]","6","",""
"demographics","survey-html-form","145","1847881","0.0-145.0","","656776a7904ae00d6b91d1dd","6568acec0fcec2bb6b9c0740","11","","","","","","","","","","","","30952","","{""age"":""36"",""sex"":""male"",""gender"":""man"",""gender-self-describe"":"""",""zipcode"":""38122""}","","","","","","","","","","","",""
"demographics-list","survey","146","1871774","0.0-146.0","","656776a7904ae00d6b91d1dd","6568acec0fcec2bb6b9c0740","11","","","","","","","","","","","","23874","","{""P0_Q0"":null,""race-ethnicity"":[""White or of European ancestry"",""Black or of African ancestry""],""education"":""Some college"",""P1_Q0"":null,""ideology"":""Very Conservative"",""P2_Q0"":null,""num-moves"":3,""P3_Q0"":null,""social-ladder"":4}","","","","","","","[]","","","","",""
"end-survey","survey-text","147","1899464","0.0-147.0","","656776a7904ae00d6b91d1dd","6568acec0fcec2bb6b9c0740","11","","","","","","","","","","","","27683","","{""Q0"":""yah i was having technical issues it even skipped a whole set of questions""}","","","","","","","","","","","","2"
"end-survey","html-button-response","148","1902262","0.0-148.0","","656776a7904ae00d6b91d1dd","6568acec0fcec2bb6b9c0740","11","","","","","","","","","","","","2797","
    You've reached the end of the survey. <br><br> 
    <b>Do not close or refresh this window.</b><br>
    On the next page, you will be automatically redirected to Prolific. <br><br>

    <div class=""alert alert-warning""><b>
    </div>
","0","","","","","","","","","","","",""
