"task","trial_type","trial_index","time_elapsed","internal_node_id","subject_id","study_id","session_id","section","width","height","webaudio","browser","browser_version","mobile","os","fullscreen","vsync_rate","webcam","microphone","rt","stimulus","response","success","timeout","failed_images","failed_audio","failed_video","block","accuracy","slider_start","choices","standardized_response","correct","num_attention_checks_correct"
"pavlovia-init","pavlovia","0","18378","0.0-0.0","","656776a7904ae00d6b91d1dd","6568aa66b70ee7409297124d","12","","","","","","","","","","","","","","","","","","","","","","","","","",""
"browser-check","browser-check","1","19389","0.0-1.0","","656776a7904ae00d6b91d1dd","6568aa66b70ee7409297124d","12","958","1113","true","chrome","118.0.0","false","Windows 10","true","60.2","true","true","","","","","","","","","","","","","","",""
"consent","html-button-response","2","317146","0.0-2.0","","656776a7904ae00d6b91d1dd","6568aa66b70ee7409297124d","12","","","","","","","","","","","","297756","
        <div style=""font-size: 80%; max-width:700px"">
            <h2>CONSENT FORM</h2>
        
            <div style=""text-align: left"">
            <h4>DESCRIPTION</h4>
            <p>
            You will complete a short task where you give your impressions of various neighborhoods and assign individuals to those spaces, and answer some questions about your thoughts and opinions.<br>
            The University of Michigan Institutional Review Board Health Sciences and Behavioral Sciences has determined that this study is exempt from IRB oversight.
            </p>

            <h4>TIME INVOLVEMENT</h4>
            <p>Your participation will take approximately 15 minutes. You will receive $3.15 upon completion of the study.</p>
        
            <h4>RISKS AND BENEFITS</h4>
            <p>
            The risks associated with this study are minimal. The benefits which may reasonably be expected to result from this study are none. We cannot and do not guarantee or promise that you will receive any benefits from this study.
            </p>
          
            <h4>SUBJECT'S RIGHTS</h4>
            <p>
            If you have read this form and have decided to participate in this project, please understand your participation is voluntary and you have the right to withdraw your consent or discontinue participation at any time without penalty or loss of benefits to which you are otherwise entitled. The alternative is not to participate. You have the right to refuse to answer particular questions. Your individual privacy will be maintained in all published and written data resulting from the study.
            </p>

            <h4>HUMAN SUBJECT APPROVAL</h4>
            <p>
            This study is exempt from ongoing IRB review.
            </p>

            <h4>CONTACT INFORMATION</h4>
            If you have any questions, concerns or complaints about this research, its procedures, risks and benefits, contact the Protocol Director, Nicholas Camp, npcamp@umich.edu, (443) 851-6783. <br>

            If you have questions about your rights as a research participant, or wish to obtain information, ask questions or discuss any concerns about this study with someone other than the researcher(s), please contact the following:<br><br>
            University of Michigan<br>
            Health Sciences and Behavioral Sciences Institutional Review Board (IRB-HSBS)<br>
            2800 Plymouth Road<br>
            Building 520, Room 1169Ann Arbor, MI 48109-2800<br>
            Telephone: 734-936-0933 or toll free (866) 936-0933<br>
            Fax: 734-936-1852<br>
            E-mail: irbhsbs@umich.edu<br><br>

            You can also contact the University of Michigan Compliance Hotline at 1-866-990-0111. You may also print this consent form to keep.
            <br><br>
            <div class=""alert alert-warning""><b>
            Do you consent to participate in this study? If you consent to participate in this study, please click “Accept and Continue”. If you select ""Decline and Exit"", you will be exited from the survey. <br>
            </b></div>
            </div>
        </div>
    ","1","","","","","","","","","","","",""
"","preload","3","329991","0.0-3.0","","656776a7904ae00d6b91d1dd","6568aa66b70ee7409297124d","12","","","","","","","","","","","","","","","true","false","[]","[]","[]","","","","","","",""
"instructions","html-button-response","4","367885","0.0-4.0","","656776a7904ae00d6b91d1dd","6568aa66b70ee7409297124d","12","","","","","","","","","","","","37892","
        <div class=""text-container"">
        <h1>Welcome to the study!</h1>
        
        <div class=""text-left"">
            <p>
                In this study, we are interested in what people can tell about spaces from Google Street View images. <br> Google Street View takes pictures of streets used for Google Earth and Google Maps. <br>You’ll see Google Street View images of different places and answer some questions about each one.<br>
            </p>
        </div>
        <img src = ""assets/img/example.png"" width = 500px, height = auto>
        <br>
    <br>
    ","0","","","","","","","","","","","",""
"instructions","html-button-response","5","1194841","0.0-5.0","","656776a7904ae00d6b91d1dd","6568aa66b70ee7409297124d","12","","","","","","","","","","","","826955","
    <div class=""text-container"">
        <div class=""text-center"">
            <p>Please remember that your answers are completely anonymous.<br>Go with your gut response- there are no right or wrong answers!</p>
        </div>
    <br>
","0","","","","","","","","","","","",""
"before_SVSlide_prompt","html-button-response","6","1196925","0.0-6.0","","656776a7904ae00d6b91d1dd","6568aa66b70ee7409297124d","12","","","","","","","","","","","","2083","Click [Next] to see the next neighborhood!","0","","","","","","","","","","","",""
"street view slide show","image-button-response","7","1197940","0.0-7.0","","656776a7904ae00d6b91d1dd","6568aa66b70ee7409297124d","12","","","","","","","","","","","","null","stimulus/SV_PolicingMSA/NJ_545/IMG_8_545.jpg","null","","","","","","3","","","","","",""
"street view slide show","image-button-response","8","1198956","0.0-8.0","","656776a7904ae00d6b91d1dd","6568aa66b70ee7409297124d","12","","","","","","","","","","","","null","stimulus/SV_PolicingMSA/NJ_545/IMG_11_545.jpg","null","","","","","","3","","","","","",""
"street view slide show","image-button-response","9","1199964","0.0-9.0","","656776a7904ae00d6b91d1dd","6568aa66b70ee7409297124d","12","","","","","","","","","","","","null","stimulus/SV_PolicingMSA/NJ_545/IMG_7_545.jpg","null","","","","","","3","","","","","",""
"street view slide show","image-button-response","10","1200969","0.0-10.0","","656776a7904ae00d6b91d1dd","6568aa66b70ee7409297124d","12","","","","","","","","","","","","null","stimulus/SV_PolicingMSA/NJ_545/IMG_3_545.jpg","null","","","","","","3","","","","","",""
"street view slide show","image-button-response","11","1201975","0.0-11.0","","656776a7904ae00d6b91d1dd","6568aa66b70ee7409297124d","12","","","","","","","","","","","","null","stimulus/SV_PolicingMSA/NJ_545/IMG_4_545.jpg","null","","","","","","3","","","","","",""
"street view slide show","image-button-response","12","1202983","0.0-12.0","","656776a7904ae00d6b91d1dd","6568aa66b70ee7409297124d","12","","","","","","","","","","","","null","stimulus/SV_PolicingMSA/NJ_545/IMG_10_545.jpg","null","","","","","","3","","","","","",""
"street view slide show","image-button-response","13","1203991","0.0-13.0","","656776a7904ae00d6b91d1dd","6568aa66b70ee7409297124d","12","","","","","","","","","","","","null","stimulus/SV_PolicingMSA/NJ_545/IMG_6_545.jpg","null","","","","","","3","","","","","",""
"street view slide show","image-button-response","14","1204995","0.0-14.0","","656776a7904ae00d6b91d1dd","6568aa66b70ee7409297124d","12","","","","","","","","","","","","null","stimulus/SV_PolicingMSA/NJ_545/IMG_13_545.jpg","null","","","","","","3","","","","","",""
"dot matrix survey1","survey","15","1445616","0.0-15.0","","656776a7904ae00d6b91d1dd","6568aa66b70ee7409297124d","12","","","","","","","","","","","","240538","","{""P0_Q0"":null,""P0_Q1"":{""diverse"":3,""traditional"":3,""walkable"":3,""wealthy"":3,""safe"":3}}","","","","","","3","[]","","","","",""
"dot matrix survey2","survey","16","1449279","0.0-16.0","","656776a7904ae00d6b91d1dd","6568aa66b70ee7409297124d","12","","","","","","","","","","","","3644","","{""P0_Q0"":null,""P0_Q1"":{""violence"":3,""crime"":3,""drug"":3,""schools"":3,""opportunities"":3}}","","","","","","3","[]","","","","",""
"dot matrix survey3","survey","17","1455109","0.0-17.0","","656776a7904ae00d6b91d1dd","6568aa66b70ee7409297124d","12","","","","","","","","","","","","5809","","{""P0_Q0"":null,""P0_Q1"":{""movein"":3,""moveout"":3,""shopping"":3,""walk"":3,""park"":3,""school"":3}}","","","","","","3","[]","","","","",""
"sliderTrial","html-slider-response","18","1465122","0.0-18.0","","656776a7904ae00d6b91d1dd","6568aa66b70ee7409297124d","12","","","","","","","","","","","","10011","[""SV_PolicingMSA/NJ_545/IMG_8_545.jpg"",""SV_PolicingMSA/NJ_545/IMG_11_545.jpg"",""SV_PolicingMSA/NJ_545/IMG_7_545.jpg"",""SV_PolicingMSA/NJ_545/IMG_3_545.jpg"",""SV_PolicingMSA/NJ_545/IMG_4_545.jpg"",""SV_PolicingMSA/NJ_545/IMG_10_545.jpg"",""SV_PolicingMSA/NJ_545/IMG_6_545.jpg"",""SV_PolicingMSA/NJ_545/IMG_13_545.jpg""]","4","","","","","","3","","4","[""./rc_img/cop_condGroup_11_SafeStreets_autoscaled.png"",""./rc_img/cop_condGroup_11_CommunitySafety_autoscaled.png""]","4","",""
"sliderTrial","html-slider-response","19","1466119","0.0-19.0","","656776a7904ae00d6b91d1dd","6568aa66b70ee7409297124d","12","","","","","","","","","","","","995","[""SV_PolicingMSA/NJ_545/IMG_8_545.jpg"",""SV_PolicingMSA/NJ_545/IMG_11_545.jpg"",""SV_PolicingMSA/NJ_545/IMG_7_545.jpg"",""SV_PolicingMSA/NJ_545/IMG_3_545.jpg"",""SV_PolicingMSA/NJ_545/IMG_4_545.jpg"",""SV_PolicingMSA/NJ_545/IMG_10_545.jpg"",""SV_PolicingMSA/NJ_545/IMG_6_545.jpg"",""SV_PolicingMSA/NJ_545/IMG_13_545.jpg""]","4","","","","","","3","","4","[""./rc_img/cop_condGroup_10_CommunitySafety_autoscaled.png"",""./rc_img/cop_condGroup_10_SafeStreets_autoscaled.png""]","4","",""
"sliderTrial","html-slider-response","20","1467267","0.0-20.0","","656776a7904ae00d6b91d1dd","6568aa66b70ee7409297124d","12","","","","","","","","","","","","1144","[""SV_PolicingMSA/NJ_545/IMG_8_545.jpg"",""SV_PolicingMSA/NJ_545/IMG_11_545.jpg"",""SV_PolicingMSA/NJ_545/IMG_7_545.jpg"",""SV_PolicingMSA/NJ_545/IMG_3_545.jpg"",""SV_PolicingMSA/NJ_545/IMG_4_545.jpg"",""SV_PolicingMSA/NJ_545/IMG_10_545.jpg"",""SV_PolicingMSA/NJ_545/IMG_6_545.jpg"",""SV_PolicingMSA/NJ_545/IMG_13_545.jpg""]","4","","","","","","3","","4","[""./rc_img/cop_condGroup_9_CommunitySafety_autoscaled.png"",""./rc_img/cop_condGroup_9_SafeStreets_autoscaled.png""]","4","",""
"sliderTrial","html-slider-response","21","1468190","0.0-21.0","","656776a7904ae00d6b91d1dd","6568aa66b70ee7409297124d","12","","","","","","","","","","","","921","[""SV_PolicingMSA/NJ_545/IMG_8_545.jpg"",""SV_PolicingMSA/NJ_545/IMG_11_545.jpg"",""SV_PolicingMSA/NJ_545/IMG_7_545.jpg"",""SV_PolicingMSA/NJ_545/IMG_3_545.jpg"",""SV_PolicingMSA/NJ_545/IMG_4_545.jpg"",""SV_PolicingMSA/NJ_545/IMG_10_545.jpg"",""SV_PolicingMSA/NJ_545/IMG_6_545.jpg"",""SV_PolicingMSA/NJ_545/IMG_13_545.jpg""]","4","","","","","","3","","4","[""./rc_img/cop_condGroup_18_CommunitySafety_autoscaled.png"",""./rc_img/cop_condGroup_18_SafeStreets_autoscaled.png""]","4","",""
"sliderTrial","html-slider-response","22","1468932","0.0-22.0","","656776a7904ae00d6b91d1dd","6568aa66b70ee7409297124d","12","","","","","","","","","","","","740","[""SV_PolicingMSA/NJ_545/IMG_8_545.jpg"",""SV_PolicingMSA/NJ_545/IMG_11_545.jpg"",""SV_PolicingMSA/NJ_545/IMG_7_545.jpg"",""SV_PolicingMSA/NJ_545/IMG_3_545.jpg"",""SV_PolicingMSA/NJ_545/IMG_4_545.jpg"",""SV_PolicingMSA/NJ_545/IMG_10_545.jpg"",""SV_PolicingMSA/NJ_545/IMG_6_545.jpg"",""SV_PolicingMSA/NJ_545/IMG_13_545.jpg""]","4","","","","","","3","","4","[""./rc_img/cop_condGroup_12_CommunitySafety_autoscaled.png"",""./rc_img/cop_condGroup_12_SafeStreets_autoscaled.png""]","4","",""
"before_SVSlide_prompt","html-button-response","23","1675525","0.0-23.0","","656776a7904ae00d6b91d1dd","6568aa66b70ee7409297124d","12","","","","","","","","","","","","206592","Click [Next] to see the next neighborhood!","0","","","","","","","","","","","",""
"street view slide show","image-button-response","24","1676532","0.0-24.0","","656776a7904ae00d6b91d1dd","6568aa66b70ee7409297124d","12","","","","","","","","","","","","null","stimulus/SV_PolicingMSA/NJ_880/IMG_14_880.jpg","null","","","","","","2","","","","","",""
"street view slide show","image-button-response","25","1677536","0.0-25.0","","656776a7904ae00d6b91d1dd","6568aa66b70ee7409297124d","12","","","","","","","","","","","","null","stimulus/SV_PolicingMSA/NJ_880/IMG_11_880.jpg","null","","","","","","2","","","","","",""
"street view slide show","image-button-response","26","1678552","0.0-26.0","","656776a7904ae00d6b91d1dd","6568aa66b70ee7409297124d","12","","","","","","","","","","","","null","stimulus/SV_PolicingMSA/NJ_880/IMG_12_880.jpg","null","","","","","","2","","","","","",""
"street view slide show","image-button-response","27","1679563","0.0-27.0","","656776a7904ae00d6b91d1dd","6568aa66b70ee7409297124d","12","","","","","","","","","","","","null","stimulus/SV_PolicingMSA/NJ_880/IMG_7_880.jpg","null","","","","","","2","","","","","",""
"street view slide show","image-button-response","28","1680570","0.0-28.0","","656776a7904ae00d6b91d1dd","6568aa66b70ee7409297124d","12","","","","","","","","","","","","null","stimulus/SV_PolicingMSA/NJ_880/IMG_9_880.jpg","null","","","","","","2","","","","","",""
"street view slide show","image-button-response","29","1681579","0.0-29.0","","656776a7904ae00d6b91d1dd","6568aa66b70ee7409297124d","12","","","","","","","","","","","","null","stimulus/SV_PolicingMSA/NJ_880/IMG_13_880.jpg","null","","","","","","2","","","","","",""
"street view slide show","image-button-response","30","1683433","0.0-30.0","","656776a7904ae00d6b91d1dd","6568aa66b70ee7409297124d","12","","","","","","","","","","","","null","stimulus/SV_PolicingMSA/NJ_880/IMG_1_880.jpg","null","","","","","","2","","","","","",""
"street view slide show","image-button-response","31","1685433","0.0-31.0","","656776a7904ae00d6b91d1dd","6568aa66b70ee7409297124d","12","","","","","","","","","","","","null","stimulus/SV_PolicingMSA/NJ_880/IMG_6_880.jpg","null","","","","","","2","","","","","",""
"dot matrix survey1","survey","32","1706234","0.0-32.0","","656776a7904ae00d6b91d1dd","6568aa66b70ee7409297124d","12","","","","","","","","","","","","20784","","{""P0_Q0"":null,""P0_Q1"":{""diverse"":3,""traditional"":3,""walkable"":3,""safe"":3,""wealthy"":3}}","","","","","","2","[]","","","","",""
"dot matrix survey2","survey","33","1834105","0.0-33.0","","656776a7904ae00d6b91d1dd","6568aa66b70ee7409297124d","12","","","","","","","","","","","","127861","","{""P0_Q0"":null,""P0_Q1"":{""opportunities"":3,""schools"":3,""drug"":3,""crime"":3,""violence"":3}}","","","","","","2","[]","","","","",""
"dot matrix survey3","survey","34","1838761","0.0-34.0","","656776a7904ae00d6b91d1dd","6568aa66b70ee7409297124d","12","","","","","","","","","","","","4647","","{""P0_Q0"":null,""P0_Q1"":{""school"":3,""park"":3,""walk"":3,""shopping"":3,""movein"":3,""moveout"":3}}","","","","","","2","[]","","","","",""
"sliderTrial","html-slider-response","35","1840541","0.0-35.0","","656776a7904ae00d6b91d1dd","6568aa66b70ee7409297124d","12","","","","","","","","","","","","1779","[""SV_PolicingMSA/NJ_880/IMG_14_880.jpg"",""SV_PolicingMSA/NJ_880/IMG_11_880.jpg"",""SV_PolicingMSA/NJ_880/IMG_12_880.jpg"",""SV_PolicingMSA/NJ_880/IMG_7_880.jpg"",""SV_PolicingMSA/NJ_880/IMG_9_880.jpg"",""SV_PolicingMSA/NJ_880/IMG_13_880.jpg"",""SV_PolicingMSA/NJ_880/IMG_1_880.jpg"",""SV_PolicingMSA/NJ_880/IMG_6_880.jpg""]","4","","","","","","2","","4","[""./rc_img/cop_condGroup_3_SafeStreets_autoscaled.png"",""./rc_img/cop_condGroup_3_CommunitySafety_autoscaled.png""]","4","",""
"sliderTrial","html-slider-response","36","1841508","0.0-36.0","","656776a7904ae00d6b91d1dd","6568aa66b70ee7409297124d","12","","","","","","","","","","","","965","[""SV_PolicingMSA/NJ_880/IMG_14_880.jpg"",""SV_PolicingMSA/NJ_880/IMG_11_880.jpg"",""SV_PolicingMSA/NJ_880/IMG_12_880.jpg"",""SV_PolicingMSA/NJ_880/IMG_7_880.jpg"",""SV_PolicingMSA/NJ_880/IMG_9_880.jpg"",""SV_PolicingMSA/NJ_880/IMG_13_880.jpg"",""SV_PolicingMSA/NJ_880/IMG_1_880.jpg"",""SV_PolicingMSA/NJ_880/IMG_6_880.jpg""]","4","","","","","","2","","4","[""./rc_img/cop_condGroup_19_CommunitySafety_autoscaled.png"",""./rc_img/cop_condGroup_19_SafeStreets_autoscaled.png""]","4","",""
"sliderTrial","html-slider-response","37","1842890","0.0-37.0","","656776a7904ae00d6b91d1dd","6568aa66b70ee7409297124d","12","","","","","","","","","","","","1380","[""SV_PolicingMSA/NJ_880/IMG_14_880.jpg"",""SV_PolicingMSA/NJ_880/IMG_11_880.jpg"",""SV_PolicingMSA/NJ_880/IMG_12_880.jpg"",""SV_PolicingMSA/NJ_880/IMG_7_880.jpg"",""SV_PolicingMSA/NJ_880/IMG_9_880.jpg"",""SV_PolicingMSA/NJ_880/IMG_13_880.jpg"",""SV_PolicingMSA/NJ_880/IMG_1_880.jpg"",""SV_PolicingMSA/NJ_880/IMG_6_880.jpg""]","4","","","","","","2","","4","[""./rc_img/cop_condGroup_14_CommunitySafety_autoscaled.png"",""./rc_img/cop_condGroup_14_SafeStreets_autoscaled.png""]","4","",""
"sliderTrial","html-slider-response","38","1843850","0.0-38.0","","656776a7904ae00d6b91d1dd","6568aa66b70ee7409297124d","12","","","","","","","","","","","","959","[""SV_PolicingMSA/NJ_880/IMG_14_880.jpg"",""SV_PolicingMSA/NJ_880/IMG_11_880.jpg"",""SV_PolicingMSA/NJ_880/IMG_12_880.jpg"",""SV_PolicingMSA/NJ_880/IMG_7_880.jpg"",""SV_PolicingMSA/NJ_880/IMG_9_880.jpg"",""SV_PolicingMSA/NJ_880/IMG_13_880.jpg"",""SV_PolicingMSA/NJ_880/IMG_1_880.jpg"",""SV_PolicingMSA/NJ_880/IMG_6_880.jpg""]","4","","","","","","2","","4","[""./rc_img/cop_condGroup_7_CommunitySafety_autoscaled.png"",""./rc_img/cop_condGroup_7_SafeStreets_autoscaled.png""]","4","",""
"sliderTrial","html-slider-response","39","1844712","0.0-39.0","","656776a7904ae00d6b91d1dd","6568aa66b70ee7409297124d","12","","","","","","","","","","","","859","[""SV_PolicingMSA/NJ_880/IMG_14_880.jpg"",""SV_PolicingMSA/NJ_880/IMG_11_880.jpg"",""SV_PolicingMSA/NJ_880/IMG_12_880.jpg"",""SV_PolicingMSA/NJ_880/IMG_7_880.jpg"",""SV_PolicingMSA/NJ_880/IMG_9_880.jpg"",""SV_PolicingMSA/NJ_880/IMG_13_880.jpg"",""SV_PolicingMSA/NJ_880/IMG_1_880.jpg"",""SV_PolicingMSA/NJ_880/IMG_6_880.jpg""]","4","","","","","","2","","4","[""./rc_img/cop_condGroup_13_SafeStreets_autoscaled.png"",""./rc_img/cop_condGroup_13_CommunitySafety_autoscaled.png""]","4","",""
"before_SVSlide_prompt","html-button-response","40","1845920","0.0-40.0","","656776a7904ae00d6b91d1dd","6568aa66b70ee7409297124d","12","","","","","","","","","","","","1207","Click [Next] to see the next neighborhood!","0","","","","","","","","","","","",""
"street view slide show","image-button-response","41","1846931","0.0-41.0","","656776a7904ae00d6b91d1dd","6568aa66b70ee7409297124d","12","","","","","","","","","","","","null","stimulus/SV_PolicingMSA/NJ_1937/IMG_12_1937.jpg","null","","","","","","5","","","","","",""
"street view slide show","image-button-response","42","1847947","0.0-42.0","","656776a7904ae00d6b91d1dd","6568aa66b70ee7409297124d","12","","","","","","","","","","","","null","stimulus/SV_PolicingMSA/NJ_1937/IMG_11_1937.jpg","null","","","","","","5","","","","","",""
"street view slide show","image-button-response","43","1848951","0.0-43.0","","656776a7904ae00d6b91d1dd","6568aa66b70ee7409297124d","12","","","","","","","","","","","","null","stimulus/SV_PolicingMSA/NJ_1937/IMG_7_1937.jpg","null","","","","","","5","","","","","",""
"street view slide show","image-button-response","44","1849955","0.0-44.0","","656776a7904ae00d6b91d1dd","6568aa66b70ee7409297124d","12","","","","","","","","","","","","null","stimulus/SV_PolicingMSA/NJ_1937/IMG_4_1937.jpg","null","","","","","","5","","","","","",""
"street view slide show","image-button-response","45","1850968","0.0-45.0","","656776a7904ae00d6b91d1dd","6568aa66b70ee7409297124d","12","","","","","","","","","","","","null","stimulus/SV_PolicingMSA/NJ_1937/IMG_6_1937.jpg","null","","","","","","5","","","","","",""
"street view slide show","image-button-response","46","1851973","0.0-46.0","","656776a7904ae00d6b91d1dd","6568aa66b70ee7409297124d","12","","","","","","","","","","","","null","stimulus/SV_PolicingMSA/NJ_1937/IMG_14_1937.jpg","null","","","","","","5","","","","","",""
"street view slide show","image-button-response","47","1852979","0.0-47.0","","656776a7904ae00d6b91d1dd","6568aa66b70ee7409297124d","12","","","","","","","","","","","","null","stimulus/SV_PolicingMSA/NJ_1937/IMG_2_1937.jpg","null","","","","","","5","","","","","",""
"street view slide show","image-button-response","48","1853982","0.0-48.0","","656776a7904ae00d6b91d1dd","6568aa66b70ee7409297124d","12","","","","","","","","","","","","null","stimulus/SV_PolicingMSA/NJ_1937/IMG_5_1937.jpg","null","","","","","","5","","","","","",""
"dot matrix survey1","survey","49","1865223","0.0-49.0","","656776a7904ae00d6b91d1dd","6568aa66b70ee7409297124d","12","","","","","","","","","","","","11221","","{""P0_Q0"":null,""P0_Q1"":{""diverse"":3,""traditional"":3,""walkable"":3,""safe"":3,""wealthy"":3}}","","","","","","5","[]","","","","",""
"dot matrix survey2","survey","50","1876094","0.0-50.0","","656776a7904ae00d6b91d1dd","6568aa66b70ee7409297124d","12","","","","","","","","","","","","10863","","{""P0_Q0"":null,""P0_Q1"":{""opportunities"":3,""schools"":3,""drug"":3,""crime"":3,""violence"":3}}","","","","","","5","[]","","","","",""
"dot matrix survey3","survey","51","1881561","0.0-51.0","","656776a7904ae00d6b91d1dd","6568aa66b70ee7409297124d","12","","","","","","","","","","","","5461","","{""P0_Q0"":null,""P0_Q1"":{""school"":3,""walk"":3,""park"":3,""shopping"":3,""moveout"":3,""movein"":3}}","","","","","","5","[]","","","","",""
"sliderTrial","html-slider-response","52","1882957","0.0-52.0","","656776a7904ae00d6b91d1dd","6568aa66b70ee7409297124d","12","","","","","","","","","","","","1394","[""SV_PolicingMSA/NJ_1937/IMG_12_1937.jpg"",""SV_PolicingMSA/NJ_1937/IMG_11_1937.jpg"",""SV_PolicingMSA/NJ_1937/IMG_7_1937.jpg"",""SV_PolicingMSA/NJ_1937/IMG_4_1937.jpg"",""SV_PolicingMSA/NJ_1937/IMG_6_1937.jpg"",""SV_PolicingMSA/NJ_1937/IMG_14_1937.jpg"",""SV_PolicingMSA/NJ_1937/IMG_2_1937.jpg"",""SV_PolicingMSA/NJ_1937/IMG_5_1937.jpg""]","4","","","","","","5","","4","[""./rc_img/cop_condGroup_11_SafeStreets_autoscaled.png"",""./rc_img/cop_condGroup_11_CommunitySafety_autoscaled.png""]","4","",""
"sliderTrial","html-slider-response","53","1884028","0.0-53.0","","656776a7904ae00d6b91d1dd","6568aa66b70ee7409297124d","12","","","","","","","","","","","","1070","[""SV_PolicingMSA/NJ_1937/IMG_12_1937.jpg"",""SV_PolicingMSA/NJ_1937/IMG_11_1937.jpg"",""SV_PolicingMSA/NJ_1937/IMG_7_1937.jpg"",""SV_PolicingMSA/NJ_1937/IMG_4_1937.jpg"",""SV_PolicingMSA/NJ_1937/IMG_6_1937.jpg"",""SV_PolicingMSA/NJ_1937/IMG_14_1937.jpg"",""SV_PolicingMSA/NJ_1937/IMG_2_1937.jpg"",""SV_PolicingMSA/NJ_1937/IMG_5_1937.jpg""]","4","","","","","","5","","4","[""./rc_img/cop_condGroup_10_CommunitySafety_autoscaled.png"",""./rc_img/cop_condGroup_10_SafeStreets_autoscaled.png""]","4","",""
"sliderTrial","html-slider-response","54","1884988","0.0-54.0","","656776a7904ae00d6b91d1dd","6568aa66b70ee7409297124d","12","","","","","","","","","","","","958","[""SV_PolicingMSA/NJ_1937/IMG_12_1937.jpg"",""SV_PolicingMSA/NJ_1937/IMG_11_1937.jpg"",""SV_PolicingMSA/NJ_1937/IMG_7_1937.jpg"",""SV_PolicingMSA/NJ_1937/IMG_4_1937.jpg"",""SV_PolicingMSA/NJ_1937/IMG_6_1937.jpg"",""SV_PolicingMSA/NJ_1937/IMG_14_1937.jpg"",""SV_PolicingMSA/NJ_1937/IMG_2_1937.jpg"",""SV_PolicingMSA/NJ_1937/IMG_5_1937.jpg""]","4","","","","","","5","","4","[""./rc_img/cop_condGroup_9_CommunitySafety_autoscaled.png"",""./rc_img/cop_condGroup_9_SafeStreets_autoscaled.png""]","4","",""
"sliderTrial","html-slider-response","55","1885927","0.0-55.0","","656776a7904ae00d6b91d1dd","6568aa66b70ee7409297124d","12","","","","","","","","","","","","935","[""SV_PolicingMSA/NJ_1937/IMG_12_1937.jpg"",""SV_PolicingMSA/NJ_1937/IMG_11_1937.jpg"",""SV_PolicingMSA/NJ_1937/IMG_7_1937.jpg"",""SV_PolicingMSA/NJ_1937/IMG_4_1937.jpg"",""SV_PolicingMSA/NJ_1937/IMG_6_1937.jpg"",""SV_PolicingMSA/NJ_1937/IMG_14_1937.jpg"",""SV_PolicingMSA/NJ_1937/IMG_2_1937.jpg"",""SV_PolicingMSA/NJ_1937/IMG_5_1937.jpg""]","4","","","","","","5","","4","[""./rc_img/cop_condGroup_18_CommunitySafety_autoscaled.png"",""./rc_img/cop_condGroup_18_SafeStreets_autoscaled.png""]","4","",""
"sliderTrial","html-slider-response","56","1886774","0.0-56.0","","656776a7904ae00d6b91d1dd","6568aa66b70ee7409297124d","12","","","","","","","","","","","","845","[""SV_PolicingMSA/NJ_1937/IMG_12_1937.jpg"",""SV_PolicingMSA/NJ_1937/IMG_11_1937.jpg"",""SV_PolicingMSA/NJ_1937/IMG_7_1937.jpg"",""SV_PolicingMSA/NJ_1937/IMG_4_1937.jpg"",""SV_PolicingMSA/NJ_1937/IMG_6_1937.jpg"",""SV_PolicingMSA/NJ_1937/IMG_14_1937.jpg"",""SV_PolicingMSA/NJ_1937/IMG_2_1937.jpg"",""SV_PolicingMSA/NJ_1937/IMG_5_1937.jpg""]","4","","","","","","5","","4","[""./rc_img/cop_condGroup_12_CommunitySafety_autoscaled.png"",""./rc_img/cop_condGroup_12_SafeStreets_autoscaled.png""]","4","",""
"before_SVSlide_prompt","html-button-response","57","1888034","0.0-57.0","","656776a7904ae00d6b91d1dd","6568aa66b70ee7409297124d","12","","","","","","","","","","","","1259","Click [Next] to see the next neighborhood!","0","","","","","","","","","","","",""
"street view slide show","image-button-response","58","1889040","0.0-58.0","","656776a7904ae00d6b91d1dd","6568aa66b70ee7409297124d","12","","","","","","","","","","","","null","stimulus/SV_PolicingMSA/NJ_1936/IMG_7_1936.jpg","null","","","","","","4","","","","","",""
"street view slide show","image-button-response","59","1890055","0.0-59.0","","656776a7904ae00d6b91d1dd","6568aa66b70ee7409297124d","12","","","","","","","","","","","","null","stimulus/SV_PolicingMSA/NJ_1936/IMG_8_1936.jpg","null","","","","","","4","","","","","",""
"street view slide show","image-button-response","60","1891061","0.0-60.0","","656776a7904ae00d6b91d1dd","6568aa66b70ee7409297124d","12","","","","","","","","","","","","null","stimulus/SV_PolicingMSA/NJ_1936/IMG_2_1936.jpg","null","","","","","","4","","","","","",""
"street view slide show","image-button-response","61","1892068","0.0-61.0","","656776a7904ae00d6b91d1dd","6568aa66b70ee7409297124d","12","","","","","","","","","","","","null","stimulus/SV_PolicingMSA/NJ_1936/IMG_3_1936.jpg","null","","","","","","4","","","","","",""
"street view slide show","image-button-response","62","1893082","0.0-62.0","","656776a7904ae00d6b91d1dd","6568aa66b70ee7409297124d","12","","","","","","","","","","","","null","stimulus/SV_PolicingMSA/NJ_1936/IMG_13_1936.jpg","null","","","","","","4","","","","","",""
"street view slide show","image-button-response","63","1894087","0.0-63.0","","656776a7904ae00d6b91d1dd","6568aa66b70ee7409297124d","12","","","","","","","","","","","","null","stimulus/SV_PolicingMSA/NJ_1936/IMG_4_1936.jpg","null","","","","","","4","","","","","",""
"street view slide show","image-button-response","64","1895105","0.0-64.0","","656776a7904ae00d6b91d1dd","6568aa66b70ee7409297124d","12","","","","","","","","","","","","null","stimulus/SV_PolicingMSA/NJ_1936/IMG_10_1936.jpg","null","","","","","","4","","","","","",""
"street view slide show","image-button-response","65","1896119","0.0-65.0","","656776a7904ae00d6b91d1dd","6568aa66b70ee7409297124d","12","","","","","","","","","","","","null","stimulus/SV_PolicingMSA/NJ_1936/IMG_1_1936.jpg","null","","","","","","4","","","","","",""
"dot matrix survey1","survey","66","1902997","0.0-66.0","","656776a7904ae00d6b91d1dd","6568aa66b70ee7409297124d","12","","","","","","","","","","","","6841","","{""P0_Q0"":null,""P0_Q1"":{""diverse"":3,""walkable"":3,""safe"":3,""wealthy"":3,""traditional"":3}}","","","","","","4","[]","","","","",""
"dot matrix survey2","survey","67","1908406","0.0-67.0","","656776a7904ae00d6b91d1dd","6568aa66b70ee7409297124d","12","","","","","","","","","","","","5401","","{""P0_Q0"":null,""P0_Q1"":{""opportunities"":3,""schools"":3,""drug"":3,""violence"":3,""crime"":3}}","","","","","","4","[]","","","","",""
"dot matrix survey3","survey","68","1913196","0.0-68.0","","656776a7904ae00d6b91d1dd","6568aa66b70ee7409297124d","12","","","","","","","","","","","","4782","","{""P0_Q0"":null,""P0_Q1"":{""school"":3,""park"":3,""walk"":3,""shopping"":3,""moveout"":3,""movein"":3}}","","","","","","4","[]","","","","",""
"sliderTrial","html-slider-response","69","1956826","0.0-69.0","","656776a7904ae00d6b91d1dd","6568aa66b70ee7409297124d","12","","","","","","","","","","","","43629","[""SV_PolicingMSA/NJ_1936/IMG_7_1936.jpg"",""SV_PolicingMSA/NJ_1936/IMG_8_1936.jpg"",""SV_PolicingMSA/NJ_1936/IMG_2_1936.jpg"",""SV_PolicingMSA/NJ_1936/IMG_3_1936.jpg"",""SV_PolicingMSA/NJ_1936/IMG_13_1936.jpg"",""SV_PolicingMSA/NJ_1936/IMG_4_1936.jpg"",""SV_PolicingMSA/NJ_1936/IMG_10_1936.jpg"",""SV_PolicingMSA/NJ_1936/IMG_1_1936.jpg""]","4","","","","","","4","","4","[""./rc_img/cop_condGroup_5_CommunitySafety_autoscaled.png"",""./rc_img/cop_condGroup_5_SafeStreets_autoscaled.png""]","4","",""
"sliderTrial","html-slider-response","70","1958708","0.0-70.0","","656776a7904ae00d6b91d1dd","6568aa66b70ee7409297124d","12","","","","","","","","","","","","1880","[""SV_PolicingMSA/NJ_1936/IMG_7_1936.jpg"",""SV_PolicingMSA/NJ_1936/IMG_8_1936.jpg"",""SV_PolicingMSA/NJ_1936/IMG_2_1936.jpg"",""SV_PolicingMSA/NJ_1936/IMG_3_1936.jpg"",""SV_PolicingMSA/NJ_1936/IMG_13_1936.jpg"",""SV_PolicingMSA/NJ_1936/IMG_4_1936.jpg"",""SV_PolicingMSA/NJ_1936/IMG_10_1936.jpg"",""SV_PolicingMSA/NJ_1936/IMG_1_1936.jpg""]","4","","","","","","4","","4","[""./rc_img/cop_condGroup_2_SafeStreets_autoscaled.png"",""./rc_img/cop_condGroup_2_CommunitySafety_autoscaled.png""]","4","",""
"sliderTrial","html-slider-response","71","1961498","0.0-71.0","","656776a7904ae00d6b91d1dd","6568aa66b70ee7409297124d","12","","","","","","","","","","","","2788","[""SV_PolicingMSA/NJ_1936/IMG_7_1936.jpg"",""SV_PolicingMSA/NJ_1936/IMG_8_1936.jpg"",""SV_PolicingMSA/NJ_1936/IMG_2_1936.jpg"",""SV_PolicingMSA/NJ_1936/IMG_3_1936.jpg"",""SV_PolicingMSA/NJ_1936/IMG_13_1936.jpg"",""SV_PolicingMSA/NJ_1936/IMG_4_1936.jpg"",""SV_PolicingMSA/NJ_1936/IMG_10_1936.jpg"",""SV_PolicingMSA/NJ_1936/IMG_1_1936.jpg""]","4","","","","","","4","","4","[""./rc_img/cop_condGroup_1_SafeStreets_autoscaled.png"",""./rc_img/cop_condGroup_1_CommunitySafety_autoscaled.png""]","4","",""
"sliderTrial","html-slider-response","72","1962293","0.0-72.0","","656776a7904ae00d6b91d1dd","6568aa66b70ee7409297124d","12","","","","","","","","","","","","794","[""SV_PolicingMSA/NJ_1936/IMG_7_1936.jpg"",""SV_PolicingMSA/NJ_1936/IMG_8_1936.jpg"",""SV_PolicingMSA/NJ_1936/IMG_2_1936.jpg"",""SV_PolicingMSA/NJ_1936/IMG_3_1936.jpg"",""SV_PolicingMSA/NJ_1936/IMG_13_1936.jpg"",""SV_PolicingMSA/NJ_1936/IMG_4_1936.jpg"",""SV_PolicingMSA/NJ_1936/IMG_10_1936.jpg"",""SV_PolicingMSA/NJ_1936/IMG_1_1936.jpg""]","4","","","","","","4","","4","[""./rc_img/cop_condGroup_16_CommunitySafety_autoscaled.png"",""./rc_img/cop_condGroup_16_SafeStreets_autoscaled.png""]","4","",""
"sliderTrial","html-slider-response","73","1963066","0.0-73.0","","656776a7904ae00d6b91d1dd","6568aa66b70ee7409297124d","12","","","","","","","","","","","","771","[""SV_PolicingMSA/NJ_1936/IMG_7_1936.jpg"",""SV_PolicingMSA/NJ_1936/IMG_8_1936.jpg"",""SV_PolicingMSA/NJ_1936/IMG_2_1936.jpg"",""SV_PolicingMSA/NJ_1936/IMG_3_1936.jpg"",""SV_PolicingMSA/NJ_1936/IMG_13_1936.jpg"",""SV_PolicingMSA/NJ_1936/IMG_4_1936.jpg"",""SV_PolicingMSA/NJ_1936/IMG_10_1936.jpg"",""SV_PolicingMSA/NJ_1936/IMG_1_1936.jpg""]","4","","","","","","4","","4","[""./rc_img/cop_condGroup_20_SafeStreets_autoscaled.png"",""./rc_img/cop_condGroup_20_CommunitySafety_autoscaled.png""]","4","",""
"half-way","html-button-response","74","1964507","0.0-74.0","","656776a7904ae00d6b91d1dd","6568aa66b70ee7409297124d","12","","","","","","","","","","","","1439","
    <h3>You are now half way through the study.</h3>
    <p>Please take a quick, 15-second break before you continue.</p>
    <img src='assets/img/countdown-15.gif'>
    <p>The study will automatically advance forward after the countdown is complete. <br> However, you may click ""Next"" to advance forward now if you wish.</p>
    ","0","","","","","","","","","","","",""
"before_SVSlide_prompt","html-button-response","75","1969786","0.0-75.0","","656776a7904ae00d6b91d1dd","6568aa66b70ee7409297124d","12","","","","","","","","","","","","5278","Click [Next] to see the next neighborhood!","0","","","","","","","","","","","",""
"street view slide show","image-button-response","76","1970791","0.0-76.0","","656776a7904ae00d6b91d1dd","6568aa66b70ee7409297124d","12","","","","","","","","","","","","null","stimulus/SV_PolicingMSA/NJ_21/IMG_5_21.jpg","null","","","","","","0","","","","","",""
"street view slide show","image-button-response","77","1971804","0.0-77.0","","656776a7904ae00d6b91d1dd","6568aa66b70ee7409297124d","12","","","","","","","","","","","","null","stimulus/SV_PolicingMSA/NJ_21/IMG_10_21.jpg","null","","","","","","0","","","","","",""
"street view slide show","image-button-response","78","1972816","0.0-78.0","","656776a7904ae00d6b91d1dd","6568aa66b70ee7409297124d","12","","","","","","","","","","","","null","stimulus/SV_PolicingMSA/NJ_21/IMG_2_21.jpg","null","","","","","","0","","","","","",""
"street view slide show","image-button-response","79","1973820","0.0-79.0","","656776a7904ae00d6b91d1dd","6568aa66b70ee7409297124d","12","","","","","","","","","","","","null","stimulus/SV_PolicingMSA/NJ_21/IMG_11_21.jpg","null","","","","","","0","","","","","",""
"street view slide show","image-button-response","80","1974837","0.0-80.0","","656776a7904ae00d6b91d1dd","6568aa66b70ee7409297124d","12","","","","","","","","","","","","null","stimulus/SV_PolicingMSA/NJ_21/IMG_1_21.jpg","null","","","","","","0","","","","","",""
"street view slide show","image-button-response","81","1975846","0.0-81.0","","656776a7904ae00d6b91d1dd","6568aa66b70ee7409297124d","12","","","","","","","","","","","","null","stimulus/SV_PolicingMSA/NJ_21/IMG_7_21.jpg","null","","","","","","0","","","","","",""
"street view slide show","image-button-response","82","1976859","0.0-82.0","","656776a7904ae00d6b91d1dd","6568aa66b70ee7409297124d","12","","","","","","","","","","","","null","stimulus/SV_PolicingMSA/NJ_21/IMG_0_21.jpg","null","","","","","","0","","","","","",""
"street view slide show","image-button-response","83","1977865","0.0-83.0","","656776a7904ae00d6b91d1dd","6568aa66b70ee7409297124d","12","","","","","","","","","","","","null","stimulus/SV_PolicingMSA/NJ_21/IMG_4_21.jpg","null","","","","","","0","","","","","",""
"dot matrix survey1","survey","84","1991919","0.0-84.0","","656776a7904ae00d6b91d1dd","6568aa66b70ee7409297124d","12","","","","","","","","","","","","14041","","{""P0_Q0"":null,""P0_Q1"":{""diverse"":3,""traditional"":3,""walkable"":3,""safe"":3,""wealthy"":3}}","","","","","","0","[]","","","","",""
"dot matrix survey2","survey","85","2006638","0.0-85.0","","656776a7904ae00d6b91d1dd","6568aa66b70ee7409297124d","12","","","","","","","","","","","","14711","","{""P0_Q0"":null,""P0_Q1"":{""opportunities"":3,""schools"":3,""drug"":3,""violence"":3,""crime"":3}}","","","","","","0","[]","","","","",""
"dot matrix survey3","survey","86","2012283","0.0-86.0","","656776a7904ae00d6b91d1dd","6568aa66b70ee7409297124d","12","","","","","","","","","","","","5635","","{""P0_Q0"":null,""P0_Q1"":{""school"":3,""park"":3,""shopping"":3,""walk"":3,""moveout"":3,""movein"":3}}","","","","","","0","[]","","","","",""
"sliderTrial","html-slider-response","87","2013378","0.0-87.0","","656776a7904ae00d6b91d1dd","6568aa66b70ee7409297124d","12","","","","","","","","","","","","1094","[""SV_PolicingMSA/NJ_21/IMG_5_21.jpg"",""SV_PolicingMSA/NJ_21/IMG_10_21.jpg"",""SV_PolicingMSA/NJ_21/IMG_2_21.jpg"",""SV_PolicingMSA/NJ_21/IMG_11_21.jpg"",""SV_PolicingMSA/NJ_21/IMG_1_21.jpg"",""SV_PolicingMSA/NJ_21/IMG_7_21.jpg"",""SV_PolicingMSA/NJ_21/IMG_0_21.jpg"",""SV_PolicingMSA/NJ_21/IMG_4_21.jpg""]","4","","","","","","0","","4","[""./rc_img/cop_condGroup_3_SafeStreets_autoscaled.png"",""./rc_img/cop_condGroup_3_CommunitySafety_autoscaled.png""]","4","",""
"sliderTrial","html-slider-response","88","2014143","0.0-88.0","","656776a7904ae00d6b91d1dd","6568aa66b70ee7409297124d","12","","","","","","","","","","","","764","[""SV_PolicingMSA/NJ_21/IMG_5_21.jpg"",""SV_PolicingMSA/NJ_21/IMG_10_21.jpg"",""SV_PolicingMSA/NJ_21/IMG_2_21.jpg"",""SV_PolicingMSA/NJ_21/IMG_11_21.jpg"",""SV_PolicingMSA/NJ_21/IMG_1_21.jpg"",""SV_PolicingMSA/NJ_21/IMG_7_21.jpg"",""SV_PolicingMSA/NJ_21/IMG_0_21.jpg"",""SV_PolicingMSA/NJ_21/IMG_4_21.jpg""]","4","","","","","","0","","4","[""./rc_img/cop_condGroup_19_CommunitySafety_autoscaled.png"",""./rc_img/cop_condGroup_19_SafeStreets_autoscaled.png""]","4","",""
"sliderTrial","html-slider-response","89","2014833","0.0-89.0","","656776a7904ae00d6b91d1dd","6568aa66b70ee7409297124d","12","","","","","","","","","","","","688","[""SV_PolicingMSA/NJ_21/IMG_5_21.jpg"",""SV_PolicingMSA/NJ_21/IMG_10_21.jpg"",""SV_PolicingMSA/NJ_21/IMG_2_21.jpg"",""SV_PolicingMSA/NJ_21/IMG_11_21.jpg"",""SV_PolicingMSA/NJ_21/IMG_1_21.jpg"",""SV_PolicingMSA/NJ_21/IMG_7_21.jpg"",""SV_PolicingMSA/NJ_21/IMG_0_21.jpg"",""SV_PolicingMSA/NJ_21/IMG_4_21.jpg""]","4","","","","","","0","","4","[""./rc_img/cop_condGroup_14_CommunitySafety_autoscaled.png"",""./rc_img/cop_condGroup_14_SafeStreets_autoscaled.png""]","4","",""
"sliderTrial_attention","html-slider-response","90","2024837","0.0-90.0","","656776a7904ae00d6b91d1dd","6568aa66b70ee7409297124d","12","","","","","","","","","","","","null","[""SV_PolicingMSA/NJ_21/IMG_5_21.jpg"",""SV_PolicingMSA/NJ_21/IMG_10_21.jpg"",""SV_PolicingMSA/NJ_21/IMG_2_21.jpg"",""SV_PolicingMSA/NJ_21/IMG_11_21.jpg"",""SV_PolicingMSA/NJ_21/IMG_1_21.jpg"",""SV_PolicingMSA/NJ_21/IMG_7_21.jpg"",""SV_PolicingMSA/NJ_21/IMG_0_21.jpg"",""SV_PolicingMSA/NJ_21/IMG_4_21.jpg""]","null","","","","","","0","","4","[""./assets/img/attnchk.png"",""./assets/img/attnchk.png""]","","true",""
"sliderTrial","html-slider-response","91","2044655","0.0-91.0","","656776a7904ae00d6b91d1dd","6568aa66b70ee7409297124d","12","","","","","","","","","","","","19805","[""SV_PolicingMSA/NJ_21/IMG_5_21.jpg"",""SV_PolicingMSA/NJ_21/IMG_10_21.jpg"",""SV_PolicingMSA/NJ_21/IMG_2_21.jpg"",""SV_PolicingMSA/NJ_21/IMG_11_21.jpg"",""SV_PolicingMSA/NJ_21/IMG_1_21.jpg"",""SV_PolicingMSA/NJ_21/IMG_7_21.jpg"",""SV_PolicingMSA/NJ_21/IMG_0_21.jpg"",""SV_PolicingMSA/NJ_21/IMG_4_21.jpg""]","4","","","","","","0","","4","[""./rc_img/cop_condGroup_7_CommunitySafety_autoscaled.png"",""./rc_img/cop_condGroup_7_SafeStreets_autoscaled.png""]","4","",""
"sliderTrial","html-slider-response","92","2045105","0.0-92.0","","656776a7904ae00d6b91d1dd","6568aa66b70ee7409297124d","12","","","","","","","","","","","","448","[""SV_PolicingMSA/NJ_21/IMG_5_21.jpg"",""SV_PolicingMSA/NJ_21/IMG_10_21.jpg"",""SV_PolicingMSA/NJ_21/IMG_2_21.jpg"",""SV_PolicingMSA/NJ_21/IMG_11_21.jpg"",""SV_PolicingMSA/NJ_21/IMG_1_21.jpg"",""SV_PolicingMSA/NJ_21/IMG_7_21.jpg"",""SV_PolicingMSA/NJ_21/IMG_0_21.jpg"",""SV_PolicingMSA/NJ_21/IMG_4_21.jpg""]","4","","","","","","0","","4","[""./rc_img/cop_condGroup_13_SafeStreets_autoscaled.png"",""./rc_img/cop_condGroup_13_CommunitySafety_autoscaled.png""]","4","",""
"before_SVSlide_prompt","html-button-response","93","2046297","0.0-93.0","","656776a7904ae00d6b91d1dd","6568aa66b70ee7409297124d","12","","","","","","","","","","","","1192","Click [Next] to see the next neighborhood!","0","","","","","","","","","","","",""
"street view slide show","image-button-response","94","2047305","0.0-94.0","","656776a7904ae00d6b91d1dd","6568aa66b70ee7409297124d","12","","","","","","","","","","","","null","stimulus/SV_PolicingMSA/NJ_500/IMG_8_500.jpg","null","","","","","","2","","","","","",""
"street view slide show","image-button-response","95","2048317","0.0-95.0","","656776a7904ae00d6b91d1dd","6568aa66b70ee7409297124d","12","","","","","","","","","","","","null","stimulus/SV_PolicingMSA/NJ_500/IMG_14_500.jpg","null","","","","","","2","","","","","",""
"street view slide show","image-button-response","96","2049321","0.0-96.0","","656776a7904ae00d6b91d1dd","6568aa66b70ee7409297124d","12","","","","","","","","","","","","null","stimulus/SV_PolicingMSA/NJ_500/IMG_4_500.jpg","null","","","","","","2","","","","","",""
"street view slide show","image-button-response","97","2050339","0.0-97.0","","656776a7904ae00d6b91d1dd","6568aa66b70ee7409297124d","12","","","","","","","","","","","","null","stimulus/SV_PolicingMSA/NJ_500/IMG_10_500.jpg","null","","","","","","2","","","","","",""
"street view slide show","image-button-response","98","2051354","0.0-98.0","","656776a7904ae00d6b91d1dd","6568aa66b70ee7409297124d","12","","","","","","","","","","","","null","stimulus/SV_PolicingMSA/NJ_500/IMG_0_500.jpg","null","","","","","","2","","","","","",""
"street view slide show","image-button-response","99","2052371","0.0-99.0","","656776a7904ae00d6b91d1dd","6568aa66b70ee7409297124d","12","","","","","","","","","","","","null","stimulus/SV_PolicingMSA/NJ_500/IMG_12_500.jpg","null","","","","","","2","","","","","",""
"street view slide show","image-button-response","100","2053381","0.0-100.0","","656776a7904ae00d6b91d1dd","6568aa66b70ee7409297124d","12","","","","","","","","","","","","null","stimulus/SV_PolicingMSA/NJ_500/IMG_7_500.jpg","null","","","","","","2","","","","","",""
"street view slide show","image-button-response","101","2054399","0.0-101.0","","656776a7904ae00d6b91d1dd","6568aa66b70ee7409297124d","12","","","","","","","","","","","","null","stimulus/SV_PolicingMSA/NJ_500/IMG_11_500.jpg","null","","","","","","2","","","","","",""
"dot matrix survey1","survey","102","2162506","0.0-102.0","","656776a7904ae00d6b91d1dd","6568aa66b70ee7409297124d","12","","","","","","","","","","","","108072","","{""P0_Q0"":null,""P0_Q1"":{""traditional"":3,""diverse"":3,""walkable"":3,""safe"":3,""wealthy"":3}}","","","","","","2","[]","","","","",""
"dot matrix survey2","survey","103","2259703","0.0-103.0","","656776a7904ae00d6b91d1dd","6568aa66b70ee7409297124d","12","","","","","","","","","","","","97188","","{""P0_Q0"":null,""P0_Q1"":{""opportunities"":3,""schools"":3,""drug"":3,""crime"":3,""violence"":3}}","","","","","","2","[]","","","","",""
"dot matrix survey3","survey","104","2265374","0.0-104.0","","656776a7904ae00d6b91d1dd","6568aa66b70ee7409297124d","12","","","","","","","","","","","","5664","","{""P0_Q0"":null,""P0_Q1"":{""school"":3,""park"":3,""walk"":3,""shopping"":3,""moveout"":3,""movein"":3}}","","","","","","2","[]","","","","",""
"sliderTrial","html-slider-response","105","2266626","0.0-105.0","","656776a7904ae00d6b91d1dd","6568aa66b70ee7409297124d","12","","","","","","","","","","","","1250","[""SV_PolicingMSA/NJ_500/IMG_8_500.jpg"",""SV_PolicingMSA/NJ_500/IMG_14_500.jpg"",""SV_PolicingMSA/NJ_500/IMG_4_500.jpg"",""SV_PolicingMSA/NJ_500/IMG_10_500.jpg"",""SV_PolicingMSA/NJ_500/IMG_0_500.jpg"",""SV_PolicingMSA/NJ_500/IMG_12_500.jpg"",""SV_PolicingMSA/NJ_500/IMG_7_500.jpg"",""SV_PolicingMSA/NJ_500/IMG_11_500.jpg""]","4","","","","","","2","","4","[""./rc_img/cop_condGroup_5_CommunitySafety_autoscaled.png"",""./rc_img/cop_condGroup_5_SafeStreets_autoscaled.png""]","4","",""
"sliderTrial","html-slider-response","106","2267233","0.0-106.0","","656776a7904ae00d6b91d1dd","6568aa66b70ee7409297124d","12","","","","","","","","","","","","606","[""SV_PolicingMSA/NJ_500/IMG_8_500.jpg"",""SV_PolicingMSA/NJ_500/IMG_14_500.jpg"",""SV_PolicingMSA/NJ_500/IMG_4_500.jpg"",""SV_PolicingMSA/NJ_500/IMG_10_500.jpg"",""SV_PolicingMSA/NJ_500/IMG_0_500.jpg"",""SV_PolicingMSA/NJ_500/IMG_12_500.jpg"",""SV_PolicingMSA/NJ_500/IMG_7_500.jpg"",""SV_PolicingMSA/NJ_500/IMG_11_500.jpg""]","4","","","","","","2","","4","[""./rc_img/cop_condGroup_2_SafeStreets_autoscaled.png"",""./rc_img/cop_condGroup_2_CommunitySafety_autoscaled.png""]","4","",""
"sliderTrial","html-slider-response","107","2267811","0.0-107.0","","656776a7904ae00d6b91d1dd","6568aa66b70ee7409297124d","12","","","","","","","","","","","","576","[""SV_PolicingMSA/NJ_500/IMG_8_500.jpg"",""SV_PolicingMSA/NJ_500/IMG_14_500.jpg"",""SV_PolicingMSA/NJ_500/IMG_4_500.jpg"",""SV_PolicingMSA/NJ_500/IMG_10_500.jpg"",""SV_PolicingMSA/NJ_500/IMG_0_500.jpg"",""SV_PolicingMSA/NJ_500/IMG_12_500.jpg"",""SV_PolicingMSA/NJ_500/IMG_7_500.jpg"",""SV_PolicingMSA/NJ_500/IMG_11_500.jpg""]","4","","","","","","2","","4","[""./rc_img/cop_condGroup_1_SafeStreets_autoscaled.png"",""./rc_img/cop_condGroup_1_CommunitySafety_autoscaled.png""]","4","",""
"sliderTrial","html-slider-response","108","2268554","0.0-108.0","","656776a7904ae00d6b91d1dd","6568aa66b70ee7409297124d","12","","","","","","","","","","","","741","[""SV_PolicingMSA/NJ_500/IMG_8_500.jpg"",""SV_PolicingMSA/NJ_500/IMG_14_500.jpg"",""SV_PolicingMSA/NJ_500/IMG_4_500.jpg"",""SV_PolicingMSA/NJ_500/IMG_10_500.jpg"",""SV_PolicingMSA/NJ_500/IMG_0_500.jpg"",""SV_PolicingMSA/NJ_500/IMG_12_500.jpg"",""SV_PolicingMSA/NJ_500/IMG_7_500.jpg"",""SV_PolicingMSA/NJ_500/IMG_11_500.jpg""]","4","","","","","","2","","4","[""./rc_img/cop_condGroup_16_CommunitySafety_autoscaled.png"",""./rc_img/cop_condGroup_16_SafeStreets_autoscaled.png""]","4","",""
"sliderTrial","html-slider-response","109","2269304","0.0-109.0","","656776a7904ae00d6b91d1dd","6568aa66b70ee7409297124d","12","","","","","","","","","","","","748","[""SV_PolicingMSA/NJ_500/IMG_8_500.jpg"",""SV_PolicingMSA/NJ_500/IMG_14_500.jpg"",""SV_PolicingMSA/NJ_500/IMG_4_500.jpg"",""SV_PolicingMSA/NJ_500/IMG_10_500.jpg"",""SV_PolicingMSA/NJ_500/IMG_0_500.jpg"",""SV_PolicingMSA/NJ_500/IMG_12_500.jpg"",""SV_PolicingMSA/NJ_500/IMG_7_500.jpg"",""SV_PolicingMSA/NJ_500/IMG_11_500.jpg""]","4","","","","","","2","","4","[""./rc_img/cop_condGroup_20_SafeStreets_autoscaled.png"",""./rc_img/cop_condGroup_20_CommunitySafety_autoscaled.png""]","4","",""
"before_SVSlide_prompt","html-button-response","110","2270436","0.0-110.0","","656776a7904ae00d6b91d1dd","6568aa66b70ee7409297124d","12","","","","","","","","","","","","1131","Click [Next] to see the next neighborhood!","0","","","","","","","","","","","",""
"street view slide show","image-button-response","111","2271454","0.0-111.0","","656776a7904ae00d6b91d1dd","6568aa66b70ee7409297124d","12","","","","","","","","","","","","null","stimulus/SV_PolicingMSA/NJ_1050/IMG_9_1050.jpg","null","","","","","","1","","","","","",""
"street view slide show","image-button-response","112","2272462","0.0-112.0","","656776a7904ae00d6b91d1dd","6568aa66b70ee7409297124d","12","","","","","","","","","","","","null","stimulus/SV_PolicingMSA/NJ_1050/IMG_2_1050.jpg","null","","","","","","1","","","","","",""
"street view slide show","image-button-response","113","2273478","0.0-113.0","","656776a7904ae00d6b91d1dd","6568aa66b70ee7409297124d","12","","","","","","","","","","","","null","stimulus/SV_PolicingMSA/NJ_1050/IMG_10_1050.jpg","null","","","","","","1","","","","","",""
"street view slide show","image-button-response","114","2274496","0.0-114.0","","656776a7904ae00d6b91d1dd","6568aa66b70ee7409297124d","12","","","","","","","","","","","","null","stimulus/SV_PolicingMSA/NJ_1050/IMG_12_1050.jpg","null","","","","","","1","","","","","",""
"street view slide show","image-button-response","115","2275506","0.0-115.0","","656776a7904ae00d6b91d1dd","6568aa66b70ee7409297124d","12","","","","","","","","","","","","null","stimulus/SV_PolicingMSA/NJ_1050/IMG_14_1050.jpg","null","","","","","","1","","","","","",""
"street view slide show","image-button-response","116","2276521","0.0-116.0","","656776a7904ae00d6b91d1dd","6568aa66b70ee7409297124d","12","","","","","","","","","","","","null","stimulus/SV_PolicingMSA/NJ_1050/IMG_1_1050.jpg","null","","","","","","1","","","","","",""
"street view slide show","image-button-response","117","2277532","0.0-117.0","","656776a7904ae00d6b91d1dd","6568aa66b70ee7409297124d","12","","","","","","","","","","","","null","stimulus/SV_PolicingMSA/NJ_1050/IMG_3_1050.jpg","null","","","","","","1","","","","","",""
"street view slide show","image-button-response","118","2278547","0.0-118.0","","656776a7904ae00d6b91d1dd","6568aa66b70ee7409297124d","12","","","","","","","","","","","","null","stimulus/SV_PolicingMSA/NJ_1050/IMG_7_1050.jpg","null","","","","","","1","","","","","",""
"dot matrix survey1","survey","119","2306684","0.0-119.0","","656776a7904ae00d6b91d1dd","6568aa66b70ee7409297124d","12","","","","","","","","","","","","28103","","{""P0_Q0"":null,""P0_Q1"":{""diverse"":3,""traditional"":3,""walkable"":3,""wealthy"":3,""safe"":3}}","","","","","","1","[]","","","","",""
"dot matrix survey2","survey","120","2310221","0.0-120.0","","656776a7904ae00d6b91d1dd","6568aa66b70ee7409297124d","12","","","","","","","","","","","","3529","","{""P0_Q0"":null,""P0_Q1"":{""opportunities"":3,""schools"":3,""drug"":3,""crime"":3,""violence"":3}}","","","","","","1","[]","","","","",""
"dot matrix survey3","survey","121","2314690","0.0-121.0","","656776a7904ae00d6b91d1dd","6568aa66b70ee7409297124d","12","","","","","","","","","","","","4461","","{""P0_Q0"":null,""P0_Q1"":{""school"":3,""park"":3,""walk"":3,""shopping"":3,""moveout"":3,""movein"":3}}","","","","","","1","[]","","","","",""
"sliderTrial","html-slider-response","122","2315730","0.0-122.0","","656776a7904ae00d6b91d1dd","6568aa66b70ee7409297124d","12","","","","","","","","","","","","1039","[""SV_PolicingMSA/NJ_1050/IMG_9_1050.jpg"",""SV_PolicingMSA/NJ_1050/IMG_2_1050.jpg"",""SV_PolicingMSA/NJ_1050/IMG_10_1050.jpg"",""SV_PolicingMSA/NJ_1050/IMG_12_1050.jpg"",""SV_PolicingMSA/NJ_1050/IMG_14_1050.jpg"",""SV_PolicingMSA/NJ_1050/IMG_1_1050.jpg"",""SV_PolicingMSA/NJ_1050/IMG_3_1050.jpg"",""SV_PolicingMSA/NJ_1050/IMG_7_1050.jpg""]","4","","","","","","1","","4","[""./rc_img/cop_condGroup_15_SafeStreets_autoscaled.png"",""./rc_img/cop_condGroup_15_CommunitySafety_autoscaled.png""]","4","",""
"sliderTrial_attention","html-slider-response","123","2325738","0.0-123.0","","656776a7904ae00d6b91d1dd","6568aa66b70ee7409297124d","12","","","","","","","","","","","","null","[""SV_PolicingMSA/NJ_1050/IMG_9_1050.jpg"",""SV_PolicingMSA/NJ_1050/IMG_2_1050.jpg"",""SV_PolicingMSA/NJ_1050/IMG_10_1050.jpg"",""SV_PolicingMSA/NJ_1050/IMG_12_1050.jpg"",""SV_PolicingMSA/NJ_1050/IMG_14_1050.jpg"",""SV_PolicingMSA/NJ_1050/IMG_1_1050.jpg"",""SV_PolicingMSA/NJ_1050/IMG_3_1050.jpg"",""SV_PolicingMSA/NJ_1050/IMG_7_1050.jpg""]","null","","","","","","1","","4","[""./assets/img/attnchk.png"",""./assets/img/attnchk.png""]","","true",""
"sliderTrial","html-slider-response","124","2333739","0.0-124.0","","656776a7904ae00d6b91d1dd","6568aa66b70ee7409297124d","12","","","","","","","","","","","","7993","[""SV_PolicingMSA/NJ_1050/IMG_9_1050.jpg"",""SV_PolicingMSA/NJ_1050/IMG_2_1050.jpg"",""SV_PolicingMSA/NJ_1050/IMG_10_1050.jpg"",""SV_PolicingMSA/NJ_1050/IMG_12_1050.jpg"",""SV_PolicingMSA/NJ_1050/IMG_14_1050.jpg"",""SV_PolicingMSA/NJ_1050/IMG_1_1050.jpg"",""SV_PolicingMSA/NJ_1050/IMG_3_1050.jpg"",""SV_PolicingMSA/NJ_1050/IMG_7_1050.jpg""]","4","","","","","","1","","4","[""./rc_img/cop_condGroup_17_CommunitySafety_autoscaled.png"",""./rc_img/cop_condGroup_17_SafeStreets_autoscaled.png""]","4","",""
"sliderTrial","html-slider-response","125","2334196","0.0-125.0","","656776a7904ae00d6b91d1dd","6568aa66b70ee7409297124d","12","","","","","","","","","","","","455","[""SV_PolicingMSA/NJ_1050/IMG_9_1050.jpg"",""SV_PolicingMSA/NJ_1050/IMG_2_1050.jpg"",""SV_PolicingMSA/NJ_1050/IMG_10_1050.jpg"",""SV_PolicingMSA/NJ_1050/IMG_12_1050.jpg"",""SV_PolicingMSA/NJ_1050/IMG_14_1050.jpg"",""SV_PolicingMSA/NJ_1050/IMG_1_1050.jpg"",""SV_PolicingMSA/NJ_1050/IMG_3_1050.jpg"",""SV_PolicingMSA/NJ_1050/IMG_7_1050.jpg""]","4","","","","","","1","","4","[""./rc_img/cop_condGroup_6_SafeStreets_autoscaled.png"",""./rc_img/cop_condGroup_6_CommunitySafety_autoscaled.png""]","4","",""
"sliderTrial","html-slider-response","126","2334474","0.0-126.0","","656776a7904ae00d6b91d1dd","6568aa66b70ee7409297124d","12","","","","","","","","","","","","276","[""SV_PolicingMSA/NJ_1050/IMG_9_1050.jpg"",""SV_PolicingMSA/NJ_1050/IMG_2_1050.jpg"",""SV_PolicingMSA/NJ_1050/IMG_10_1050.jpg"",""SV_PolicingMSA/NJ_1050/IMG_12_1050.jpg"",""SV_PolicingMSA/NJ_1050/IMG_14_1050.jpg"",""SV_PolicingMSA/NJ_1050/IMG_1_1050.jpg"",""SV_PolicingMSA/NJ_1050/IMG_3_1050.jpg"",""SV_PolicingMSA/NJ_1050/IMG_7_1050.jpg""]","4","","","","","","1","","4","[""./rc_img/cop_condGroup_4_SafeStreets_autoscaled.png"",""./rc_img/cop_condGroup_4_CommunitySafety_autoscaled.png""]","4","",""
"sliderTrial","html-slider-response","127","2334676","0.0-127.0","","656776a7904ae00d6b91d1dd","6568aa66b70ee7409297124d","12","","","","","","","","","","","","200","[""SV_PolicingMSA/NJ_1050/IMG_9_1050.jpg"",""SV_PolicingMSA/NJ_1050/IMG_2_1050.jpg"",""SV_PolicingMSA/NJ_1050/IMG_10_1050.jpg"",""SV_PolicingMSA/NJ_1050/IMG_12_1050.jpg"",""SV_PolicingMSA/NJ_1050/IMG_14_1050.jpg"",""SV_PolicingMSA/NJ_1050/IMG_1_1050.jpg"",""SV_PolicingMSA/NJ_1050/IMG_3_1050.jpg"",""SV_PolicingMSA/NJ_1050/IMG_7_1050.jpg""]","4","","","","","","1","","4","[""./rc_img/cop_condGroup_8_CommunitySafety_autoscaled.png"",""./rc_img/cop_condGroup_8_SafeStreets_autoscaled.png""]","4","",""
"before_SVSlide_prompt","html-button-response","128","2335659","0.0-128.0","","656776a7904ae00d6b91d1dd","6568aa66b70ee7409297124d","12","","","","","","","","","","","","982","Click [Next] to see the next neighborhood!","0","","","","","","","","","","","",""
"street view slide show","image-button-response","129","2336668","0.0-129.0","","656776a7904ae00d6b91d1dd","6568aa66b70ee7409297124d","12","","","","","","","","","","","","null","stimulus/SV_PolicingMSA/NJ_358/IMG_4_358.jpg","null","","","","","","3","","","","","",""
"street view slide show","image-button-response","130","2337678","0.0-130.0","","656776a7904ae00d6b91d1dd","6568aa66b70ee7409297124d","12","","","","","","","","","","","","null","stimulus/SV_PolicingMSA/NJ_358/IMG_6_358.jpg","null","","","","","","3","","","","","",""
"street view slide show","image-button-response","131","2338694","0.0-131.0","","656776a7904ae00d6b91d1dd","6568aa66b70ee7409297124d","12","","","","","","","","","","","","null","stimulus/SV_PolicingMSA/NJ_358/IMG_2_358.jpg","null","","","","","","3","","","","","",""
"street view slide show","image-button-response","132","2339710","0.0-132.0","","656776a7904ae00d6b91d1dd","6568aa66b70ee7409297124d","12","","","","","","","","","","","","null","stimulus/SV_PolicingMSA/NJ_358/IMG_8_358.jpg","null","","","","","","3","","","","","",""
"street view slide show","image-button-response","133","2340725","0.0-133.0","","656776a7904ae00d6b91d1dd","6568aa66b70ee7409297124d","12","","","","","","","","","","","","null","stimulus/SV_PolicingMSA/NJ_358/IMG_13_358.jpg","null","","","","","","3","","","","","",""
"street view slide show","image-button-response","134","2341740","0.0-134.0","","656776a7904ae00d6b91d1dd","6568aa66b70ee7409297124d","12","","","","","","","","","","","","null","stimulus/SV_PolicingMSA/NJ_358/IMG_5_358.jpg","null","","","","","","3","","","","","",""
"street view slide show","image-button-response","135","2342749","0.0-135.0","","656776a7904ae00d6b91d1dd","6568aa66b70ee7409297124d","12","","","","","","","","","","","","null","stimulus/SV_PolicingMSA/NJ_358/IMG_12_358.jpg","null","","","","","","3","","","","","",""
"street view slide show","image-button-response","136","2343762","0.0-136.0","","656776a7904ae00d6b91d1dd","6568aa66b70ee7409297124d","12","","","","","","","","","","","","null","stimulus/SV_PolicingMSA/NJ_358/IMG_9_358.jpg","null","","","","","","3","","","","","",""
"dot matrix survey1","survey","137","2349383","0.0-137.0","","656776a7904ae00d6b91d1dd","6568aa66b70ee7409297124d","12","","","","","","","","","","","","5587","","{""P0_Q0"":null,""P0_Q1"":{""diverse"":3,""traditional"":3,""walkable"":3,""safe"":3,""wealthy"":3}}","","","","","","3","[]","","","","",""
"dot matrix survey2","survey","138","2353021","0.0-138.0","","656776a7904ae00d6b91d1dd","6568aa66b70ee7409297124d","12","","","","","","","","","","","","3631","","{""P0_Q0"":null,""P0_Q1"":{""opportunities"":3,""schools"":3,""drug"":3,""crime"":3,""violence"":3}}","","","","","","3","[]","","","","",""
"dot matrix survey3","survey","139","2359487","0.0-139.0","","656776a7904ae00d6b91d1dd","6568aa66b70ee7409297124d","12","","","","","","","","","","","","6458","","{""P0_Q0"":null,""P0_Q1"":{""school"":3,""park"":3,""shopping"":3,""moveout"":3,""movein"":3,""walk"":3}}","","","","","","3","[]","","","","",""
"sliderTrial","html-slider-response","140","2361453","0.0-140.0","","656776a7904ae00d6b91d1dd","6568aa66b70ee7409297124d","12","","","","","","","","","","","","1964","[""SV_PolicingMSA/NJ_358/IMG_4_358.jpg"",""SV_PolicingMSA/NJ_358/IMG_6_358.jpg"",""SV_PolicingMSA/NJ_358/IMG_2_358.jpg"",""SV_PolicingMSA/NJ_358/IMG_8_358.jpg"",""SV_PolicingMSA/NJ_358/IMG_13_358.jpg"",""SV_PolicingMSA/NJ_358/IMG_5_358.jpg"",""SV_PolicingMSA/NJ_358/IMG_12_358.jpg"",""SV_PolicingMSA/NJ_358/IMG_9_358.jpg""]","4","","","","","","3","","4","[""./rc_img/cop_condGroup_15_SafeStreets_autoscaled.png"",""./rc_img/cop_condGroup_15_CommunitySafety_autoscaled.png""]","4","",""
"sliderTrial","html-slider-response","141","2362278","0.0-141.0","","656776a7904ae00d6b91d1dd","6568aa66b70ee7409297124d","12","","","","","","","","","","","","823","[""SV_PolicingMSA/NJ_358/IMG_4_358.jpg"",""SV_PolicingMSA/NJ_358/IMG_6_358.jpg"",""SV_PolicingMSA/NJ_358/IMG_2_358.jpg"",""SV_PolicingMSA/NJ_358/IMG_8_358.jpg"",""SV_PolicingMSA/NJ_358/IMG_13_358.jpg"",""SV_PolicingMSA/NJ_358/IMG_5_358.jpg"",""SV_PolicingMSA/NJ_358/IMG_12_358.jpg"",""SV_PolicingMSA/NJ_358/IMG_9_358.jpg""]","4","","","","","","3","","4","[""./rc_img/cop_condGroup_17_CommunitySafety_autoscaled.png"",""./rc_img/cop_condGroup_17_SafeStreets_autoscaled.png""]","4","",""
"sliderTrial","html-slider-response","142","2363275","0.0-142.0","","656776a7904ae00d6b91d1dd","6568aa66b70ee7409297124d","12","","","","","","","","","","","","994","[""SV_PolicingMSA/NJ_358/IMG_4_358.jpg"",""SV_PolicingMSA/NJ_358/IMG_6_358.jpg"",""SV_PolicingMSA/NJ_358/IMG_2_358.jpg"",""SV_PolicingMSA/NJ_358/IMG_8_358.jpg"",""SV_PolicingMSA/NJ_358/IMG_13_358.jpg"",""SV_PolicingMSA/NJ_358/IMG_5_358.jpg"",""SV_PolicingMSA/NJ_358/IMG_12_358.jpg"",""SV_PolicingMSA/NJ_358/IMG_9_358.jpg""]","4","","","","","","3","","4","[""./rc_img/cop_condGroup_6_SafeStreets_autoscaled.png"",""./rc_img/cop_condGroup_6_CommunitySafety_autoscaled.png""]","4","",""
"sliderTrial","html-slider-response","143","2364310","0.0-143.0","","656776a7904ae00d6b91d1dd","6568aa66b70ee7409297124d","12","","","","","","","","","","","","1033","[""SV_PolicingMSA/NJ_358/IMG_4_358.jpg"",""SV_PolicingMSA/NJ_358/IMG_6_358.jpg"",""SV_PolicingMSA/NJ_358/IMG_2_358.jpg"",""SV_PolicingMSA/NJ_358/IMG_8_358.jpg"",""SV_PolicingMSA/NJ_358/IMG_13_358.jpg"",""SV_PolicingMSA/NJ_358/IMG_5_358.jpg"",""SV_PolicingMSA/NJ_358/IMG_12_358.jpg"",""SV_PolicingMSA/NJ_358/IMG_9_358.jpg""]","4","","","","","","3","","4","[""./rc_img/cop_condGroup_4_SafeStreets_autoscaled.png"",""./rc_img/cop_condGroup_4_CommunitySafety_autoscaled.png""]","4","",""
"sliderTrial","html-slider-response","144","2365150","0.0-144.0","","656776a7904ae00d6b91d1dd","6568aa66b70ee7409297124d","12","","","","","","","","","","","","839","[""SV_PolicingMSA/NJ_358/IMG_4_358.jpg"",""SV_PolicingMSA/NJ_358/IMG_6_358.jpg"",""SV_PolicingMSA/NJ_358/IMG_2_358.jpg"",""SV_PolicingMSA/NJ_358/IMG_8_358.jpg"",""SV_PolicingMSA/NJ_358/IMG_13_358.jpg"",""SV_PolicingMSA/NJ_358/IMG_5_358.jpg"",""SV_PolicingMSA/NJ_358/IMG_12_358.jpg"",""SV_PolicingMSA/NJ_358/IMG_9_358.jpg""]","4","","","","","","3","","4","[""./rc_img/cop_condGroup_8_CommunitySafety_autoscaled.png"",""./rc_img/cop_condGroup_8_SafeStreets_autoscaled.png""]","4","",""
"demographics","survey-html-form","145","2374887","0.0-145.0","","656776a7904ae00d6b91d1dd","6568aa66b70ee7409297124d","12","","","","","","","","","","","","9735","","{""age"":""63"",""sex"":""female"",""gender"":""woman"",""gender-self-describe"":"""",""zipcode"":""20149""}","","","","","","","","","","","",""
"demographics-list","survey","146","2388549","0.0-146.0","","656776a7904ae00d6b91d1dd","6568aa66b70ee7409297124d","12","","","","","","","","","","","","13632","","{""P0_Q0"":null,""race-ethnicity"":[""White or of European ancestry""],""education"":""Graduate & professional degrees"",""P1_Q0"":null,""ideology"":""Conservative"",""P2_Q0"":null,""num-moves"":2,""P3_Q0"":null,""social-ladder"":5}","","","","","","","[]","","","","",""
"end-survey","survey-text","147","2389578","0.0-147.0","","656776a7904ae00d6b91d1dd","6568aa66b70ee7409297124d","12","","","","","","","","","","","","1022","","{""Q0"":""""}","","","","","","","","","","","","2"
"end-survey","html-button-response","148","2390613","0.0-148.0","","656776a7904ae00d6b91d1dd","6568aa66b70ee7409297124d","12","","","","","","","","","","","","1033","
    You've reached the end of the survey. <br><br> 
    <b>Do not close or refresh this window.</b><br>
    On the next page, you will be automatically redirected to Prolific. <br><br>

    <div class=""alert alert-warning""><b>
    </div>
","0","","","","","","","","","","","",""
