"task","trial_type","trial_index","time_elapsed","internal_node_id","subject_id","study_id","session_id","section","width","height","webaudio","browser","browser_version","mobile","os","fullscreen","vsync_rate","webcam","microphone","rt","stimulus","response","success","timeout","failed_images","failed_audio","failed_video","block","accuracy","slider_start","choices","standardized_response","correct","num_attention_checks_correct"
"pavlovia-init","pavlovia","0","1073","0.0-0.0","","656776a7904ae00d6b91d1dd","6568ad05c66989571b2bc25a","9","","","","","","","","","","","","","","","","","","","","","","","","","",""
"browser-check","browser-check","1","2047","0.0-1.0","","656776a7904ae00d6b91d1dd","6568ad05c66989571b2bc25a","9","1920","947","true","firefox","119.0.0","false","Windows 10","true","61.86","false","false","","","","","","","","","","","","","","",""
"consent","html-button-response","2","20383","0.0-2.0","","656776a7904ae00d6b91d1dd","6568ad05c66989571b2bc25a","9","","","","","","","","","","","","18333","
        <div style=""font-size: 80%; max-width:700px"">
            <h2>CONSENT FORM</h2>
        
            <div style=""text-align: left"">
            <h4>DESCRIPTION</h4>
            <p>
            You will complete a short task where you give your impressions of various neighborhoods and assign individuals to those spaces, and answer some questions about your thoughts and opinions.<br>
            The University of Michigan Institutional Review Board Health Sciences and Behavioral Sciences has determined that this study is exempt from IRB oversight.
            </p>

            <h4>TIME INVOLVEMENT</h4>
            <p>Your participation will take approximately 15 minutes. You will receive $3.15 upon completion of the study.</p>
        
            <h4>RISKS AND BENEFITS</h4>
            <p>
            The risks associated with this study are minimal. The benefits which may reasonably be expected to result from this study are none. We cannot and do not guarantee or promise that you will receive any benefits from this study.
            </p>
          
            <h4>SUBJECT'S RIGHTS</h4>
            <p>
            If you have read this form and have decided to participate in this project, please understand your participation is voluntary and you have the right to withdraw your consent or discontinue participation at any time without penalty or loss of benefits to which you are otherwise entitled. The alternative is not to participate. You have the right to refuse to answer particular questions. Your individual privacy will be maintained in all published and written data resulting from the study.
            </p>

            <h4>HUMAN SUBJECT APPROVAL</h4>
            <p>
            This study is exempt from ongoing IRB review.
            </p>

            <h4>CONTACT INFORMATION</h4>
            If you have any questions, concerns or complaints about this research, its procedures, risks and benefits, contact the Protocol Director, Nicholas Camp, npcamp@umich.edu, (443) 851-6783. <br>

            If you have questions about your rights as a research participant, or wish to obtain information, ask questions or discuss any concerns about this study with someone other than the researcher(s), please contact the following:<br><br>
            University of Michigan<br>
            Health Sciences and Behavioral Sciences Institutional Review Board (IRB-HSBS)<br>
            2800 Plymouth Road<br>
            Building 520, Room 1169Ann Arbor, MI 48109-2800<br>
            Telephone: 734-936-0933 or toll free (866) 936-0933<br>
            Fax: 734-936-1852<br>
            E-mail: irbhsbs@umich.edu<br><br>

            You can also contact the University of Michigan Compliance Hotline at 1-866-990-0111. You may also print this consent form to keep.
            <br><br>
            <div class=""alert alert-warning""><b>
            Do you consent to participate in this study? If you consent to participate in this study, please click “Accept and Continue”. If you select ""Decline and Exit"", you will be exited from the survey. <br>
            </b></div>
            </div>
        </div>
    ","1","","","","","","","","","","","",""
"","preload","3","22866","0.0-3.0","","656776a7904ae00d6b91d1dd","6568ad05c66989571b2bc25a","9","","","","","","","","","","","","","","","true","false","[]","[]","[]","","","","","","",""
"instructions","html-button-response","4","49022","0.0-4.0","","656776a7904ae00d6b91d1dd","6568ad05c66989571b2bc25a","9","","","","","","","","","","","","26156","
        <div class=""text-container"">
        <h1>Welcome to the study!</h1>
        
        <div class=""text-left"">
            <p>
                In this study, we are interested in what people can tell about spaces from Google Street View images. <br> Google Street View takes pictures of streets used for Google Earth and Google Maps. <br>You’ll see Google Street View images of different places and answer some questions about each one.<br>
            </p>
        </div>
        <img src = ""assets/img/example.png"" width = 500px, height = auto>
        <br>
    <br>
    ","0","","","","","","","","","","","",""
"instructions","html-button-response","5","52678","0.0-5.0","","656776a7904ae00d6b91d1dd","6568ad05c66989571b2bc25a","9","","","","","","","","","","","","3656","
    <div class=""text-container"">
        <div class=""text-center"">
            <p>Please remember that your answers are completely anonymous.<br>Go with your gut response- there are no right or wrong answers!</p>
        </div>
    <br>
","0","","","","","","","","","","","",""
"before_SVSlide_prompt","html-button-response","6","54286","0.0-6.0","","656776a7904ae00d6b91d1dd","6568ad05c66989571b2bc25a","9","","","","","","","","","","","","1608","Click [Next] to see the next neighborhood!","0","","","","","","","","","","","",""
"street view slide show","image-button-response","7","55370","0.0-7.0","","656776a7904ae00d6b91d1dd","6568ad05c66989571b2bc25a","9","","","","","","","","","","","","null","stimulus/SV_PolicingMSA/NV_466/IMG_2_466.jpg","null","","","","","","3","","","","","",""
"street view slide show","image-button-response","8","56436","0.0-8.0","","656776a7904ae00d6b91d1dd","6568ad05c66989571b2bc25a","9","","","","","","","","","","","","null","stimulus/SV_PolicingMSA/NV_466/IMG_0_466.jpg","null","","","","","","3","","","","","",""
"street view slide show","image-button-response","9","57452","0.0-9.0","","656776a7904ae00d6b91d1dd","6568ad05c66989571b2bc25a","9","","","","","","","","","","","","null","stimulus/SV_PolicingMSA/NV_466/IMG_10_466.jpg","null","","","","","","3","","","","","",""
"street view slide show","image-button-response","10","58465","0.0-10.0","","656776a7904ae00d6b91d1dd","6568ad05c66989571b2bc25a","9","","","","","","","","","","","","null","stimulus/SV_PolicingMSA/NV_466/IMG_6_466.jpg","null","","","","","","3","","","","","",""
"street view slide show","image-button-response","11","59478","0.0-11.0","","656776a7904ae00d6b91d1dd","6568ad05c66989571b2bc25a","9","","","","","","","","","","","","null","stimulus/SV_PolicingMSA/NV_466/IMG_1_466.jpg","null","","","","","","3","","","","","",""
"street view slide show","image-button-response","12","60497","0.0-12.0","","656776a7904ae00d6b91d1dd","6568ad05c66989571b2bc25a","9","","","","","","","","","","","","null","stimulus/SV_PolicingMSA/NV_466/IMG_13_466.jpg","null","","","","","","3","","","","","",""
"street view slide show","image-button-response","13","61501","0.0-13.0","","656776a7904ae00d6b91d1dd","6568ad05c66989571b2bc25a","9","","","","","","","","","","","","null","stimulus/SV_PolicingMSA/NV_466/IMG_4_466.jpg","null","","","","","","3","","","","","",""
"street view slide show","image-button-response","14","62509","0.0-14.0","","656776a7904ae00d6b91d1dd","6568ad05c66989571b2bc25a","9","","","","","","","","","","","","null","stimulus/SV_PolicingMSA/NV_466/IMG_5_466.jpg","null","","","","","","3","","","","","",""
"dot matrix survey1","survey","15","122154","0.0-15.0","","656776a7904ae00d6b91d1dd","6568ad05c66989571b2bc25a","9","","","","","","","","","","","","59613","","{""P0_Q0"":null,""P0_Q1"":{""wealthy"":1,""safe"":1,""walkable"":4,""diverse"":1,""traditional"":1}}","","","","","","3","[]","","","","",""
"dot matrix survey2","survey","16","172179","0.0-16.0","","656776a7904ae00d6b91d1dd","6568ad05c66989571b2bc25a","9","","","","","","","","","","","","50012","","{""P0_Q0"":null,""P0_Q1"":{""violence"":2,""crime"":2,""drug"":3,""schools"":2,""opportunities"":1}}","","","","","","3","[]","","","","",""
"dot matrix survey3","survey","17","209593","0.0-17.0","","656776a7904ae00d6b91d1dd","6568ad05c66989571b2bc25a","9","","","","","","","","","","","","37400","","{""P0_Q0"":null,""P0_Q1"":{""movein"":1,""moveout"":3,""shopping"":2,""walk"":0,""park"":0,""school"":1}}","","","","","","3","[]","","","","",""
"sliderTrial","html-slider-response","18","235383","0.0-18.0","","656776a7904ae00d6b91d1dd","6568ad05c66989571b2bc25a","9","","","","","","","","","","","","25785","[""SV_PolicingMSA/NV_466/IMG_2_466.jpg"",""SV_PolicingMSA/NV_466/IMG_0_466.jpg"",""SV_PolicingMSA/NV_466/IMG_10_466.jpg"",""SV_PolicingMSA/NV_466/IMG_6_466.jpg"",""SV_PolicingMSA/NV_466/IMG_1_466.jpg"",""SV_PolicingMSA/NV_466/IMG_13_466.jpg"",""SV_PolicingMSA/NV_466/IMG_4_466.jpg"",""SV_PolicingMSA/NV_466/IMG_5_466.jpg""]","1","","","","","","3","","4","[""./rc_img/cop_condGroup_16_SafeStreets_autoscaled.png"",""./rc_img/cop_condGroup_16_CommunitySafety_autoscaled.png""]","7","",""
"sliderTrial","html-slider-response","19","244002","0.0-19.0","","656776a7904ae00d6b91d1dd","6568ad05c66989571b2bc25a","9","","","","","","","","","","","","8616","[""SV_PolicingMSA/NV_466/IMG_2_466.jpg"",""SV_PolicingMSA/NV_466/IMG_0_466.jpg"",""SV_PolicingMSA/NV_466/IMG_10_466.jpg"",""SV_PolicingMSA/NV_466/IMG_6_466.jpg"",""SV_PolicingMSA/NV_466/IMG_1_466.jpg"",""SV_PolicingMSA/NV_466/IMG_13_466.jpg"",""SV_PolicingMSA/NV_466/IMG_4_466.jpg"",""SV_PolicingMSA/NV_466/IMG_5_466.jpg""]","7","","","","","","3","","4","[""./rc_img/cop_condGroup_14_CommunitySafety_autoscaled.png"",""./rc_img/cop_condGroup_14_SafeStreets_autoscaled.png""]","7","",""
"sliderTrial","html-slider-response","20","253622","0.0-20.0","","656776a7904ae00d6b91d1dd","6568ad05c66989571b2bc25a","9","","","","","","","","","","","","9619","[""SV_PolicingMSA/NV_466/IMG_2_466.jpg"",""SV_PolicingMSA/NV_466/IMG_0_466.jpg"",""SV_PolicingMSA/NV_466/IMG_10_466.jpg"",""SV_PolicingMSA/NV_466/IMG_6_466.jpg"",""SV_PolicingMSA/NV_466/IMG_1_466.jpg"",""SV_PolicingMSA/NV_466/IMG_13_466.jpg"",""SV_PolicingMSA/NV_466/IMG_4_466.jpg"",""SV_PolicingMSA/NV_466/IMG_5_466.jpg""]","1","","","","","","3","","4","[""./rc_img/cop_condGroup_18_SafeStreets_autoscaled.png"",""./rc_img/cop_condGroup_18_CommunitySafety_autoscaled.png""]","7","",""
"sliderTrial","html-slider-response","21","257783","0.0-21.0","","656776a7904ae00d6b91d1dd","6568ad05c66989571b2bc25a","9","","","","","","","","","","","","4159","[""SV_PolicingMSA/NV_466/IMG_2_466.jpg"",""SV_PolicingMSA/NV_466/IMG_0_466.jpg"",""SV_PolicingMSA/NV_466/IMG_10_466.jpg"",""SV_PolicingMSA/NV_466/IMG_6_466.jpg"",""SV_PolicingMSA/NV_466/IMG_1_466.jpg"",""SV_PolicingMSA/NV_466/IMG_13_466.jpg"",""SV_PolicingMSA/NV_466/IMG_4_466.jpg"",""SV_PolicingMSA/NV_466/IMG_5_466.jpg""]","7","","","","","","3","","4","[""./rc_img/cop_condGroup_19_CommunitySafety_autoscaled.png"",""./rc_img/cop_condGroup_19_SafeStreets_autoscaled.png""]","7","",""
"sliderTrial","html-slider-response","22","261983","0.0-22.0","","656776a7904ae00d6b91d1dd","6568ad05c66989571b2bc25a","9","","","","","","","","","","","","4199","[""SV_PolicingMSA/NV_466/IMG_2_466.jpg"",""SV_PolicingMSA/NV_466/IMG_0_466.jpg"",""SV_PolicingMSA/NV_466/IMG_10_466.jpg"",""SV_PolicingMSA/NV_466/IMG_6_466.jpg"",""SV_PolicingMSA/NV_466/IMG_1_466.jpg"",""SV_PolicingMSA/NV_466/IMG_13_466.jpg"",""SV_PolicingMSA/NV_466/IMG_4_466.jpg"",""SV_PolicingMSA/NV_466/IMG_5_466.jpg""]","1","","","","","","3","","4","[""./rc_img/cop_condGroup_20_SafeStreets_autoscaled.png"",""./rc_img/cop_condGroup_20_CommunitySafety_autoscaled.png""]","7","",""
"before_SVSlide_prompt","html-button-response","23","264150","0.0-23.0","","656776a7904ae00d6b91d1dd","6568ad05c66989571b2bc25a","9","","","","","","","","","","","","2167","Click [Next] to see the next neighborhood!","0","","","","","","","","","","","",""
"street view slide show","image-button-response","24","265193","0.0-24.0","","656776a7904ae00d6b91d1dd","6568ad05c66989571b2bc25a","9","","","","","","","","","","","","null","stimulus/SV_PolicingMSA/NV_84/IMG_4_84.jpg","null","","","","","","2","","","","","",""
"street view slide show","image-button-response","25","266200","0.0-25.0","","656776a7904ae00d6b91d1dd","6568ad05c66989571b2bc25a","9","","","","","","","","","","","","null","stimulus/SV_PolicingMSA/NV_84/IMG_8_84.jpg","null","","","","","","2","","","","","",""
"street view slide show","image-button-response","26","267215","0.0-26.0","","656776a7904ae00d6b91d1dd","6568ad05c66989571b2bc25a","9","","","","","","","","","","","","null","stimulus/SV_PolicingMSA/NV_84/IMG_5_84.jpg","null","","","","","","2","","","","","",""
"street view slide show","image-button-response","27","268234","0.0-27.0","","656776a7904ae00d6b91d1dd","6568ad05c66989571b2bc25a","9","","","","","","","","","","","","null","stimulus/SV_PolicingMSA/NV_84/IMG_14_84.jpg","null","","","","","","2","","","","","",""
"street view slide show","image-button-response","28","269240","0.0-28.0","","656776a7904ae00d6b91d1dd","6568ad05c66989571b2bc25a","9","","","","","","","","","","","","null","stimulus/SV_PolicingMSA/NV_84/IMG_11_84.jpg","null","","","","","","2","","","","","",""
"street view slide show","image-button-response","29","270250","0.0-29.0","","656776a7904ae00d6b91d1dd","6568ad05c66989571b2bc25a","9","","","","","","","","","","","","null","stimulus/SV_PolicingMSA/NV_84/IMG_0_84.jpg","null","","","","","","2","","","","","",""
"street view slide show","image-button-response","30","271258","0.0-30.0","","656776a7904ae00d6b91d1dd","6568ad05c66989571b2bc25a","9","","","","","","","","","","","","null","stimulus/SV_PolicingMSA/NV_84/IMG_3_84.jpg","null","","","","","","2","","","","","",""
"street view slide show","image-button-response","31","272274","0.0-31.0","","656776a7904ae00d6b91d1dd","6568ad05c66989571b2bc25a","9","","","","","","","","","","","","null","stimulus/SV_PolicingMSA/NV_84/IMG_6_84.jpg","null","","","","","","2","","","","","",""
"dot matrix survey1","survey","32","310831","0.0-32.0","","656776a7904ae00d6b91d1dd","6568ad05c66989571b2bc25a","9","","","","","","","","","","","","38537","","{""P0_Q0"":null,""P0_Q1"":{""wealthy"":1,""safe"":3,""walkable"":4,""traditional"":2,""diverse"":3}}","","","","","","2","[]","","","","",""
"dot matrix survey2","survey","33","339874","0.0-33.0","","656776a7904ae00d6b91d1dd","6568ad05c66989571b2bc25a","9","","","","","","","","","","","","29034","","{""P0_Q0"":null,""P0_Q1"":{""violence"":2,""crime"":2,""drug"":2,""schools"":2,""opportunities"":1}}","","","","","","2","[]","","","","",""
"dot matrix survey3","survey","34","367630","0.0-34.0","","656776a7904ae00d6b91d1dd","6568ad05c66989571b2bc25a","9","","","","","","","","","","","","27742","","{""P0_Q0"":null,""P0_Q1"":{""movein"":2,""moveout"":2,""shopping"":3,""walk"":0,""park"":0,""school"":2}}","","","","","","2","[]","","","","",""
"sliderTrial","html-slider-response","35","375958","0.0-35.0","","656776a7904ae00d6b91d1dd","6568ad05c66989571b2bc25a","9","","","","","","","","","","","","8327","[""SV_PolicingMSA/NV_84/IMG_4_84.jpg"",""SV_PolicingMSA/NV_84/IMG_8_84.jpg"",""SV_PolicingMSA/NV_84/IMG_5_84.jpg"",""SV_PolicingMSA/NV_84/IMG_14_84.jpg"",""SV_PolicingMSA/NV_84/IMG_11_84.jpg"",""SV_PolicingMSA/NV_84/IMG_0_84.jpg"",""SV_PolicingMSA/NV_84/IMG_3_84.jpg"",""SV_PolicingMSA/NV_84/IMG_6_84.jpg""]","7","","","","","","2","","4","[""./rc_img/cop_condGroup_12_SafeStreets_autoscaled.png"",""./rc_img/cop_condGroup_12_CommunitySafety_autoscaled.png""]","1","",""
"sliderTrial","html-slider-response","36","379407","0.0-36.0","","656776a7904ae00d6b91d1dd","6568ad05c66989571b2bc25a","9","","","","","","","","","","","","3447","[""SV_PolicingMSA/NV_84/IMG_4_84.jpg"",""SV_PolicingMSA/NV_84/IMG_8_84.jpg"",""SV_PolicingMSA/NV_84/IMG_5_84.jpg"",""SV_PolicingMSA/NV_84/IMG_14_84.jpg"",""SV_PolicingMSA/NV_84/IMG_11_84.jpg"",""SV_PolicingMSA/NV_84/IMG_0_84.jpg"",""SV_PolicingMSA/NV_84/IMG_3_84.jpg"",""SV_PolicingMSA/NV_84/IMG_6_84.jpg""]","1","","","","","","2","","4","[""./rc_img/cop_condGroup_13_CommunitySafety_autoscaled.png"",""./rc_img/cop_condGroup_13_SafeStreets_autoscaled.png""]","1","",""
"sliderTrial","html-slider-response","37","382543","0.0-37.0","","656776a7904ae00d6b91d1dd","6568ad05c66989571b2bc25a","9","","","","","","","","","","","","3136","[""SV_PolicingMSA/NV_84/IMG_4_84.jpg"",""SV_PolicingMSA/NV_84/IMG_8_84.jpg"",""SV_PolicingMSA/NV_84/IMG_5_84.jpg"",""SV_PolicingMSA/NV_84/IMG_14_84.jpg"",""SV_PolicingMSA/NV_84/IMG_11_84.jpg"",""SV_PolicingMSA/NV_84/IMG_0_84.jpg"",""SV_PolicingMSA/NV_84/IMG_3_84.jpg"",""SV_PolicingMSA/NV_84/IMG_6_84.jpg""]","1","","","","","","2","","4","[""./rc_img/cop_condGroup_10_CommunitySafety_autoscaled.png"",""./rc_img/cop_condGroup_10_SafeStreets_autoscaled.png""]","1","",""
"sliderTrial","html-slider-response","38","386462","0.0-38.0","","656776a7904ae00d6b91d1dd","6568ad05c66989571b2bc25a","9","","","","","","","","","","","","3918","[""SV_PolicingMSA/NV_84/IMG_4_84.jpg"",""SV_PolicingMSA/NV_84/IMG_8_84.jpg"",""SV_PolicingMSA/NV_84/IMG_5_84.jpg"",""SV_PolicingMSA/NV_84/IMG_14_84.jpg"",""SV_PolicingMSA/NV_84/IMG_11_84.jpg"",""SV_PolicingMSA/NV_84/IMG_0_84.jpg"",""SV_PolicingMSA/NV_84/IMG_3_84.jpg"",""SV_PolicingMSA/NV_84/IMG_6_84.jpg""]","1","","","","","","2","","4","[""./rc_img/cop_condGroup_15_CommunitySafety_autoscaled.png"",""./rc_img/cop_condGroup_15_SafeStreets_autoscaled.png""]","1","",""
"sliderTrial","html-slider-response","39","390655","0.0-39.0","","656776a7904ae00d6b91d1dd","6568ad05c66989571b2bc25a","9","","","","","","","","","","","","4190","[""SV_PolicingMSA/NV_84/IMG_4_84.jpg"",""SV_PolicingMSA/NV_84/IMG_8_84.jpg"",""SV_PolicingMSA/NV_84/IMG_5_84.jpg"",""SV_PolicingMSA/NV_84/IMG_14_84.jpg"",""SV_PolicingMSA/NV_84/IMG_11_84.jpg"",""SV_PolicingMSA/NV_84/IMG_0_84.jpg"",""SV_PolicingMSA/NV_84/IMG_3_84.jpg"",""SV_PolicingMSA/NV_84/IMG_6_84.jpg""]","1","","","","","","2","","4","[""./rc_img/cop_condGroup_17_CommunitySafety_autoscaled.png"",""./rc_img/cop_condGroup_17_SafeStreets_autoscaled.png""]","1","",""
"before_SVSlide_prompt","html-button-response","40","392359","0.0-40.0","","656776a7904ae00d6b91d1dd","6568ad05c66989571b2bc25a","9","","","","","","","","","","","","1703","Click [Next] to see the next neighborhood!","0","","","","","","","","","","","",""
"street view slide show","image-button-response","41","393371","0.0-41.0","","656776a7904ae00d6b91d1dd","6568ad05c66989571b2bc25a","9","","","","","","","","","","","","null","stimulus/SV_PolicingMSA/NV_329/IMG_12_329.jpg","null","","","","","","2","","","","","",""
"street view slide show","image-button-response","42","394385","0.0-42.0","","656776a7904ae00d6b91d1dd","6568ad05c66989571b2bc25a","9","","","","","","","","","","","","null","stimulus/SV_PolicingMSA/NV_329/IMG_6_329.jpg","null","","","","","","2","","","","","",""
"street view slide show","image-button-response","43","395392","0.0-43.0","","656776a7904ae00d6b91d1dd","6568ad05c66989571b2bc25a","9","","","","","","","","","","","","null","stimulus/SV_PolicingMSA/NV_329/IMG_2_329.jpg","null","","","","","","2","","","","","",""
"street view slide show","image-button-response","44","396407","0.0-44.0","","656776a7904ae00d6b91d1dd","6568ad05c66989571b2bc25a","9","","","","","","","","","","","","null","stimulus/SV_PolicingMSA/NV_329/IMG_10_329.jpg","null","","","","","","2","","","","","",""
"street view slide show","image-button-response","45","397421","0.0-45.0","","656776a7904ae00d6b91d1dd","6568ad05c66989571b2bc25a","9","","","","","","","","","","","","null","stimulus/SV_PolicingMSA/NV_329/IMG_0_329.jpg","null","","","","","","2","","","","","",""
"street view slide show","image-button-response","46","398435","0.0-46.0","","656776a7904ae00d6b91d1dd","6568ad05c66989571b2bc25a","9","","","","","","","","","","","","null","stimulus/SV_PolicingMSA/NV_329/IMG_13_329.jpg","null","","","","","","2","","","","","",""
"street view slide show","image-button-response","47","399453","0.0-47.0","","656776a7904ae00d6b91d1dd","6568ad05c66989571b2bc25a","9","","","","","","","","","","","","null","stimulus/SV_PolicingMSA/NV_329/IMG_14_329.jpg","null","","","","","","2","","","","","",""
"street view slide show","image-button-response","48","400460","0.0-48.0","","656776a7904ae00d6b91d1dd","6568ad05c66989571b2bc25a","9","","","","","","","","","","","","null","stimulus/SV_PolicingMSA/NV_329/IMG_1_329.jpg","null","","","","","","2","","","","","",""
"dot matrix survey1","survey","49","446582","0.0-49.0","","656776a7904ae00d6b91d1dd","6568ad05c66989571b2bc25a","9","","","","","","","","","","","","46102","","{""P0_Q0"":null,""P0_Q1"":{""wealthy"":3,""safe"":3,""walkable"":4,""traditional"":3,""diverse"":2}}","","","","","","2","[]","","","","",""
"dot matrix survey2","survey","50","475313","0.0-50.0","","656776a7904ae00d6b91d1dd","6568ad05c66989571b2bc25a","9","","","","","","","","","","","","28721","","{""P0_Q0"":null,""P0_Q1"":{""violence"":0,""crime"":1,""drug"":2,""schools"":3,""opportunities"":0}}","","","","","","2","[]","","","","",""
"dot matrix survey3","survey","51","494262","0.0-51.0","","656776a7904ae00d6b91d1dd","6568ad05c66989571b2bc25a","9","","","","","","","","","","","","18933","","{""P0_Q0"":null,""P0_Q1"":{""movein"":4,""moveout"":1,""shopping"":4,""walk"":0,""park"":2,""school"":4}}","","","","","","2","[]","","","","",""
"sliderTrial","html-slider-response","52","498303","0.0-52.0","","656776a7904ae00d6b91d1dd","6568ad05c66989571b2bc25a","9","","","","","","","","","","","","4039","[""SV_PolicingMSA/NV_329/IMG_12_329.jpg"",""SV_PolicingMSA/NV_329/IMG_6_329.jpg"",""SV_PolicingMSA/NV_329/IMG_2_329.jpg"",""SV_PolicingMSA/NV_329/IMG_10_329.jpg"",""SV_PolicingMSA/NV_329/IMG_0_329.jpg"",""SV_PolicingMSA/NV_329/IMG_13_329.jpg"",""SV_PolicingMSA/NV_329/IMG_14_329.jpg"",""SV_PolicingMSA/NV_329/IMG_1_329.jpg""]","1","","","","","","2","","4","[""./rc_img/cop_condGroup_2_CommunitySafety_autoscaled.png"",""./rc_img/cop_condGroup_2_SafeStreets_autoscaled.png""]","1","",""
"sliderTrial","html-slider-response","53","501183","0.0-53.0","","656776a7904ae00d6b91d1dd","6568ad05c66989571b2bc25a","9","","","","","","","","","","","","2878","[""SV_PolicingMSA/NV_329/IMG_12_329.jpg"",""SV_PolicingMSA/NV_329/IMG_6_329.jpg"",""SV_PolicingMSA/NV_329/IMG_2_329.jpg"",""SV_PolicingMSA/NV_329/IMG_10_329.jpg"",""SV_PolicingMSA/NV_329/IMG_0_329.jpg"",""SV_PolicingMSA/NV_329/IMG_13_329.jpg"",""SV_PolicingMSA/NV_329/IMG_14_329.jpg"",""SV_PolicingMSA/NV_329/IMG_1_329.jpg""]","7","","","","","","2","","4","[""./rc_img/cop_condGroup_1_SafeStreets_autoscaled.png"",""./rc_img/cop_condGroup_1_CommunitySafety_autoscaled.png""]","1","",""
"sliderTrial","html-slider-response","54","504263","0.0-54.0","","656776a7904ae00d6b91d1dd","6568ad05c66989571b2bc25a","9","","","","","","","","","","","","3079","[""SV_PolicingMSA/NV_329/IMG_12_329.jpg"",""SV_PolicingMSA/NV_329/IMG_6_329.jpg"",""SV_PolicingMSA/NV_329/IMG_2_329.jpg"",""SV_PolicingMSA/NV_329/IMG_10_329.jpg"",""SV_PolicingMSA/NV_329/IMG_0_329.jpg"",""SV_PolicingMSA/NV_329/IMG_13_329.jpg"",""SV_PolicingMSA/NV_329/IMG_14_329.jpg"",""SV_PolicingMSA/NV_329/IMG_1_329.jpg""]","7","","","","","","2","","4","[""./rc_img/cop_condGroup_5_SafeStreets_autoscaled.png"",""./rc_img/cop_condGroup_5_CommunitySafety_autoscaled.png""]","1","",""
"sliderTrial","html-slider-response","55","507271","0.0-55.0","","656776a7904ae00d6b91d1dd","6568ad05c66989571b2bc25a","9","","","","","","","","","","","","3007","[""SV_PolicingMSA/NV_329/IMG_12_329.jpg"",""SV_PolicingMSA/NV_329/IMG_6_329.jpg"",""SV_PolicingMSA/NV_329/IMG_2_329.jpg"",""SV_PolicingMSA/NV_329/IMG_10_329.jpg"",""SV_PolicingMSA/NV_329/IMG_0_329.jpg"",""SV_PolicingMSA/NV_329/IMG_13_329.jpg"",""SV_PolicingMSA/NV_329/IMG_14_329.jpg"",""SV_PolicingMSA/NV_329/IMG_1_329.jpg""]","1","","","","","","2","","4","[""./rc_img/cop_condGroup_7_CommunitySafety_autoscaled.png"",""./rc_img/cop_condGroup_7_SafeStreets_autoscaled.png""]","1","",""
"sliderTrial","html-slider-response","56","510990","0.0-56.0","","656776a7904ae00d6b91d1dd","6568ad05c66989571b2bc25a","9","","","","","","","","","","","","3719","[""SV_PolicingMSA/NV_329/IMG_12_329.jpg"",""SV_PolicingMSA/NV_329/IMG_6_329.jpg"",""SV_PolicingMSA/NV_329/IMG_2_329.jpg"",""SV_PolicingMSA/NV_329/IMG_10_329.jpg"",""SV_PolicingMSA/NV_329/IMG_0_329.jpg"",""SV_PolicingMSA/NV_329/IMG_13_329.jpg"",""SV_PolicingMSA/NV_329/IMG_14_329.jpg"",""SV_PolicingMSA/NV_329/IMG_1_329.jpg""]","7","","","","","","2","","4","[""./rc_img/cop_condGroup_4_SafeStreets_autoscaled.png"",""./rc_img/cop_condGroup_4_CommunitySafety_autoscaled.png""]","1","",""
"before_SVSlide_prompt","html-button-response","57","513015","0.0-57.0","","656776a7904ae00d6b91d1dd","6568ad05c66989571b2bc25a","9","","","","","","","","","","","","2023","Click [Next] to see the next neighborhood!","0","","","","","","","","","","","",""
"street view slide show","image-button-response","58","514021","0.0-58.0","","656776a7904ae00d6b91d1dd","6568ad05c66989571b2bc25a","9","","","","","","","","","","","","null","stimulus/SV_PolicingMSA/NV_0/IMG_5_0.jpg","null","","","","","","0","","","","","",""
"street view slide show","image-button-response","59","515033","0.0-59.0","","656776a7904ae00d6b91d1dd","6568ad05c66989571b2bc25a","9","","","","","","","","","","","","null","stimulus/SV_PolicingMSA/NV_0/IMG_0_0.jpg","null","","","","","","0","","","","","",""
"street view slide show","image-button-response","60","516041","0.0-60.0","","656776a7904ae00d6b91d1dd","6568ad05c66989571b2bc25a","9","","","","","","","","","","","","null","stimulus/SV_PolicingMSA/NV_0/IMG_4_0.jpg","null","","","","","","0","","","","","",""
"street view slide show","image-button-response","61","517052","0.0-61.0","","656776a7904ae00d6b91d1dd","6568ad05c66989571b2bc25a","9","","","","","","","","","","","","null","stimulus/SV_PolicingMSA/NV_0/IMG_12_0.jpg","null","","","","","","0","","","","","",""
"street view slide show","image-button-response","62","518054","0.0-62.0","","656776a7904ae00d6b91d1dd","6568ad05c66989571b2bc25a","9","","","","","","","","","","","","null","stimulus/SV_PolicingMSA/NV_0/IMG_13_0.jpg","null","","","","","","0","","","","","",""
"street view slide show","image-button-response","63","519067","0.0-63.0","","656776a7904ae00d6b91d1dd","6568ad05c66989571b2bc25a","9","","","","","","","","","","","","null","stimulus/SV_PolicingMSA/NV_0/IMG_7_0.jpg","null","","","","","","0","","","","","",""
"street view slide show","image-button-response","64","520085","0.0-64.0","","656776a7904ae00d6b91d1dd","6568ad05c66989571b2bc25a","9","","","","","","","","","","","","null","stimulus/SV_PolicingMSA/NV_0/IMG_11_0.jpg","null","","","","","","0","","","","","",""
"street view slide show","image-button-response","65","521092","0.0-65.0","","656776a7904ae00d6b91d1dd","6568ad05c66989571b2bc25a","9","","","","","","","","","","","","null","stimulus/SV_PolicingMSA/NV_0/IMG_14_0.jpg","null","","","","","","0","","","","","",""
"dot matrix survey1","survey","66","576450","0.0-66.0","","656776a7904ae00d6b91d1dd","6568ad05c66989571b2bc25a","9","","","","","","","","","","","","55338","","{""P0_Q0"":null,""P0_Q1"":{""wealthy"":1,""safe"":2,""walkable"":4,""traditional"":2,""diverse"":3}}","","","","","","0","[]","","","","",""
"dot matrix survey2","survey","67","602794","0.0-67.0","","656776a7904ae00d6b91d1dd","6568ad05c66989571b2bc25a","9","","","","","","","","","","","","26329","","{""P0_Q0"":null,""P0_Q1"":{""violence"":1,""crime"":1,""drug"":1,""schools"":2,""opportunities"":2}}","","","","","","0","[]","","","","",""
"dot matrix survey3","survey","68","623486","0.0-68.0","","656776a7904ae00d6b91d1dd","6568ad05c66989571b2bc25a","9","","","","","","","","","","","","20675","","{""P0_Q0"":null,""P0_Q1"":{""movein"":2,""moveout"":3,""shopping"":3,""walk"":0,""park"":0,""school"":3}}","","","","","","0","[]","","","","",""
"sliderTrial_attention","html-slider-response","69","633758","0.0-69.0","","656776a7904ae00d6b91d1dd","6568ad05c66989571b2bc25a","9","","","","","","","","","","","","null","[""SV_PolicingMSA/NV_0/IMG_5_0.jpg"",""SV_PolicingMSA/NV_0/IMG_0_0.jpg"",""SV_PolicingMSA/NV_0/IMG_4_0.jpg"",""SV_PolicingMSA/NV_0/IMG_12_0.jpg"",""SV_PolicingMSA/NV_0/IMG_13_0.jpg"",""SV_PolicingMSA/NV_0/IMG_7_0.jpg"",""SV_PolicingMSA/NV_0/IMG_11_0.jpg"",""SV_PolicingMSA/NV_0/IMG_14_0.jpg""]","null","","","","","","0","","4","[""./assets/img/attnchk.png"",""./assets/img/attnchk.png""]","","true",""
"sliderTrial","html-slider-response","70","637942","0.0-70.0","","656776a7904ae00d6b91d1dd","6568ad05c66989571b2bc25a","9","","","","","","","","","","","","4181","[""SV_PolicingMSA/NV_0/IMG_5_0.jpg"",""SV_PolicingMSA/NV_0/IMG_0_0.jpg"",""SV_PolicingMSA/NV_0/IMG_4_0.jpg"",""SV_PolicingMSA/NV_0/IMG_12_0.jpg"",""SV_PolicingMSA/NV_0/IMG_13_0.jpg"",""SV_PolicingMSA/NV_0/IMG_7_0.jpg"",""SV_PolicingMSA/NV_0/IMG_11_0.jpg"",""SV_PolicingMSA/NV_0/IMG_14_0.jpg""]","1","","","","","","0","","4","[""./rc_img/cop_condGroup_2_CommunitySafety_autoscaled.png"",""./rc_img/cop_condGroup_2_SafeStreets_autoscaled.png""]","1","",""
"sliderTrial","html-slider-response","71","640694","0.0-71.0","","656776a7904ae00d6b91d1dd","6568ad05c66989571b2bc25a","9","","","","","","","","","","","","2751","[""SV_PolicingMSA/NV_0/IMG_5_0.jpg"",""SV_PolicingMSA/NV_0/IMG_0_0.jpg"",""SV_PolicingMSA/NV_0/IMG_4_0.jpg"",""SV_PolicingMSA/NV_0/IMG_12_0.jpg"",""SV_PolicingMSA/NV_0/IMG_13_0.jpg"",""SV_PolicingMSA/NV_0/IMG_7_0.jpg"",""SV_PolicingMSA/NV_0/IMG_11_0.jpg"",""SV_PolicingMSA/NV_0/IMG_14_0.jpg""]","7","","","","","","0","","4","[""./rc_img/cop_condGroup_1_SafeStreets_autoscaled.png"",""./rc_img/cop_condGroup_1_CommunitySafety_autoscaled.png""]","1","",""
"sliderTrial","html-slider-response","72","645487","0.0-72.0","","656776a7904ae00d6b91d1dd","6568ad05c66989571b2bc25a","9","","","","","","","","","","","","4790","[""SV_PolicingMSA/NV_0/IMG_5_0.jpg"",""SV_PolicingMSA/NV_0/IMG_0_0.jpg"",""SV_PolicingMSA/NV_0/IMG_4_0.jpg"",""SV_PolicingMSA/NV_0/IMG_12_0.jpg"",""SV_PolicingMSA/NV_0/IMG_13_0.jpg"",""SV_PolicingMSA/NV_0/IMG_7_0.jpg"",""SV_PolicingMSA/NV_0/IMG_11_0.jpg"",""SV_PolicingMSA/NV_0/IMG_14_0.jpg""]","7","","","","","","0","","4","[""./rc_img/cop_condGroup_5_SafeStreets_autoscaled.png"",""./rc_img/cop_condGroup_5_CommunitySafety_autoscaled.png""]","1","",""
"sliderTrial","html-slider-response","73","648879","0.0-73.0","","656776a7904ae00d6b91d1dd","6568ad05c66989571b2bc25a","9","","","","","","","","","","","","3391","[""SV_PolicingMSA/NV_0/IMG_5_0.jpg"",""SV_PolicingMSA/NV_0/IMG_0_0.jpg"",""SV_PolicingMSA/NV_0/IMG_4_0.jpg"",""SV_PolicingMSA/NV_0/IMG_12_0.jpg"",""SV_PolicingMSA/NV_0/IMG_13_0.jpg"",""SV_PolicingMSA/NV_0/IMG_7_0.jpg"",""SV_PolicingMSA/NV_0/IMG_11_0.jpg"",""SV_PolicingMSA/NV_0/IMG_14_0.jpg""]","1","","","","","","0","","4","[""./rc_img/cop_condGroup_7_CommunitySafety_autoscaled.png"",""./rc_img/cop_condGroup_7_SafeStreets_autoscaled.png""]","1","",""
"sliderTrial","html-slider-response","74","652063","0.0-74.0","","656776a7904ae00d6b91d1dd","6568ad05c66989571b2bc25a","9","","","","","","","","","","","","3183","[""SV_PolicingMSA/NV_0/IMG_5_0.jpg"",""SV_PolicingMSA/NV_0/IMG_0_0.jpg"",""SV_PolicingMSA/NV_0/IMG_4_0.jpg"",""SV_PolicingMSA/NV_0/IMG_12_0.jpg"",""SV_PolicingMSA/NV_0/IMG_13_0.jpg"",""SV_PolicingMSA/NV_0/IMG_7_0.jpg"",""SV_PolicingMSA/NV_0/IMG_11_0.jpg"",""SV_PolicingMSA/NV_0/IMG_14_0.jpg""]","7","","","","","","0","","4","[""./rc_img/cop_condGroup_4_SafeStreets_autoscaled.png"",""./rc_img/cop_condGroup_4_CommunitySafety_autoscaled.png""]","1","",""
"half-way","html-button-response","75","667831","0.0-75.0","","656776a7904ae00d6b91d1dd","6568ad05c66989571b2bc25a","9","","","","","","","","","","","","null","
    <h3>You are now half way through the study.</h3>
    <p>Please take a quick, 15-second break before you continue.</p>
    <img src='assets/img/countdown-15.gif'>
    <p>The study will automatically advance forward after the countdown is complete. <br> However, you may click ""Next"" to advance forward now if you wish.</p>
    ","null","","","","","","","","","","","",""
"before_SVSlide_prompt","html-button-response","76","676159","0.0-76.0","","656776a7904ae00d6b91d1dd","6568ad05c66989571b2bc25a","9","","","","","","","","","","","","8324","Click [Next] to see the next neighborhood!","0","","","","","","","","","","","",""
"street view slide show","image-button-response","77","677172","0.0-77.0","","656776a7904ae00d6b91d1dd","6568ad05c66989571b2bc25a","9","","","","","","","","","","","","null","stimulus/SV_PolicingMSA/NV_189/IMG_9_189.jpg","null","","","","","","1","","","","","",""
"street view slide show","image-button-response","78","678193","0.0-78.0","","656776a7904ae00d6b91d1dd","6568ad05c66989571b2bc25a","9","","","","","","","","","","","","null","stimulus/SV_PolicingMSA/NV_189/IMG_5_189.jpg","null","","","","","","1","","","","","",""
"street view slide show","image-button-response","79","679204","0.0-79.0","","656776a7904ae00d6b91d1dd","6568ad05c66989571b2bc25a","9","","","","","","","","","","","","null","stimulus/SV_PolicingMSA/NV_189/IMG_7_189.jpg","null","","","","","","1","","","","","",""
"street view slide show","image-button-response","80","680220","0.0-80.0","","656776a7904ae00d6b91d1dd","6568ad05c66989571b2bc25a","9","","","","","","","","","","","","null","stimulus/SV_PolicingMSA/NV_189/IMG_8_189.jpg","null","","","","","","1","","","","","",""
"street view slide show","image-button-response","81","681229","0.0-81.0","","656776a7904ae00d6b91d1dd","6568ad05c66989571b2bc25a","9","","","","","","","","","","","","null","stimulus/SV_PolicingMSA/NV_189/IMG_4_189.jpg","null","","","","","","1","","","","","",""
"street view slide show","image-button-response","82","682251","0.0-82.0","","656776a7904ae00d6b91d1dd","6568ad05c66989571b2bc25a","9","","","","","","","","","","","","null","stimulus/SV_PolicingMSA/NV_189/IMG_11_189.jpg","null","","","","","","1","","","","","",""
"street view slide show","image-button-response","83","683267","0.0-83.0","","656776a7904ae00d6b91d1dd","6568ad05c66989571b2bc25a","9","","","","","","","","","","","","null","stimulus/SV_PolicingMSA/NV_189/IMG_10_189.jpg","null","","","","","","1","","","","","",""
"street view slide show","image-button-response","84","684273","0.0-84.0","","656776a7904ae00d6b91d1dd","6568ad05c66989571b2bc25a","9","","","","","","","","","","","","null","stimulus/SV_PolicingMSA/NV_189/IMG_6_189.jpg","null","","","","","","1","","","","","",""
"dot matrix survey1","survey","85","744081","0.0-85.0","","656776a7904ae00d6b91d1dd","6568ad05c66989571b2bc25a","9","","","","","","","","","","","","59787","","{""P0_Q0"":null,""P0_Q1"":{""wealthy"":1,""safe"":2,""walkable"":4,""traditional"":1,""diverse"":2}}","","","","","","1","[]","","","","",""
"dot matrix survey2","survey","86","757717","0.0-86.0","","656776a7904ae00d6b91d1dd","6568ad05c66989571b2bc25a","9","","","","","","","","","","","","13621","","{""P0_Q0"":null,""P0_Q1"":{""violence"":2,""crime"":2,""drug"":2,""schools"":1,""opportunities"":2}}","","","","","","1","[]","","","","",""
"dot matrix survey3","survey","87","772549","0.0-87.0","","656776a7904ae00d6b91d1dd","6568ad05c66989571b2bc25a","9","","","","","","","","","","","","14824","","{""P0_Q0"":null,""P0_Q1"":{""movein"":1,""moveout"":3,""shopping"":1,""walk"":0,""park"":0,""school"":0}}","","","","","","1","[]","","","","",""
"sliderTrial","html-slider-response","88","776399","0.0-88.0","","656776a7904ae00d6b91d1dd","6568ad05c66989571b2bc25a","9","","","","","","","","","","","","3849","[""SV_PolicingMSA/NV_189/IMG_9_189.jpg"",""SV_PolicingMSA/NV_189/IMG_5_189.jpg"",""SV_PolicingMSA/NV_189/IMG_7_189.jpg"",""SV_PolicingMSA/NV_189/IMG_8_189.jpg"",""SV_PolicingMSA/NV_189/IMG_4_189.jpg"",""SV_PolicingMSA/NV_189/IMG_11_189.jpg"",""SV_PolicingMSA/NV_189/IMG_10_189.jpg"",""SV_PolicingMSA/NV_189/IMG_6_189.jpg""]","7","","","","","","1","","4","[""./rc_img/cop_condGroup_6_CommunitySafety_autoscaled.png"",""./rc_img/cop_condGroup_6_SafeStreets_autoscaled.png""]","7","",""
"sliderTrial","html-slider-response","89","779400","0.0-89.0","","656776a7904ae00d6b91d1dd","6568ad05c66989571b2bc25a","9","","","","","","","","","","","","2999","[""SV_PolicingMSA/NV_189/IMG_9_189.jpg"",""SV_PolicingMSA/NV_189/IMG_5_189.jpg"",""SV_PolicingMSA/NV_189/IMG_7_189.jpg"",""SV_PolicingMSA/NV_189/IMG_8_189.jpg"",""SV_PolicingMSA/NV_189/IMG_4_189.jpg"",""SV_PolicingMSA/NV_189/IMG_11_189.jpg"",""SV_PolicingMSA/NV_189/IMG_10_189.jpg"",""SV_PolicingMSA/NV_189/IMG_6_189.jpg""]","7","","","","","","1","","4","[""./rc_img/cop_condGroup_8_CommunitySafety_autoscaled.png"",""./rc_img/cop_condGroup_8_SafeStreets_autoscaled.png""]","7","",""
"sliderTrial","html-slider-response","90","784231","0.0-90.0","","656776a7904ae00d6b91d1dd","6568ad05c66989571b2bc25a","9","","","","","","","","","","","","4830","[""SV_PolicingMSA/NV_189/IMG_9_189.jpg"",""SV_PolicingMSA/NV_189/IMG_5_189.jpg"",""SV_PolicingMSA/NV_189/IMG_7_189.jpg"",""SV_PolicingMSA/NV_189/IMG_8_189.jpg"",""SV_PolicingMSA/NV_189/IMG_4_189.jpg"",""SV_PolicingMSA/NV_189/IMG_11_189.jpg"",""SV_PolicingMSA/NV_189/IMG_10_189.jpg"",""SV_PolicingMSA/NV_189/IMG_6_189.jpg""]","7","","","","","","1","","4","[""./rc_img/cop_condGroup_3_CommunitySafety_autoscaled.png"",""./rc_img/cop_condGroup_3_SafeStreets_autoscaled.png""]","7","",""
"sliderTrial","html-slider-response","91","787063","0.0-91.0","","656776a7904ae00d6b91d1dd","6568ad05c66989571b2bc25a","9","","","","","","","","","","","","2830","[""SV_PolicingMSA/NV_189/IMG_9_189.jpg"",""SV_PolicingMSA/NV_189/IMG_5_189.jpg"",""SV_PolicingMSA/NV_189/IMG_7_189.jpg"",""SV_PolicingMSA/NV_189/IMG_8_189.jpg"",""SV_PolicingMSA/NV_189/IMG_4_189.jpg"",""SV_PolicingMSA/NV_189/IMG_11_189.jpg"",""SV_PolicingMSA/NV_189/IMG_10_189.jpg"",""SV_PolicingMSA/NV_189/IMG_6_189.jpg""]","1","","","","","","1","","4","[""./rc_img/cop_condGroup_11_SafeStreets_autoscaled.png"",""./rc_img/cop_condGroup_11_CommunitySafety_autoscaled.png""]","7","",""
"sliderTrial_attention","html-slider-response","92","797580","0.0-92.0","","656776a7904ae00d6b91d1dd","6568ad05c66989571b2bc25a","9","","","","","","","","","","","","null","[""SV_PolicingMSA/NV_189/IMG_9_189.jpg"",""SV_PolicingMSA/NV_189/IMG_5_189.jpg"",""SV_PolicingMSA/NV_189/IMG_7_189.jpg"",""SV_PolicingMSA/NV_189/IMG_8_189.jpg"",""SV_PolicingMSA/NV_189/IMG_4_189.jpg"",""SV_PolicingMSA/NV_189/IMG_11_189.jpg"",""SV_PolicingMSA/NV_189/IMG_10_189.jpg"",""SV_PolicingMSA/NV_189/IMG_6_189.jpg""]","null","","","","","","1","","4","[""./assets/img/attnchk.png"",""./assets/img/attnchk.png""]","","true",""
"sliderTrial","html-slider-response","93","804135","0.0-93.0","","656776a7904ae00d6b91d1dd","6568ad05c66989571b2bc25a","9","","","","","","","","","","","","6552","[""SV_PolicingMSA/NV_189/IMG_9_189.jpg"",""SV_PolicingMSA/NV_189/IMG_5_189.jpg"",""SV_PolicingMSA/NV_189/IMG_7_189.jpg"",""SV_PolicingMSA/NV_189/IMG_8_189.jpg"",""SV_PolicingMSA/NV_189/IMG_4_189.jpg"",""SV_PolicingMSA/NV_189/IMG_11_189.jpg"",""SV_PolicingMSA/NV_189/IMG_10_189.jpg"",""SV_PolicingMSA/NV_189/IMG_6_189.jpg""]","1","","","","","","1","","4","[""./rc_img/cop_condGroup_9_SafeStreets_autoscaled.png"",""./rc_img/cop_condGroup_9_CommunitySafety_autoscaled.png""]","7","",""
"before_SVSlide_prompt","html-button-response","94","805647","0.0-94.0","","656776a7904ae00d6b91d1dd","6568ad05c66989571b2bc25a","9","","","","","","","","","","","","1511","Click [Next] to see the next neighborhood!","0","","","","","","","","","","","",""
"street view slide show","image-button-response","95","806662","0.0-95.0","","656776a7904ae00d6b91d1dd","6568ad05c66989571b2bc25a","9","","","","","","","","","","","","null","stimulus/SV_PolicingMSA/NV_173/IMG_7_173.jpg","null","","","","","","3","","","","","",""
"street view slide show","image-button-response","96","807683","0.0-96.0","","656776a7904ae00d6b91d1dd","6568ad05c66989571b2bc25a","9","","","","","","","","","","","","null","stimulus/SV_PolicingMSA/NV_173/IMG_4_173.jpg","null","","","","","","3","","","","","",""
"street view slide show","image-button-response","97","808698","0.0-97.0","","656776a7904ae00d6b91d1dd","6568ad05c66989571b2bc25a","9","","","","","","","","","","","","null","stimulus/SV_PolicingMSA/NV_173/IMG_6_173.jpg","null","","","","","","3","","","","","",""
"street view slide show","image-button-response","98","809720","0.0-98.0","","656776a7904ae00d6b91d1dd","6568ad05c66989571b2bc25a","9","","","","","","","","","","","","null","stimulus/SV_PolicingMSA/NV_173/IMG_14_173.jpg","null","","","","","","3","","","","","",""
"street view slide show","image-button-response","99","810737","0.0-99.0","","656776a7904ae00d6b91d1dd","6568ad05c66989571b2bc25a","9","","","","","","","","","","","","null","stimulus/SV_PolicingMSA/NV_173/IMG_10_173.jpg","null","","","","","","3","","","","","",""
"street view slide show","image-button-response","100","811755","0.0-100.0","","656776a7904ae00d6b91d1dd","6568ad05c66989571b2bc25a","9","","","","","","","","","","","","null","stimulus/SV_PolicingMSA/NV_173/IMG_8_173.jpg","null","","","","","","3","","","","","",""
"street view slide show","image-button-response","101","812771","0.0-101.0","","656776a7904ae00d6b91d1dd","6568ad05c66989571b2bc25a","9","","","","","","","","","","","","null","stimulus/SV_PolicingMSA/NV_173/IMG_13_173.jpg","null","","","","","","3","","","","","",""
"street view slide show","image-button-response","102","813790","0.0-102.0","","656776a7904ae00d6b91d1dd","6568ad05c66989571b2bc25a","9","","","","","","","","","","","","null","stimulus/SV_PolicingMSA/NV_173/IMG_0_173.jpg","null","","","","","","3","","","","","",""
"dot matrix survey1","survey","103","843866","0.0-103.0","","656776a7904ae00d6b91d1dd","6568ad05c66989571b2bc25a","9","","","","","","","","","","","","30056","","{""P0_Q0"":null,""P0_Q1"":{""wealthy"":2,""safe"":3,""walkable"":4,""traditional"":4,""diverse"":2}}","","","","","","3","[]","","","","",""
"dot matrix survey2","survey","104","859763","0.0-104.0","","656776a7904ae00d6b91d1dd","6568ad05c66989571b2bc25a","9","","","","","","","","","","","","15882","","{""P0_Q0"":null,""P0_Q1"":{""violence"":1,""crime"":1,""drug"":2,""schools"":2,""opportunities"":2}}","","","","","","3","[]","","","","",""
"dot matrix survey3","survey","105","883326","0.0-105.0","","656776a7904ae00d6b91d1dd","6568ad05c66989571b2bc25a","9","","","","","","","","","","","","23549","","{""P0_Q0"":null,""P0_Q1"":{""movein"":3,""moveout"":1,""shopping"":4,""walk"":0,""park"":2,""school"":3}}","","","","","","3","[]","","","","",""
"sliderTrial","html-slider-response","106","886935","0.0-106.0","","656776a7904ae00d6b91d1dd","6568ad05c66989571b2bc25a","9","","","","","","","","","","","","3607","[""SV_PolicingMSA/NV_173/IMG_7_173.jpg"",""SV_PolicingMSA/NV_173/IMG_4_173.jpg"",""SV_PolicingMSA/NV_173/IMG_6_173.jpg"",""SV_PolicingMSA/NV_173/IMG_14_173.jpg"",""SV_PolicingMSA/NV_173/IMG_10_173.jpg"",""SV_PolicingMSA/NV_173/IMG_8_173.jpg"",""SV_PolicingMSA/NV_173/IMG_13_173.jpg"",""SV_PolicingMSA/NV_173/IMG_0_173.jpg""]","1","","","","","","3","","4","[""./rc_img/cop_condGroup_6_CommunitySafety_autoscaled.png"",""./rc_img/cop_condGroup_6_SafeStreets_autoscaled.png""]","1","",""
"sliderTrial","html-slider-response","107","890039","0.0-107.0","","656776a7904ae00d6b91d1dd","6568ad05c66989571b2bc25a","9","","","","","","","","","","","","3103","[""SV_PolicingMSA/NV_173/IMG_7_173.jpg"",""SV_PolicingMSA/NV_173/IMG_4_173.jpg"",""SV_PolicingMSA/NV_173/IMG_6_173.jpg"",""SV_PolicingMSA/NV_173/IMG_14_173.jpg"",""SV_PolicingMSA/NV_173/IMG_10_173.jpg"",""SV_PolicingMSA/NV_173/IMG_8_173.jpg"",""SV_PolicingMSA/NV_173/IMG_13_173.jpg"",""SV_PolicingMSA/NV_173/IMG_0_173.jpg""]","1","","","","","","3","","4","[""./rc_img/cop_condGroup_8_CommunitySafety_autoscaled.png"",""./rc_img/cop_condGroup_8_SafeStreets_autoscaled.png""]","1","",""
"sliderTrial","html-slider-response","108","892639","0.0-108.0","","656776a7904ae00d6b91d1dd","6568ad05c66989571b2bc25a","9","","","","","","","","","","","","2598","[""SV_PolicingMSA/NV_173/IMG_7_173.jpg"",""SV_PolicingMSA/NV_173/IMG_4_173.jpg"",""SV_PolicingMSA/NV_173/IMG_6_173.jpg"",""SV_PolicingMSA/NV_173/IMG_14_173.jpg"",""SV_PolicingMSA/NV_173/IMG_10_173.jpg"",""SV_PolicingMSA/NV_173/IMG_8_173.jpg"",""SV_PolicingMSA/NV_173/IMG_13_173.jpg"",""SV_PolicingMSA/NV_173/IMG_0_173.jpg""]","1","","","","","","3","","4","[""./rc_img/cop_condGroup_3_CommunitySafety_autoscaled.png"",""./rc_img/cop_condGroup_3_SafeStreets_autoscaled.png""]","1","",""
"sliderTrial","html-slider-response","109","895767","0.0-109.0","","656776a7904ae00d6b91d1dd","6568ad05c66989571b2bc25a","9","","","","","","","","","","","","3127","[""SV_PolicingMSA/NV_173/IMG_7_173.jpg"",""SV_PolicingMSA/NV_173/IMG_4_173.jpg"",""SV_PolicingMSA/NV_173/IMG_6_173.jpg"",""SV_PolicingMSA/NV_173/IMG_14_173.jpg"",""SV_PolicingMSA/NV_173/IMG_10_173.jpg"",""SV_PolicingMSA/NV_173/IMG_8_173.jpg"",""SV_PolicingMSA/NV_173/IMG_13_173.jpg"",""SV_PolicingMSA/NV_173/IMG_0_173.jpg""]","7","","","","","","3","","4","[""./rc_img/cop_condGroup_11_SafeStreets_autoscaled.png"",""./rc_img/cop_condGroup_11_CommunitySafety_autoscaled.png""]","1","",""
"sliderTrial","html-slider-response","110","899007","0.0-110.0","","656776a7904ae00d6b91d1dd","6568ad05c66989571b2bc25a","9","","","","","","","","","","","","3238","[""SV_PolicingMSA/NV_173/IMG_7_173.jpg"",""SV_PolicingMSA/NV_173/IMG_4_173.jpg"",""SV_PolicingMSA/NV_173/IMG_6_173.jpg"",""SV_PolicingMSA/NV_173/IMG_14_173.jpg"",""SV_PolicingMSA/NV_173/IMG_10_173.jpg"",""SV_PolicingMSA/NV_173/IMG_8_173.jpg"",""SV_PolicingMSA/NV_173/IMG_13_173.jpg"",""SV_PolicingMSA/NV_173/IMG_0_173.jpg""]","7","","","","","","3","","4","[""./rc_img/cop_condGroup_9_SafeStreets_autoscaled.png"",""./rc_img/cop_condGroup_9_CommunitySafety_autoscaled.png""]","1","",""
"before_SVSlide_prompt","html-button-response","111","900927","0.0-111.0","","656776a7904ae00d6b91d1dd","6568ad05c66989571b2bc25a","9","","","","","","","","","","","","1919","Click [Next] to see the next neighborhood!","0","","","","","","","","","","","",""
"street view slide show","image-button-response","112","901942","0.0-112.0","","656776a7904ae00d6b91d1dd","6568ad05c66989571b2bc25a","9","","","","","","","","","","","","null","stimulus/SV_PolicingMSA/NV_673/IMG_5_673.jpg","null","","","","","","5","","","","","",""
"street view slide show","image-button-response","113","902957","0.0-113.0","","656776a7904ae00d6b91d1dd","6568ad05c66989571b2bc25a","9","","","","","","","","","","","","null","stimulus/SV_PolicingMSA/NV_673/IMG_1_673.jpg","null","","","","","","5","","","","","",""
"street view slide show","image-button-response","114","903972","0.0-114.0","","656776a7904ae00d6b91d1dd","6568ad05c66989571b2bc25a","9","","","","","","","","","","","","null","stimulus/SV_PolicingMSA/NV_673/IMG_12_673.jpg","null","","","","","","5","","","","","",""
"street view slide show","image-button-response","115","904990","0.0-115.0","","656776a7904ae00d6b91d1dd","6568ad05c66989571b2bc25a","9","","","","","","","","","","","","null","stimulus/SV_PolicingMSA/NV_673/IMG_7_673.jpg","null","","","","","","5","","","","","",""
"street view slide show","image-button-response","116","906005","0.0-116.0","","656776a7904ae00d6b91d1dd","6568ad05c66989571b2bc25a","9","","","","","","","","","","","","null","stimulus/SV_PolicingMSA/NV_673/IMG_13_673.jpg","null","","","","","","5","","","","","",""
"street view slide show","image-button-response","117","907023","0.0-117.0","","656776a7904ae00d6b91d1dd","6568ad05c66989571b2bc25a","9","","","","","","","","","","","","null","stimulus/SV_PolicingMSA/NV_673/IMG_8_673.jpg","null","","","","","","5","","","","","",""
"street view slide show","image-button-response","118","908035","0.0-118.0","","656776a7904ae00d6b91d1dd","6568ad05c66989571b2bc25a","9","","","","","","","","","","","","null","stimulus/SV_PolicingMSA/NV_673/IMG_4_673.jpg","null","","","","","","5","","","","","",""
"street view slide show","image-button-response","119","909057","0.0-119.0","","656776a7904ae00d6b91d1dd","6568ad05c66989571b2bc25a","9","","","","","","","","","","","","null","stimulus/SV_PolicingMSA/NV_673/IMG_14_673.jpg","null","","","","","","5","","","","","",""
"dot matrix survey1","survey","120","937455","0.0-120.0","","656776a7904ae00d6b91d1dd","6568ad05c66989571b2bc25a","9","","","","","","","","","","","","28380","","{""P0_Q0"":null,""P0_Q1"":{""wealthy"":2,""safe"":4,""walkable"":4,""traditional"":3,""diverse"":3}}","","","","","","5","[]","","","","",""
"dot matrix survey2","survey","121","959021","0.0-121.0","","656776a7904ae00d6b91d1dd","6568ad05c66989571b2bc25a","9","","","","","","","","","","","","21557","","{""P0_Q0"":null,""P0_Q1"":{""violence"":0,""crime"":1,""drug"":1,""schools"":2,""opportunities"":1}}","","","","","","5","[]","","","","",""
"dot matrix survey3","survey","122","977507","0.0-122.0","","656776a7904ae00d6b91d1dd","6568ad05c66989571b2bc25a","9","","","","","","","","","","","","18478","","{""P0_Q0"":null,""P0_Q1"":{""movein"":3,""moveout"":1,""shopping"":3,""walk"":0,""park"":2,""school"":3}}","","","","","","5","[]","","","","",""
"sliderTrial","html-slider-response","123","981000","0.0-123.0","","656776a7904ae00d6b91d1dd","6568ad05c66989571b2bc25a","9","","","","","","","","","","","","3490","[""SV_PolicingMSA/NV_673/IMG_5_673.jpg"",""SV_PolicingMSA/NV_673/IMG_1_673.jpg"",""SV_PolicingMSA/NV_673/IMG_12_673.jpg"",""SV_PolicingMSA/NV_673/IMG_7_673.jpg"",""SV_PolicingMSA/NV_673/IMG_13_673.jpg"",""SV_PolicingMSA/NV_673/IMG_8_673.jpg"",""SV_PolicingMSA/NV_673/IMG_4_673.jpg"",""SV_PolicingMSA/NV_673/IMG_14_673.jpg""]","7","","","","","","5","","4","[""./rc_img/cop_condGroup_16_SafeStreets_autoscaled.png"",""./rc_img/cop_condGroup_16_CommunitySafety_autoscaled.png""]","1","",""
"sliderTrial","html-slider-response","124","984888","0.0-124.0","","656776a7904ae00d6b91d1dd","6568ad05c66989571b2bc25a","9","","","","","","","","","","","","3887","[""SV_PolicingMSA/NV_673/IMG_5_673.jpg"",""SV_PolicingMSA/NV_673/IMG_1_673.jpg"",""SV_PolicingMSA/NV_673/IMG_12_673.jpg"",""SV_PolicingMSA/NV_673/IMG_7_673.jpg"",""SV_PolicingMSA/NV_673/IMG_13_673.jpg"",""SV_PolicingMSA/NV_673/IMG_8_673.jpg"",""SV_PolicingMSA/NV_673/IMG_4_673.jpg"",""SV_PolicingMSA/NV_673/IMG_14_673.jpg""]","1","","","","","","5","","4","[""./rc_img/cop_condGroup_14_CommunitySafety_autoscaled.png"",""./rc_img/cop_condGroup_14_SafeStreets_autoscaled.png""]","1","",""
"sliderTrial","html-slider-response","125","988159","0.0-125.0","","656776a7904ae00d6b91d1dd","6568ad05c66989571b2bc25a","9","","","","","","","","","","","","3270","[""SV_PolicingMSA/NV_673/IMG_5_673.jpg"",""SV_PolicingMSA/NV_673/IMG_1_673.jpg"",""SV_PolicingMSA/NV_673/IMG_12_673.jpg"",""SV_PolicingMSA/NV_673/IMG_7_673.jpg"",""SV_PolicingMSA/NV_673/IMG_13_673.jpg"",""SV_PolicingMSA/NV_673/IMG_8_673.jpg"",""SV_PolicingMSA/NV_673/IMG_4_673.jpg"",""SV_PolicingMSA/NV_673/IMG_14_673.jpg""]","7","","","","","","5","","4","[""./rc_img/cop_condGroup_18_SafeStreets_autoscaled.png"",""./rc_img/cop_condGroup_18_CommunitySafety_autoscaled.png""]","1","",""
"sliderTrial","html-slider-response","126","992432","0.0-126.0","","656776a7904ae00d6b91d1dd","6568ad05c66989571b2bc25a","9","","","","","","","","","","","","4270","[""SV_PolicingMSA/NV_673/IMG_5_673.jpg"",""SV_PolicingMSA/NV_673/IMG_1_673.jpg"",""SV_PolicingMSA/NV_673/IMG_12_673.jpg"",""SV_PolicingMSA/NV_673/IMG_7_673.jpg"",""SV_PolicingMSA/NV_673/IMG_13_673.jpg"",""SV_PolicingMSA/NV_673/IMG_8_673.jpg"",""SV_PolicingMSA/NV_673/IMG_4_673.jpg"",""SV_PolicingMSA/NV_673/IMG_14_673.jpg""]","1","","","","","","5","","4","[""./rc_img/cop_condGroup_19_CommunitySafety_autoscaled.png"",""./rc_img/cop_condGroup_19_SafeStreets_autoscaled.png""]","1","",""
"sliderTrial","html-slider-response","127","995143","0.0-127.0","","656776a7904ae00d6b91d1dd","6568ad05c66989571b2bc25a","9","","","","","","","","","","","","2712","[""SV_PolicingMSA/NV_673/IMG_5_673.jpg"",""SV_PolicingMSA/NV_673/IMG_1_673.jpg"",""SV_PolicingMSA/NV_673/IMG_12_673.jpg"",""SV_PolicingMSA/NV_673/IMG_7_673.jpg"",""SV_PolicingMSA/NV_673/IMG_13_673.jpg"",""SV_PolicingMSA/NV_673/IMG_8_673.jpg"",""SV_PolicingMSA/NV_673/IMG_4_673.jpg"",""SV_PolicingMSA/NV_673/IMG_14_673.jpg""]","7","","","","","","5","","4","[""./rc_img/cop_condGroup_20_SafeStreets_autoscaled.png"",""./rc_img/cop_condGroup_20_CommunitySafety_autoscaled.png""]","1","",""
"before_SVSlide_prompt","html-button-response","128","996919","0.0-128.0","","656776a7904ae00d6b91d1dd","6568ad05c66989571b2bc25a","9","","","","","","","","","","","","1775","Click [Next] to see the next neighborhood!","0","","","","","","","","","","","",""
"street view slide show","image-button-response","129","997930","0.0-129.0","","656776a7904ae00d6b91d1dd","6568ad05c66989571b2bc25a","9","","","","","","","","","","","","null","stimulus/SV_PolicingMSA/NV_754/IMG_4_754.jpg","null","","","","","","4","","","","","",""
"street view slide show","image-button-response","130","998939","0.0-130.0","","656776a7904ae00d6b91d1dd","6568ad05c66989571b2bc25a","9","","","","","","","","","","","","null","stimulus/SV_PolicingMSA/NV_754/IMG_1_754.jpg","null","","","","","","4","","","","","",""
"street view slide show","image-button-response","131","999952","0.0-131.0","","656776a7904ae00d6b91d1dd","6568ad05c66989571b2bc25a","9","","","","","","","","","","","","null","stimulus/SV_PolicingMSA/NV_754/IMG_6_754.jpg","null","","","","","","4","","","","","",""
"street view slide show","image-button-response","132","1000959","0.0-132.0","","656776a7904ae00d6b91d1dd","6568ad05c66989571b2bc25a","9","","","","","","","","","","","","null","stimulus/SV_PolicingMSA/NV_754/IMG_2_754.jpg","null","","","","","","4","","","","","",""
"street view slide show","image-button-response","133","1001965","0.0-133.0","","656776a7904ae00d6b91d1dd","6568ad05c66989571b2bc25a","9","","","","","","","","","","","","null","stimulus/SV_PolicingMSA/NV_754/IMG_10_754.jpg","null","","","","","","4","","","","","",""
"street view slide show","image-button-response","134","1002978","0.0-134.0","","656776a7904ae00d6b91d1dd","6568ad05c66989571b2bc25a","9","","","","","","","","","","","","null","stimulus/SV_PolicingMSA/NV_754/IMG_8_754.jpg","null","","","","","","4","","","","","",""
"street view slide show","image-button-response","135","1003997","0.0-135.0","","656776a7904ae00d6b91d1dd","6568ad05c66989571b2bc25a","9","","","","","","","","","","","","null","stimulus/SV_PolicingMSA/NV_754/IMG_14_754.jpg","null","","","","","","4","","","","","",""
"street view slide show","image-button-response","136","1005003","0.0-136.0","","656776a7904ae00d6b91d1dd","6568ad05c66989571b2bc25a","9","","","","","","","","","","","","null","stimulus/SV_PolicingMSA/NV_754/IMG_0_754.jpg","null","","","","","","4","","","","","",""
"dot matrix survey1","survey","137","1028670","0.0-137.0","","656776a7904ae00d6b91d1dd","6568ad05c66989571b2bc25a","9","","","","","","","","","","","","23649","","{""P0_Q0"":null,""P0_Q1"":{""wealthy"":2,""safe"":4,""walkable"":4,""traditional"":4,""diverse"":3}}","","","","","","4","[]","","","","",""
"dot matrix survey2","survey","138","1042027","0.0-138.0","","656776a7904ae00d6b91d1dd","6568ad05c66989571b2bc25a","9","","","","","","","","","","","","13348","","{""P0_Q0"":null,""P0_Q1"":{""violence"":0,""crime"":0,""drug"":1,""schools"":3,""opportunities"":2}}","","","","","","4","[]","","","","",""
"dot matrix survey3","survey","139","1057222","0.0-139.0","","656776a7904ae00d6b91d1dd","6568ad05c66989571b2bc25a","9","","","","","","","","","","","","15179","","{""P0_Q0"":null,""P0_Q1"":{""movein"":3,""moveout"":1,""shopping"":4,""walk"":1,""park"":2,""school"":3}}","","","","","","4","[]","","","","",""
"sliderTrial","html-slider-response","140","1061351","0.0-140.0","","656776a7904ae00d6b91d1dd","6568ad05c66989571b2bc25a","9","","","","","","","","","","","","4128","[""SV_PolicingMSA/NV_754/IMG_4_754.jpg"",""SV_PolicingMSA/NV_754/IMG_1_754.jpg"",""SV_PolicingMSA/NV_754/IMG_6_754.jpg"",""SV_PolicingMSA/NV_754/IMG_2_754.jpg"",""SV_PolicingMSA/NV_754/IMG_10_754.jpg"",""SV_PolicingMSA/NV_754/IMG_8_754.jpg"",""SV_PolicingMSA/NV_754/IMG_14_754.jpg"",""SV_PolicingMSA/NV_754/IMG_0_754.jpg""]","7","","","","","","4","","4","[""./rc_img/cop_condGroup_12_SafeStreets_autoscaled.png"",""./rc_img/cop_condGroup_12_CommunitySafety_autoscaled.png""]","1","",""
"sliderTrial","html-slider-response","141","1064047","0.0-141.0","","656776a7904ae00d6b91d1dd","6568ad05c66989571b2bc25a","9","","","","","","","","","","","","2695","[""SV_PolicingMSA/NV_754/IMG_4_754.jpg"",""SV_PolicingMSA/NV_754/IMG_1_754.jpg"",""SV_PolicingMSA/NV_754/IMG_6_754.jpg"",""SV_PolicingMSA/NV_754/IMG_2_754.jpg"",""SV_PolicingMSA/NV_754/IMG_10_754.jpg"",""SV_PolicingMSA/NV_754/IMG_8_754.jpg"",""SV_PolicingMSA/NV_754/IMG_14_754.jpg"",""SV_PolicingMSA/NV_754/IMG_0_754.jpg""]","1","","","","","","4","","4","[""./rc_img/cop_condGroup_13_CommunitySafety_autoscaled.png"",""./rc_img/cop_condGroup_13_SafeStreets_autoscaled.png""]","1","",""
"sliderTrial","html-slider-response","142","1067695","0.0-142.0","","656776a7904ae00d6b91d1dd","6568ad05c66989571b2bc25a","9","","","","","","","","","","","","3647","[""SV_PolicingMSA/NV_754/IMG_4_754.jpg"",""SV_PolicingMSA/NV_754/IMG_1_754.jpg"",""SV_PolicingMSA/NV_754/IMG_6_754.jpg"",""SV_PolicingMSA/NV_754/IMG_2_754.jpg"",""SV_PolicingMSA/NV_754/IMG_10_754.jpg"",""SV_PolicingMSA/NV_754/IMG_8_754.jpg"",""SV_PolicingMSA/NV_754/IMG_14_754.jpg"",""SV_PolicingMSA/NV_754/IMG_0_754.jpg""]","1","","","","","","4","","4","[""./rc_img/cop_condGroup_10_CommunitySafety_autoscaled.png"",""./rc_img/cop_condGroup_10_SafeStreets_autoscaled.png""]","1","",""
"sliderTrial","html-slider-response","143","1071567","0.0-143.0","","656776a7904ae00d6b91d1dd","6568ad05c66989571b2bc25a","9","","","","","","","","","","","","3871","[""SV_PolicingMSA/NV_754/IMG_4_754.jpg"",""SV_PolicingMSA/NV_754/IMG_1_754.jpg"",""SV_PolicingMSA/NV_754/IMG_6_754.jpg"",""SV_PolicingMSA/NV_754/IMG_2_754.jpg"",""SV_PolicingMSA/NV_754/IMG_10_754.jpg"",""SV_PolicingMSA/NV_754/IMG_8_754.jpg"",""SV_PolicingMSA/NV_754/IMG_14_754.jpg"",""SV_PolicingMSA/NV_754/IMG_0_754.jpg""]","1","","","","","","4","","4","[""./rc_img/cop_condGroup_15_CommunitySafety_autoscaled.png"",""./rc_img/cop_condGroup_15_SafeStreets_autoscaled.png""]","1","",""
"sliderTrial","html-slider-response","144","1075088","0.0-144.0","","656776a7904ae00d6b91d1dd","6568ad05c66989571b2bc25a","9","","","","","","","","","","","","3519","[""SV_PolicingMSA/NV_754/IMG_4_754.jpg"",""SV_PolicingMSA/NV_754/IMG_1_754.jpg"",""SV_PolicingMSA/NV_754/IMG_6_754.jpg"",""SV_PolicingMSA/NV_754/IMG_2_754.jpg"",""SV_PolicingMSA/NV_754/IMG_10_754.jpg"",""SV_PolicingMSA/NV_754/IMG_8_754.jpg"",""SV_PolicingMSA/NV_754/IMG_14_754.jpg"",""SV_PolicingMSA/NV_754/IMG_0_754.jpg""]","1","","","","","","4","","4","[""./rc_img/cop_condGroup_17_CommunitySafety_autoscaled.png"",""./rc_img/cop_condGroup_17_SafeStreets_autoscaled.png""]","1","",""
"demographics","survey-html-form","145","1103122","0.0-145.0","","656776a7904ae00d6b91d1dd","6568ad05c66989571b2bc25a","9","","","","","","","","","","","","28033","","{""age"":""30"",""sex"":""male"",""gender"":""man"",""gender-self-describe"":"""",""zipcode"":""01602""}","","","","","","","","","","","",""
"demographics-list","survey","146","1160133","0.0-146.0","","656776a7904ae00d6b91d1dd","6568ad05c66989571b2bc25a","9","","","","","","","","","","","","56978","","{""P0_Q0"":null,""race-ethnicity"":[""Hispanic or Latinx""],""education"":""High school diploma or equivalent"",""P1_Q0"":null,""ideology"":""Liberal"",""P2_Q0"":null,""num-moves"":5,""P3_Q0"":null,""social-ladder"":3}","","","","","","","[]","","","","",""
"end-survey","survey-text","147","1185489","0.0-147.0","","656776a7904ae00d6b91d1dd","6568ad05c66989571b2bc25a","9","","","","","","","","","","","","25349","","{""Q0"":""Thank you for the study, I answered honestly and to the best of my abilities.""}","","","","","","","","","","","","2"
"end-survey","html-button-response","148","1189368","0.0-148.0","","656776a7904ae00d6b91d1dd","6568ad05c66989571b2bc25a","9","","","","","","","","","","","","3878","
    You've reached the end of the survey. <br><br> 
    <b>Do not close or refresh this window.</b><br>
    On the next page, you will be automatically redirected to Prolific. <br><br>

    <div class=""alert alert-warning""><b>
    </div>
","0","","","","","","","","","","","",""
