"task","trial_type","trial_index","time_elapsed","internal_node_id","subject_id","study_id","session_id","section","width","height","webaudio","browser","browser_version","mobile","os","fullscreen","vsync_rate","webcam","microphone","rt","stimulus","response","success","timeout","failed_images","failed_audio","failed_video","block","accuracy","slider_start","choices","standardized_response","correct","num_attention_checks_correct"
"pavlovia-init","pavlovia","0","1139","0.0-0.0","","656776a7904ae00d6b91d1dd","6568ada07d6d1fdef115b01e","14","","","","","","","","","","","","","","","","","","","","","","","","","",""
"browser-check","browser-check","1","2139","0.0-1.0","","656776a7904ae00d6b91d1dd","6568ada07d6d1fdef115b01e","14","1920","955","true","chrome","119.0.0","false","Windows 10","true","60.4","true","true","","","","","","","","","","","","","","",""
"consent","html-button-response","2","4491","0.0-2.0","","656776a7904ae00d6b91d1dd","6568ada07d6d1fdef115b01e","14","","","","","","","","","","","","2350","
        <div style=""font-size: 80%; max-width:700px"">
            <h2>CONSENT FORM</h2>
        
            <div style=""text-align: left"">
            <h4>DESCRIPTION</h4>
            <p>
            You will complete a short task where you give your impressions of various neighborhoods and assign individuals to those spaces, and answer some questions about your thoughts and opinions.<br>
            The University of Michigan Institutional Review Board Health Sciences and Behavioral Sciences has determined that this study is exempt from IRB oversight.
            </p>

            <h4>TIME INVOLVEMENT</h4>
            <p>Your participation will take approximately 15 minutes. You will receive $3.15 upon completion of the study.</p>
        
            <h4>RISKS AND BENEFITS</h4>
            <p>
            The risks associated with this study are minimal. The benefits which may reasonably be expected to result from this study are none. We cannot and do not guarantee or promise that you will receive any benefits from this study.
            </p>
          
            <h4>SUBJECT'S RIGHTS</h4>
            <p>
            If you have read this form and have decided to participate in this project, please understand your participation is voluntary and you have the right to withdraw your consent or discontinue participation at any time without penalty or loss of benefits to which you are otherwise entitled. The alternative is not to participate. You have the right to refuse to answer particular questions. Your individual privacy will be maintained in all published and written data resulting from the study.
            </p>

            <h4>HUMAN SUBJECT APPROVAL</h4>
            <p>
            This study is exempt from ongoing IRB review.
            </p>

            <h4>CONTACT INFORMATION</h4>
            If you have any questions, concerns or complaints about this research, its procedures, risks and benefits, contact the Protocol Director, Nicholas Camp, npcamp@umich.edu, (443) 851-6783. <br>

            If you have questions about your rights as a research participant, or wish to obtain information, ask questions or discuss any concerns about this study with someone other than the researcher(s), please contact the following:<br><br>
            University of Michigan<br>
            Health Sciences and Behavioral Sciences Institutional Review Board (IRB-HSBS)<br>
            2800 Plymouth Road<br>
            Building 520, Room 1169Ann Arbor, MI 48109-2800<br>
            Telephone: 734-936-0933 or toll free (866) 936-0933<br>
            Fax: 734-936-1852<br>
            E-mail: irbhsbs@umich.edu<br><br>

            You can also contact the University of Michigan Compliance Hotline at 1-866-990-0111. You may also print this consent form to keep.
            <br><br>
            <div class=""alert alert-warning""><b>
            Do you consent to participate in this study? If you consent to participate in this study, please click “Accept and Continue”. If you select ""Decline and Exit"", you will be exited from the survey. <br>
            </b></div>
            </div>
        </div>
    ","1","","","","","","","","","","","",""
"","preload","3","8549","0.0-3.0","","656776a7904ae00d6b91d1dd","6568ada07d6d1fdef115b01e","14","","","","","","","","","","","","","","","true","false","[]","[]","[]","","","","","","",""
"instructions","html-button-response","4","29132","0.0-4.0","","656776a7904ae00d6b91d1dd","6568ada07d6d1fdef115b01e","14","","","","","","","","","","","","20580","
        <div class=""text-container"">
        <h1>Welcome to the study!</h1>
        
        <div class=""text-left"">
            <p>
                In this study, we are interested in what people can tell about spaces from Google Street View images. <br> Google Street View takes pictures of streets used for Google Earth and Google Maps. <br>You’ll see Google Street View images of different places and answer some questions about each one.<br>
            </p>
        </div>
        <img src = ""assets/img/example.png"" width = 500px, height = auto>
        <br>
    <br>
    ","0","","","","","","","","","","","",""
"instructions","html-button-response","5","30485","0.0-5.0","","656776a7904ae00d6b91d1dd","6568ada07d6d1fdef115b01e","14","","","","","","","","","","","","1352","
    <div class=""text-container"">
        <div class=""text-center"">
            <p>Please remember that your answers are completely anonymous.<br>Go with your gut response- there are no right or wrong answers!</p>
        </div>
    <br>
","0","","","","","","","","","","","",""
"before_SVSlide_prompt","html-button-response","6","31012","0.0-6.0","","656776a7904ae00d6b91d1dd","6568ada07d6d1fdef115b01e","14","","","","","","","","","","","","526","Click [Next] to see the next neighborhood!","0","","","","","","","","","","","",""
"street view slide show","image-button-response","7","32023","0.0-7.0","","656776a7904ae00d6b91d1dd","6568ada07d6d1fdef115b01e","14","","","","","","","","","","","","null","stimulus/SV_PolicingMSA/GA_2658/IMG_13_2658.jpg","null","","","","","","4","","","","","",""
"street view slide show","image-button-response","8","33627","0.0-8.0","","656776a7904ae00d6b91d1dd","6568ada07d6d1fdef115b01e","14","","","","","","","","","","","","null","stimulus/SV_PolicingMSA/GA_2658/IMG_1_2658.jpg","null","","","","","","4","","","","","",""
"street view slide show","image-button-response","9","35641","0.0-9.0","","656776a7904ae00d6b91d1dd","6568ada07d6d1fdef115b01e","14","","","","","","","","","","","","null","stimulus/SV_PolicingMSA/GA_2658/IMG_12_2658.jpg","null","","","","","","4","","","","","",""
"street view slide show","image-button-response","10","37639","0.0-10.0","","656776a7904ae00d6b91d1dd","6568ada07d6d1fdef115b01e","14","","","","","","","","","","","","null","stimulus/SV_PolicingMSA/GA_2658/IMG_5_2658.jpg","null","","","","","","4","","","","","",""
"street view slide show","image-button-response","11","38650","0.0-11.0","","656776a7904ae00d6b91d1dd","6568ada07d6d1fdef115b01e","14","","","","","","","","","","","","null","stimulus/SV_PolicingMSA/GA_2658/IMG_7_2658.jpg","null","","","","","","4","","","","","",""
"street view slide show","image-button-response","12","39660","0.0-12.0","","656776a7904ae00d6b91d1dd","6568ada07d6d1fdef115b01e","14","","","","","","","","","","","","null","stimulus/SV_PolicingMSA/GA_2658/IMG_0_2658.jpg","null","","","","","","4","","","","","",""
"street view slide show","image-button-response","13","40677","0.0-13.0","","656776a7904ae00d6b91d1dd","6568ada07d6d1fdef115b01e","14","","","","","","","","","","","","null","stimulus/SV_PolicingMSA/GA_2658/IMG_14_2658.jpg","null","","","","","","4","","","","","",""
"street view slide show","image-button-response","14","41693","0.0-14.0","","656776a7904ae00d6b91d1dd","6568ada07d6d1fdef115b01e","14","","","","","","","","","","","","null","stimulus/SV_PolicingMSA/GA_2658/IMG_3_2658.jpg","null","","","","","","4","","","","","",""
"dot matrix survey1","survey","15","57688","0.0-15.0","","656776a7904ae00d6b91d1dd","6568ada07d6d1fdef115b01e","14","","","","","","","","","","","","15932","","{""P0_Q0"":null,""P0_Q1"":{""wealthy"":2,""safe"":2,""walkable"":3,""traditional"":3,""diverse"":2}}","","","","","","4","[]","","","","",""
"dot matrix survey2","survey","16","62593","0.0-16.0","","656776a7904ae00d6b91d1dd","6568ada07d6d1fdef115b01e","14","","","","","","","","","","","","4890","","{""P0_Q0"":null,""P0_Q1"":{""violence"":2,""crime"":2,""drug"":2,""schools"":3,""opportunities"":3}}","","","","","","4","[]","","","","",""
"dot matrix survey3","survey","17","73138","0.0-17.0","","656776a7904ae00d6b91d1dd","6568ada07d6d1fdef115b01e","14","","","","","","","","","","","","10533","","{""P0_Q0"":null,""P0_Q1"":{""movein"":2,""moveout"":2,""walk"":3,""shopping"":3,""park"":3,""school"":3}}","","","","","","4","[]","","","","",""
"sliderTrial","html-slider-response","18","75012","0.0-18.0","","656776a7904ae00d6b91d1dd","6568ada07d6d1fdef115b01e","14","","","","","","","","","","","","1870","[""SV_PolicingMSA/GA_2658/IMG_13_2658.jpg"",""SV_PolicingMSA/GA_2658/IMG_1_2658.jpg"",""SV_PolicingMSA/GA_2658/IMG_12_2658.jpg"",""SV_PolicingMSA/GA_2658/IMG_5_2658.jpg"",""SV_PolicingMSA/GA_2658/IMG_7_2658.jpg"",""SV_PolicingMSA/GA_2658/IMG_0_2658.jpg"",""SV_PolicingMSA/GA_2658/IMG_14_2658.jpg"",""SV_PolicingMSA/GA_2658/IMG_3_2658.jpg""]","3","","","","","","4","","4","[""./rc_img/cop_condGroup_18_CommunitySafety_autoscaled.png"",""./rc_img/cop_condGroup_18_SafeStreets_autoscaled.png""]","3","",""
"sliderTrial","html-slider-response","19","76699","0.0-19.0","","656776a7904ae00d6b91d1dd","6568ada07d6d1fdef115b01e","14","","","","","","","","","","","","1684","[""SV_PolicingMSA/GA_2658/IMG_13_2658.jpg"",""SV_PolicingMSA/GA_2658/IMG_1_2658.jpg"",""SV_PolicingMSA/GA_2658/IMG_12_2658.jpg"",""SV_PolicingMSA/GA_2658/IMG_5_2658.jpg"",""SV_PolicingMSA/GA_2658/IMG_7_2658.jpg"",""SV_PolicingMSA/GA_2658/IMG_0_2658.jpg"",""SV_PolicingMSA/GA_2658/IMG_14_2658.jpg"",""SV_PolicingMSA/GA_2658/IMG_3_2658.jpg""]","5","","","","","","4","","4","[""./rc_img/cop_condGroup_8_SafeStreets_autoscaled.png"",""./rc_img/cop_condGroup_8_CommunitySafety_autoscaled.png""]","3","",""
"sliderTrial","html-slider-response","20","77876","0.0-20.0","","656776a7904ae00d6b91d1dd","6568ada07d6d1fdef115b01e","14","","","","","","","","","","","","1173","[""SV_PolicingMSA/GA_2658/IMG_13_2658.jpg"",""SV_PolicingMSA/GA_2658/IMG_1_2658.jpg"",""SV_PolicingMSA/GA_2658/IMG_12_2658.jpg"",""SV_PolicingMSA/GA_2658/IMG_5_2658.jpg"",""SV_PolicingMSA/GA_2658/IMG_7_2658.jpg"",""SV_PolicingMSA/GA_2658/IMG_0_2658.jpg"",""SV_PolicingMSA/GA_2658/IMG_14_2658.jpg"",""SV_PolicingMSA/GA_2658/IMG_3_2658.jpg""]","3","","","","","","4","","4","[""./rc_img/cop_condGroup_6_CommunitySafety_autoscaled.png"",""./rc_img/cop_condGroup_6_SafeStreets_autoscaled.png""]","3","",""
"sliderTrial","html-slider-response","21","79345","0.0-21.0","","656776a7904ae00d6b91d1dd","6568ada07d6d1fdef115b01e","14","","","","","","","","","","","","1466","[""SV_PolicingMSA/GA_2658/IMG_13_2658.jpg"",""SV_PolicingMSA/GA_2658/IMG_1_2658.jpg"",""SV_PolicingMSA/GA_2658/IMG_12_2658.jpg"",""SV_PolicingMSA/GA_2658/IMG_5_2658.jpg"",""SV_PolicingMSA/GA_2658/IMG_7_2658.jpg"",""SV_PolicingMSA/GA_2658/IMG_0_2658.jpg"",""SV_PolicingMSA/GA_2658/IMG_14_2658.jpg"",""SV_PolicingMSA/GA_2658/IMG_3_2658.jpg""]","5","","","","","","4","","4","[""./rc_img/cop_condGroup_17_SafeStreets_autoscaled.png"",""./rc_img/cop_condGroup_17_CommunitySafety_autoscaled.png""]","3","",""
"sliderTrial","html-slider-response","22","80669","0.0-22.0","","656776a7904ae00d6b91d1dd","6568ada07d6d1fdef115b01e","14","","","","","","","","","","","","1320","[""SV_PolicingMSA/GA_2658/IMG_13_2658.jpg"",""SV_PolicingMSA/GA_2658/IMG_1_2658.jpg"",""SV_PolicingMSA/GA_2658/IMG_12_2658.jpg"",""SV_PolicingMSA/GA_2658/IMG_5_2658.jpg"",""SV_PolicingMSA/GA_2658/IMG_7_2658.jpg"",""SV_PolicingMSA/GA_2658/IMG_0_2658.jpg"",""SV_PolicingMSA/GA_2658/IMG_14_2658.jpg"",""SV_PolicingMSA/GA_2658/IMG_3_2658.jpg""]","3","","","","","","4","","4","[""./rc_img/cop_condGroup_4_CommunitySafety_autoscaled.png"",""./rc_img/cop_condGroup_4_SafeStreets_autoscaled.png""]","3","",""
"before_SVSlide_prompt","html-button-response","23","82153","0.0-23.0","","656776a7904ae00d6b91d1dd","6568ada07d6d1fdef115b01e","14","","","","","","","","","","","","1482","Click [Next] to see the next neighborhood!","0","","","","","","","","","","","",""
"street view slide show","image-button-response","24","83159","0.0-24.0","","656776a7904ae00d6b91d1dd","6568ada07d6d1fdef115b01e","14","","","","","","","","","","","","null","stimulus/SV_PolicingMSA/GA_2659/IMG_13_2659.jpg","null","","","","","","5","","","","","",""
"street view slide show","image-button-response","25","84629","0.0-25.0","","656776a7904ae00d6b91d1dd","6568ada07d6d1fdef115b01e","14","","","","","","","","","","","","null","stimulus/SV_PolicingMSA/GA_2659/IMG_1_2659.jpg","null","","","","","","5","","","","","",""
"street view slide show","image-button-response","26","85637","0.0-26.0","","656776a7904ae00d6b91d1dd","6568ada07d6d1fdef115b01e","14","","","","","","","","","","","","null","stimulus/SV_PolicingMSA/GA_2659/IMG_11_2659.jpg","null","","","","","","5","","","","","",""
"street view slide show","image-button-response","27","87631","0.0-27.0","","656776a7904ae00d6b91d1dd","6568ada07d6d1fdef115b01e","14","","","","","","","","","","","","null","stimulus/SV_PolicingMSA/GA_2659/IMG_5_2659.jpg","null","","","","","","5","","","","","",""
"street view slide show","image-button-response","28","89634","0.0-28.0","","656776a7904ae00d6b91d1dd","6568ada07d6d1fdef115b01e","14","","","","","","","","","","","","null","stimulus/SV_PolicingMSA/GA_2659/IMG_2_2659.jpg","null","","","","","","5","","","","","",""
"street view slide show","image-button-response","29","91634","0.0-29.0","","656776a7904ae00d6b91d1dd","6568ada07d6d1fdef115b01e","14","","","","","","","","","","","","null","stimulus/SV_PolicingMSA/GA_2659/IMG_14_2659.jpg","null","","","","","","5","","","","","",""
"street view slide show","image-button-response","30","93632","0.0-30.0","","656776a7904ae00d6b91d1dd","6568ada07d6d1fdef115b01e","14","","","","","","","","","","","","null","stimulus/SV_PolicingMSA/GA_2659/IMG_7_2659.jpg","null","","","","","","5","","","","","",""
"street view slide show","image-button-response","31","95642","0.0-31.0","","656776a7904ae00d6b91d1dd","6568ada07d6d1fdef115b01e","14","","","","","","","","","","","","null","stimulus/SV_PolicingMSA/GA_2659/IMG_8_2659.jpg","null","","","","","","5","","","","","",""
"dot matrix survey1","survey","32","109536","0.0-32.0","","656776a7904ae00d6b91d1dd","6568ada07d6d1fdef115b01e","14","","","","","","","","","","","","13837","","{""P0_Q0"":null,""P0_Q1"":{""wealthy"":1,""safe"":2,""walkable"":0,""traditional"":1,""diverse"":1}}","","","","","","5","[]","","","","",""
"dot matrix survey2","survey","33","114767","0.0-33.0","","656776a7904ae00d6b91d1dd","6568ada07d6d1fdef115b01e","14","","","","","","","","","","","","5214","","{""P0_Q0"":null,""P0_Q1"":{""violence"":1,""crime"":1,""drug"":1,""schools"":1,""opportunities"":1}}","","","","","","5","[]","","","","",""
"dot matrix survey3","survey","34","122931","0.0-34.0","","656776a7904ae00d6b91d1dd","6568ada07d6d1fdef115b01e","14","","","","","","","","","","","","8153","","{""P0_Q0"":null,""P0_Q1"":{""movein"":0,""moveout"":4,""shopping"":1,""walk"":1,""park"":1,""school"":1}}","","","","","","5","[]","","","","",""
"sliderTrial","html-slider-response","35","124744","0.0-35.0","","656776a7904ae00d6b91d1dd","6568ada07d6d1fdef115b01e","14","","","","","","","","","","","","1809","[""SV_PolicingMSA/GA_2659/IMG_13_2659.jpg"",""SV_PolicingMSA/GA_2659/IMG_1_2659.jpg"",""SV_PolicingMSA/GA_2659/IMG_11_2659.jpg"",""SV_PolicingMSA/GA_2659/IMG_5_2659.jpg"",""SV_PolicingMSA/GA_2659/IMG_2_2659.jpg"",""SV_PolicingMSA/GA_2659/IMG_14_2659.jpg"",""SV_PolicingMSA/GA_2659/IMG_7_2659.jpg"",""SV_PolicingMSA/GA_2659/IMG_8_2659.jpg""]","3","","","","","","5","","4","[""./rc_img/cop_condGroup_16_SafeStreets_autoscaled.png"",""./rc_img/cop_condGroup_16_CommunitySafety_autoscaled.png""]","5","",""
"sliderTrial","html-slider-response","36","126057","0.0-36.0","","656776a7904ae00d6b91d1dd","6568ada07d6d1fdef115b01e","14","","","","","","","","","","","","1310","[""SV_PolicingMSA/GA_2659/IMG_13_2659.jpg"",""SV_PolicingMSA/GA_2659/IMG_1_2659.jpg"",""SV_PolicingMSA/GA_2659/IMG_11_2659.jpg"",""SV_PolicingMSA/GA_2659/IMG_5_2659.jpg"",""SV_PolicingMSA/GA_2659/IMG_2_2659.jpg"",""SV_PolicingMSA/GA_2659/IMG_14_2659.jpg"",""SV_PolicingMSA/GA_2659/IMG_7_2659.jpg"",""SV_PolicingMSA/GA_2659/IMG_8_2659.jpg""]","5","","","","","","5","","4","[""./rc_img/cop_condGroup_11_CommunitySafety_autoscaled.png"",""./rc_img/cop_condGroup_11_SafeStreets_autoscaled.png""]","5","",""
"sliderTrial","html-slider-response","37","127799","0.0-37.0","","656776a7904ae00d6b91d1dd","6568ada07d6d1fdef115b01e","14","","","","","","","","","","","","1739","[""SV_PolicingMSA/GA_2659/IMG_13_2659.jpg"",""SV_PolicingMSA/GA_2659/IMG_1_2659.jpg"",""SV_PolicingMSA/GA_2659/IMG_11_2659.jpg"",""SV_PolicingMSA/GA_2659/IMG_5_2659.jpg"",""SV_PolicingMSA/GA_2659/IMG_2_2659.jpg"",""SV_PolicingMSA/GA_2659/IMG_14_2659.jpg"",""SV_PolicingMSA/GA_2659/IMG_7_2659.jpg"",""SV_PolicingMSA/GA_2659/IMG_8_2659.jpg""]","5","","","","","","5","","4","[""./rc_img/cop_condGroup_13_CommunitySafety_autoscaled.png"",""./rc_img/cop_condGroup_13_SafeStreets_autoscaled.png""]","5","",""
"sliderTrial","html-slider-response","38","129966","0.0-38.0","","656776a7904ae00d6b91d1dd","6568ada07d6d1fdef115b01e","14","","","","","","","","","","","","2163","[""SV_PolicingMSA/GA_2659/IMG_13_2659.jpg"",""SV_PolicingMSA/GA_2659/IMG_1_2659.jpg"",""SV_PolicingMSA/GA_2659/IMG_11_2659.jpg"",""SV_PolicingMSA/GA_2659/IMG_5_2659.jpg"",""SV_PolicingMSA/GA_2659/IMG_2_2659.jpg"",""SV_PolicingMSA/GA_2659/IMG_14_2659.jpg"",""SV_PolicingMSA/GA_2659/IMG_7_2659.jpg"",""SV_PolicingMSA/GA_2659/IMG_8_2659.jpg""]","3","","","","","","5","","4","[""./rc_img/cop_condGroup_7_CommunitySafety_autoscaled.png"",""./rc_img/cop_condGroup_7_SafeStreets_autoscaled.png""]","3","",""
"sliderTrial","html-slider-response","39","131552","0.0-39.0","","656776a7904ae00d6b91d1dd","6568ada07d6d1fdef115b01e","14","","","","","","","","","","","","1582","[""SV_PolicingMSA/GA_2659/IMG_13_2659.jpg"",""SV_PolicingMSA/GA_2659/IMG_1_2659.jpg"",""SV_PolicingMSA/GA_2659/IMG_11_2659.jpg"",""SV_PolicingMSA/GA_2659/IMG_5_2659.jpg"",""SV_PolicingMSA/GA_2659/IMG_2_2659.jpg"",""SV_PolicingMSA/GA_2659/IMG_14_2659.jpg"",""SV_PolicingMSA/GA_2659/IMG_7_2659.jpg"",""SV_PolicingMSA/GA_2659/IMG_8_2659.jpg""]","5","","","","","","5","","4","[""./rc_img/cop_condGroup_1_SafeStreets_autoscaled.png"",""./rc_img/cop_condGroup_1_CommunitySafety_autoscaled.png""]","3","",""
"before_SVSlide_prompt","html-button-response","40","132465","0.0-40.0","","656776a7904ae00d6b91d1dd","6568ada07d6d1fdef115b01e","14","","","","","","","","","","","","912","Click [Next] to see the next neighborhood!","0","","","","","","","","","","","",""
"street view slide show","image-button-response","41","133470","0.0-41.0","","656776a7904ae00d6b91d1dd","6568ada07d6d1fdef115b01e","14","","","","","","","","","","","","null","stimulus/SV_PolicingMSA/GA_1832/IMG_10_1832.jpg","null","","","","","","2","","","","","",""
"street view slide show","image-button-response","42","134478","0.0-42.0","","656776a7904ae00d6b91d1dd","6568ada07d6d1fdef115b01e","14","","","","","","","","","","","","null","stimulus/SV_PolicingMSA/GA_1832/IMG_9_1832.jpg","null","","","","","","2","","","","","",""
"street view slide show","image-button-response","43","135489","0.0-43.0","","656776a7904ae00d6b91d1dd","6568ada07d6d1fdef115b01e","14","","","","","","","","","","","","null","stimulus/SV_PolicingMSA/GA_1832/IMG_1_1832.jpg","null","","","","","","2","","","","","",""
"street view slide show","image-button-response","44","136497","0.0-44.0","","656776a7904ae00d6b91d1dd","6568ada07d6d1fdef115b01e","14","","","","","","","","","","","","null","stimulus/SV_PolicingMSA/GA_1832/IMG_8_1832.jpg","null","","","","","","2","","","","","",""
"street view slide show","image-button-response","45","137500","0.0-45.0","","656776a7904ae00d6b91d1dd","6568ada07d6d1fdef115b01e","14","","","","","","","","","","","","null","stimulus/SV_PolicingMSA/GA_1832/IMG_11_1832.jpg","null","","","","","","2","","","","","",""
"street view slide show","image-button-response","46","138503","0.0-46.0","","656776a7904ae00d6b91d1dd","6568ada07d6d1fdef115b01e","14","","","","","","","","","","","","null","stimulus/SV_PolicingMSA/GA_1832/IMG_2_1832.jpg","null","","","","","","2","","","","","",""
"street view slide show","image-button-response","47","139507","0.0-47.0","","656776a7904ae00d6b91d1dd","6568ada07d6d1fdef115b01e","14","","","","","","","","","","","","null","stimulus/SV_PolicingMSA/GA_1832/IMG_12_1832.jpg","null","","","","","","2","","","","","",""
"street view slide show","image-button-response","48","140518","0.0-48.0","","656776a7904ae00d6b91d1dd","6568ada07d6d1fdef115b01e","14","","","","","","","","","","","","null","stimulus/SV_PolicingMSA/GA_1832/IMG_7_1832.jpg","null","","","","","","2","","","","","",""
"dot matrix survey1","survey","49","154290","0.0-49.0","","656776a7904ae00d6b91d1dd","6568ada07d6d1fdef115b01e","14","","","","","","","","","","","","13754","","{""P0_Q0"":null,""P0_Q1"":{""wealthy"":1,""safe"":1,""walkable"":1,""traditional"":1,""diverse"":2}}","","","","","","2","[]","","","","",""
"dot matrix survey2","survey","50","158336","0.0-50.0","","656776a7904ae00d6b91d1dd","6568ada07d6d1fdef115b01e","14","","","","","","","","","","","","4036","","{""P0_Q0"":null,""P0_Q1"":{""violence"":2,""crime"":2,""drug"":2,""schools"":1,""opportunities"":1}}","","","","","","2","[]","","","","",""
"dot matrix survey3","survey","51","166873","0.0-51.0","","656776a7904ae00d6b91d1dd","6568ada07d6d1fdef115b01e","14","","","","","","","","","","","","8521","","{""P0_Q0"":null,""P0_Q1"":{""movein"":0,""moveout"":3,""shopping"":2,""walk"":1,""park"":2,""school"":2}}","","","","","","2","[]","","","","",""
"sliderTrial","html-slider-response","52","168570","0.0-52.0","","656776a7904ae00d6b91d1dd","6568ada07d6d1fdef115b01e","14","","","","","","","","","","","","1694","[""SV_PolicingMSA/GA_1832/IMG_10_1832.jpg"",""SV_PolicingMSA/GA_1832/IMG_9_1832.jpg"",""SV_PolicingMSA/GA_1832/IMG_1_1832.jpg"",""SV_PolicingMSA/GA_1832/IMG_8_1832.jpg"",""SV_PolicingMSA/GA_1832/IMG_11_1832.jpg"",""SV_PolicingMSA/GA_1832/IMG_2_1832.jpg"",""SV_PolicingMSA/GA_1832/IMG_12_1832.jpg"",""SV_PolicingMSA/GA_1832/IMG_7_1832.jpg""]","3","","","","","","2","","4","[""./rc_img/cop_condGroup_18_CommunitySafety_autoscaled.png"",""./rc_img/cop_condGroup_18_SafeStreets_autoscaled.png""]","3","",""
"sliderTrial","html-slider-response","53","169892","0.0-53.0","","656776a7904ae00d6b91d1dd","6568ada07d6d1fdef115b01e","14","","","","","","","","","","","","1318","[""SV_PolicingMSA/GA_1832/IMG_10_1832.jpg"",""SV_PolicingMSA/GA_1832/IMG_9_1832.jpg"",""SV_PolicingMSA/GA_1832/IMG_1_1832.jpg"",""SV_PolicingMSA/GA_1832/IMG_8_1832.jpg"",""SV_PolicingMSA/GA_1832/IMG_11_1832.jpg"",""SV_PolicingMSA/GA_1832/IMG_2_1832.jpg"",""SV_PolicingMSA/GA_1832/IMG_12_1832.jpg"",""SV_PolicingMSA/GA_1832/IMG_7_1832.jpg""]","5","","","","","","2","","4","[""./rc_img/cop_condGroup_8_SafeStreets_autoscaled.png"",""./rc_img/cop_condGroup_8_CommunitySafety_autoscaled.png""]","3","",""
"sliderTrial","html-slider-response","54","171168","0.0-54.0","","656776a7904ae00d6b91d1dd","6568ada07d6d1fdef115b01e","14","","","","","","","","","","","","1273","[""SV_PolicingMSA/GA_1832/IMG_10_1832.jpg"",""SV_PolicingMSA/GA_1832/IMG_9_1832.jpg"",""SV_PolicingMSA/GA_1832/IMG_1_1832.jpg"",""SV_PolicingMSA/GA_1832/IMG_8_1832.jpg"",""SV_PolicingMSA/GA_1832/IMG_11_1832.jpg"",""SV_PolicingMSA/GA_1832/IMG_2_1832.jpg"",""SV_PolicingMSA/GA_1832/IMG_12_1832.jpg"",""SV_PolicingMSA/GA_1832/IMG_7_1832.jpg""]","3","","","","","","2","","4","[""./rc_img/cop_condGroup_6_CommunitySafety_autoscaled.png"",""./rc_img/cop_condGroup_6_SafeStreets_autoscaled.png""]","3","",""
"sliderTrial","html-slider-response","55","172414","0.0-55.0","","656776a7904ae00d6b91d1dd","6568ada07d6d1fdef115b01e","14","","","","","","","","","","","","1242","[""SV_PolicingMSA/GA_1832/IMG_10_1832.jpg"",""SV_PolicingMSA/GA_1832/IMG_9_1832.jpg"",""SV_PolicingMSA/GA_1832/IMG_1_1832.jpg"",""SV_PolicingMSA/GA_1832/IMG_8_1832.jpg"",""SV_PolicingMSA/GA_1832/IMG_11_1832.jpg"",""SV_PolicingMSA/GA_1832/IMG_2_1832.jpg"",""SV_PolicingMSA/GA_1832/IMG_12_1832.jpg"",""SV_PolicingMSA/GA_1832/IMG_7_1832.jpg""]","5","","","","","","2","","4","[""./rc_img/cop_condGroup_17_SafeStreets_autoscaled.png"",""./rc_img/cop_condGroup_17_CommunitySafety_autoscaled.png""]","3","",""
"sliderTrial","html-slider-response","56","173660","0.0-56.0","","656776a7904ae00d6b91d1dd","6568ada07d6d1fdef115b01e","14","","","","","","","","","","","","1243","[""SV_PolicingMSA/GA_1832/IMG_10_1832.jpg"",""SV_PolicingMSA/GA_1832/IMG_9_1832.jpg"",""SV_PolicingMSA/GA_1832/IMG_1_1832.jpg"",""SV_PolicingMSA/GA_1832/IMG_8_1832.jpg"",""SV_PolicingMSA/GA_1832/IMG_11_1832.jpg"",""SV_PolicingMSA/GA_1832/IMG_2_1832.jpg"",""SV_PolicingMSA/GA_1832/IMG_12_1832.jpg"",""SV_PolicingMSA/GA_1832/IMG_7_1832.jpg""]","3","","","","","","2","","4","[""./rc_img/cop_condGroup_4_CommunitySafety_autoscaled.png"",""./rc_img/cop_condGroup_4_SafeStreets_autoscaled.png""]","3","",""
"before_SVSlide_prompt","html-button-response","57","174512","0.0-57.0","","656776a7904ae00d6b91d1dd","6568ada07d6d1fdef115b01e","14","","","","","","","","","","","","850","Click [Next] to see the next neighborhood!","0","","","","","","","","","","","",""
"street view slide show","image-button-response","58","175515","0.0-58.0","","656776a7904ae00d6b91d1dd","6568ada07d6d1fdef115b01e","14","","","","","","","","","","","","null","stimulus/SV_PolicingMSA/GA_1789/IMG_3_1789.jpg","null","","","","","","1","","","","","",""
"street view slide show","image-button-response","59","176517","0.0-59.0","","656776a7904ae00d6b91d1dd","6568ada07d6d1fdef115b01e","14","","","","","","","","","","","","null","stimulus/SV_PolicingMSA/GA_1789/IMG_8_1789.jpg","null","","","","","","1","","","","","",""
"street view slide show","image-button-response","60","177532","0.0-60.0","","656776a7904ae00d6b91d1dd","6568ada07d6d1fdef115b01e","14","","","","","","","","","","","","null","stimulus/SV_PolicingMSA/GA_1789/IMG_14_1789.jpg","null","","","","","","1","","","","","",""
"street view slide show","image-button-response","61","178637","0.0-61.0","","656776a7904ae00d6b91d1dd","6568ada07d6d1fdef115b01e","14","","","","","","","","","","","","null","stimulus/SV_PolicingMSA/GA_1789/IMG_13_1789.jpg","null","","","","","","1","","","","","",""
"street view slide show","image-button-response","62","180635","0.0-62.0","","656776a7904ae00d6b91d1dd","6568ada07d6d1fdef115b01e","14","","","","","","","","","","","","null","stimulus/SV_PolicingMSA/GA_1789/IMG_11_1789.jpg","null","","","","","","1","","","","","",""
"street view slide show","image-button-response","63","181641","0.0-63.0","","656776a7904ae00d6b91d1dd","6568ada07d6d1fdef115b01e","14","","","","","","","","","","","","null","stimulus/SV_PolicingMSA/GA_1789/IMG_7_1789.jpg","null","","","","","","1","","","","","",""
"street view slide show","image-button-response","64","183632","0.0-64.0","","656776a7904ae00d6b91d1dd","6568ada07d6d1fdef115b01e","14","","","","","","","","","","","","null","stimulus/SV_PolicingMSA/GA_1789/IMG_9_1789.jpg","null","","","","","","1","","","","","",""
"street view slide show","image-button-response","65","185628","0.0-65.0","","656776a7904ae00d6b91d1dd","6568ada07d6d1fdef115b01e","14","","","","","","","","","","","","null","stimulus/SV_PolicingMSA/GA_1789/IMG_2_1789.jpg","null","","","","","","1","","","","","",""
"dot matrix survey1","survey","66","219804","0.0-66.0","","656776a7904ae00d6b91d1dd","6568ada07d6d1fdef115b01e","14","","","","","","","","","","","","34097","","{""P0_Q0"":null,""P0_Q1"":{""wealthy"":1,""safe"":2,""walkable"":1,""traditional"":2,""diverse"":2}}","","","","","","1","[]","","","","",""
"dot matrix survey2","survey","67","224165","0.0-67.0","","656776a7904ae00d6b91d1dd","6568ada07d6d1fdef115b01e","14","","","","","","","","","","","","4350","","{""P0_Q0"":null,""P0_Q1"":{""violence"":2,""crime"":2,""drug"":2,""schools"":2,""opportunities"":2}}","","","","","","1","[]","","","","",""
"dot matrix survey3","survey","68","230860","0.0-68.0","","656776a7904ae00d6b91d1dd","6568ada07d6d1fdef115b01e","14","","","","","","","","","","","","6685","","{""P0_Q0"":null,""P0_Q1"":{""movein"":1,""moveout"":3,""shopping"":2,""walk"":2,""park"":2,""school"":2}}","","","","","","1","[]","","","","",""
"sliderTrial","html-slider-response","69","232458","0.0-69.0","","656776a7904ae00d6b91d1dd","6568ada07d6d1fdef115b01e","14","","","","","","","","","","","","1594","[""SV_PolicingMSA/GA_1789/IMG_3_1789.jpg"",""SV_PolicingMSA/GA_1789/IMG_8_1789.jpg"",""SV_PolicingMSA/GA_1789/IMG_14_1789.jpg"",""SV_PolicingMSA/GA_1789/IMG_13_1789.jpg"",""SV_PolicingMSA/GA_1789/IMG_11_1789.jpg"",""SV_PolicingMSA/GA_1789/IMG_7_1789.jpg"",""SV_PolicingMSA/GA_1789/IMG_9_1789.jpg"",""SV_PolicingMSA/GA_1789/IMG_2_1789.jpg""]","3","","","","","","1","","4","[""./rc_img/cop_condGroup_9_CommunitySafety_autoscaled.png"",""./rc_img/cop_condGroup_9_SafeStreets_autoscaled.png""]","3","",""
"sliderTrial","html-slider-response","70","233812","0.0-70.0","","656776a7904ae00d6b91d1dd","6568ada07d6d1fdef115b01e","14","","","","","","","","","","","","1351","[""SV_PolicingMSA/GA_1789/IMG_3_1789.jpg"",""SV_PolicingMSA/GA_1789/IMG_8_1789.jpg"",""SV_PolicingMSA/GA_1789/IMG_14_1789.jpg"",""SV_PolicingMSA/GA_1789/IMG_13_1789.jpg"",""SV_PolicingMSA/GA_1789/IMG_11_1789.jpg"",""SV_PolicingMSA/GA_1789/IMG_7_1789.jpg"",""SV_PolicingMSA/GA_1789/IMG_9_1789.jpg"",""SV_PolicingMSA/GA_1789/IMG_2_1789.jpg""]","3","","","","","","1","","4","[""./rc_img/cop_condGroup_3_CommunitySafety_autoscaled.png"",""./rc_img/cop_condGroup_3_SafeStreets_autoscaled.png""]","3","",""
"sliderTrial_attention","html-slider-response","71","244635","0.0-71.0","","656776a7904ae00d6b91d1dd","6568ada07d6d1fdef115b01e","14","","","","","","","","","","","","null","[""SV_PolicingMSA/GA_1789/IMG_3_1789.jpg"",""SV_PolicingMSA/GA_1789/IMG_8_1789.jpg"",""SV_PolicingMSA/GA_1789/IMG_14_1789.jpg"",""SV_PolicingMSA/GA_1789/IMG_13_1789.jpg"",""SV_PolicingMSA/GA_1789/IMG_11_1789.jpg"",""SV_PolicingMSA/GA_1789/IMG_7_1789.jpg"",""SV_PolicingMSA/GA_1789/IMG_9_1789.jpg"",""SV_PolicingMSA/GA_1789/IMG_2_1789.jpg""]","null","","","","","","1","","4","[""./assets/img/attnchk.png"",""./assets/img/attnchk.png""]","","true",""
"sliderTrial","html-slider-response","72","306996","0.0-72.0","","656776a7904ae00d6b91d1dd","6568ada07d6d1fdef115b01e","14","","","","","","","","","","","","62357","[""SV_PolicingMSA/GA_1789/IMG_3_1789.jpg"",""SV_PolicingMSA/GA_1789/IMG_8_1789.jpg"",""SV_PolicingMSA/GA_1789/IMG_14_1789.jpg"",""SV_PolicingMSA/GA_1789/IMG_13_1789.jpg"",""SV_PolicingMSA/GA_1789/IMG_11_1789.jpg"",""SV_PolicingMSA/GA_1789/IMG_7_1789.jpg"",""SV_PolicingMSA/GA_1789/IMG_9_1789.jpg"",""SV_PolicingMSA/GA_1789/IMG_2_1789.jpg""]","3","","","","","","1","","4","[""./rc_img/cop_condGroup_14_CommunitySafety_autoscaled.png"",""./rc_img/cop_condGroup_14_SafeStreets_autoscaled.png""]","3","",""
"sliderTrial","html-slider-response","73","308870","0.0-73.0","","656776a7904ae00d6b91d1dd","6568ada07d6d1fdef115b01e","14","","","","","","","","","","","","1872","[""SV_PolicingMSA/GA_1789/IMG_3_1789.jpg"",""SV_PolicingMSA/GA_1789/IMG_8_1789.jpg"",""SV_PolicingMSA/GA_1789/IMG_14_1789.jpg"",""SV_PolicingMSA/GA_1789/IMG_13_1789.jpg"",""SV_PolicingMSA/GA_1789/IMG_11_1789.jpg"",""SV_PolicingMSA/GA_1789/IMG_7_1789.jpg"",""SV_PolicingMSA/GA_1789/IMG_9_1789.jpg"",""SV_PolicingMSA/GA_1789/IMG_2_1789.jpg""]","3","","","","","","1","","4","[""./rc_img/cop_condGroup_15_CommunitySafety_autoscaled.png"",""./rc_img/cop_condGroup_15_SafeStreets_autoscaled.png""]","3","",""
"sliderTrial","html-slider-response","74","311006","0.0-74.0","","656776a7904ae00d6b91d1dd","6568ada07d6d1fdef115b01e","14","","","","","","","","","","","","2133","[""SV_PolicingMSA/GA_1789/IMG_3_1789.jpg"",""SV_PolicingMSA/GA_1789/IMG_8_1789.jpg"",""SV_PolicingMSA/GA_1789/IMG_14_1789.jpg"",""SV_PolicingMSA/GA_1789/IMG_13_1789.jpg"",""SV_PolicingMSA/GA_1789/IMG_11_1789.jpg"",""SV_PolicingMSA/GA_1789/IMG_7_1789.jpg"",""SV_PolicingMSA/GA_1789/IMG_9_1789.jpg"",""SV_PolicingMSA/GA_1789/IMG_2_1789.jpg""]","5","","","","","","1","","4","[""./rc_img/cop_condGroup_19_SafeStreets_autoscaled.png"",""./rc_img/cop_condGroup_19_CommunitySafety_autoscaled.png""]","3","",""
"half-way","html-button-response","75","313064","0.0-75.0","","656776a7904ae00d6b91d1dd","6568ada07d6d1fdef115b01e","14","","","","","","","","","","","","2055","
    <h3>You are now half way through the study.</h3>
    <p>Please take a quick, 15-second break before you continue.</p>
    <img src='assets/img/countdown-15.gif'>
    <p>The study will automatically advance forward after the countdown is complete. <br> However, you may click ""Next"" to advance forward now if you wish.</p>
    ","0","","","","","","","","","","","",""
"before_SVSlide_prompt","html-button-response","76","313799","0.0-76.0","","656776a7904ae00d6b91d1dd","6568ada07d6d1fdef115b01e","14","","","","","","","","","","","","732","Click [Next] to see the next neighborhood!","0","","","","","","","","","","","",""
"street view slide show","image-button-response","77","314805","0.0-77.0","","656776a7904ae00d6b91d1dd","6568ada07d6d1fdef115b01e","14","","","","","","","","","","","","null","stimulus/SV_PolicingMSA/GA_1094/IMG_3_1094.jpg","null","","","","","","2","","","","","",""
"street view slide show","image-button-response","78","315818","0.0-78.0","","656776a7904ae00d6b91d1dd","6568ada07d6d1fdef115b01e","14","","","","","","","","","","","","null","stimulus/SV_PolicingMSA/GA_1094/IMG_11_1094.jpg","null","","","","","","2","","","","","",""
"street view slide show","image-button-response","79","316829","0.0-79.0","","656776a7904ae00d6b91d1dd","6568ada07d6d1fdef115b01e","14","","","","","","","","","","","","null","stimulus/SV_PolicingMSA/GA_1094/IMG_4_1094.jpg","null","","","","","","2","","","","","",""
"street view slide show","image-button-response","80","317837","0.0-80.0","","656776a7904ae00d6b91d1dd","6568ada07d6d1fdef115b01e","14","","","","","","","","","","","","null","stimulus/SV_PolicingMSA/GA_1094/IMG_9_1094.jpg","null","","","","","","2","","","","","",""
"street view slide show","image-button-response","81","318842","0.0-81.0","","656776a7904ae00d6b91d1dd","6568ada07d6d1fdef115b01e","14","","","","","","","","","","","","null","stimulus/SV_PolicingMSA/GA_1094/IMG_12_1094.jpg","null","","","","","","2","","","","","",""
"street view slide show","image-button-response","82","319854","0.0-82.0","","656776a7904ae00d6b91d1dd","6568ada07d6d1fdef115b01e","14","","","","","","","","","","","","null","stimulus/SV_PolicingMSA/GA_1094/IMG_8_1094.jpg","null","","","","","","2","","","","","",""
"street view slide show","image-button-response","83","320867","0.0-83.0","","656776a7904ae00d6b91d1dd","6568ada07d6d1fdef115b01e","14","","","","","","","","","","","","null","stimulus/SV_PolicingMSA/GA_1094/IMG_13_1094.jpg","null","","","","","","2","","","","","",""
"street view slide show","image-button-response","84","321883","0.0-84.0","","656776a7904ae00d6b91d1dd","6568ada07d6d1fdef115b01e","14","","","","","","","","","","","","null","stimulus/SV_PolicingMSA/GA_1094/IMG_7_1094.jpg","null","","","","","","2","","","","","",""
"dot matrix survey1","survey","85","337895","0.0-85.0","","656776a7904ae00d6b91d1dd","6568ada07d6d1fdef115b01e","14","","","","","","","","","","","","15995","","{""P0_Q0"":null,""P0_Q1"":{""wealthy"":2,""safe"":3,""walkable"":1,""traditional"":2,""diverse"":2}}","","","","","","2","[]","","","","",""
"dot matrix survey2","survey","86","342221","0.0-86.0","","656776a7904ae00d6b91d1dd","6568ada07d6d1fdef115b01e","14","","","","","","","","","","","","4314","","{""P0_Q0"":null,""P0_Q1"":{""violence"":2,""crime"":2,""schools"":2,""drug"":2,""opportunities"":2}}","","","","","","2","[]","","","","",""
"dot matrix survey3","survey","87","355467","0.0-87.0","","656776a7904ae00d6b91d1dd","6568ada07d6d1fdef115b01e","14","","","","","","","","","","","","13235","","{""P0_Q0"":null,""P0_Q1"":{""movein"":3,""moveout"":2,""shopping"":3,""walk"":2,""park"":2,""school"":2}}","","","","","","2","[]","","","","",""
"sliderTrial","html-slider-response","88","358357","0.0-88.0","","656776a7904ae00d6b91d1dd","6568ada07d6d1fdef115b01e","14","","","","","","","","","","","","2887","[""SV_PolicingMSA/GA_1094/IMG_3_1094.jpg"",""SV_PolicingMSA/GA_1094/IMG_11_1094.jpg"",""SV_PolicingMSA/GA_1094/IMG_4_1094.jpg"",""SV_PolicingMSA/GA_1094/IMG_9_1094.jpg"",""SV_PolicingMSA/GA_1094/IMG_12_1094.jpg"",""SV_PolicingMSA/GA_1094/IMG_8_1094.jpg"",""SV_PolicingMSA/GA_1094/IMG_13_1094.jpg"",""SV_PolicingMSA/GA_1094/IMG_7_1094.jpg""]","2","","","","","","2","","4","[""./rc_img/cop_condGroup_10_CommunitySafety_autoscaled.png"",""./rc_img/cop_condGroup_10_SafeStreets_autoscaled.png""]","2","",""
"sliderTrial","html-slider-response","89","360100","0.0-89.0","","656776a7904ae00d6b91d1dd","6568ada07d6d1fdef115b01e","14","","","","","","","","","","","","1739","[""SV_PolicingMSA/GA_1094/IMG_3_1094.jpg"",""SV_PolicingMSA/GA_1094/IMG_11_1094.jpg"",""SV_PolicingMSA/GA_1094/IMG_4_1094.jpg"",""SV_PolicingMSA/GA_1094/IMG_9_1094.jpg"",""SV_PolicingMSA/GA_1094/IMG_12_1094.jpg"",""SV_PolicingMSA/GA_1094/IMG_8_1094.jpg"",""SV_PolicingMSA/GA_1094/IMG_13_1094.jpg"",""SV_PolicingMSA/GA_1094/IMG_7_1094.jpg""]","3","","","","","","2","","4","[""./rc_img/cop_condGroup_5_CommunitySafety_autoscaled.png"",""./rc_img/cop_condGroup_5_SafeStreets_autoscaled.png""]","3","",""
"sliderTrial","html-slider-response","90","361816","0.0-90.0","","656776a7904ae00d6b91d1dd","6568ada07d6d1fdef115b01e","14","","","","","","","","","","","","1713","[""SV_PolicingMSA/GA_1094/IMG_3_1094.jpg"",""SV_PolicingMSA/GA_1094/IMG_11_1094.jpg"",""SV_PolicingMSA/GA_1094/IMG_4_1094.jpg"",""SV_PolicingMSA/GA_1094/IMG_9_1094.jpg"",""SV_PolicingMSA/GA_1094/IMG_12_1094.jpg"",""SV_PolicingMSA/GA_1094/IMG_8_1094.jpg"",""SV_PolicingMSA/GA_1094/IMG_13_1094.jpg"",""SV_PolicingMSA/GA_1094/IMG_7_1094.jpg""]","5","","","","","","2","","4","[""./rc_img/cop_condGroup_12_SafeStreets_autoscaled.png"",""./rc_img/cop_condGroup_12_CommunitySafety_autoscaled.png""]","3","",""
"sliderTrial","html-slider-response","91","363016","0.0-91.0","","656776a7904ae00d6b91d1dd","6568ada07d6d1fdef115b01e","14","","","","","","","","","","","","1197","[""SV_PolicingMSA/GA_1094/IMG_3_1094.jpg"",""SV_PolicingMSA/GA_1094/IMG_11_1094.jpg"",""SV_PolicingMSA/GA_1094/IMG_4_1094.jpg"",""SV_PolicingMSA/GA_1094/IMG_9_1094.jpg"",""SV_PolicingMSA/GA_1094/IMG_12_1094.jpg"",""SV_PolicingMSA/GA_1094/IMG_8_1094.jpg"",""SV_PolicingMSA/GA_1094/IMG_13_1094.jpg"",""SV_PolicingMSA/GA_1094/IMG_7_1094.jpg""]","3","","","","","","2","","4","[""./rc_img/cop_condGroup_2_CommunitySafety_autoscaled.png"",""./rc_img/cop_condGroup_2_SafeStreets_autoscaled.png""]","3","",""
"sliderTrial","html-slider-response","92","364556","0.0-92.0","","656776a7904ae00d6b91d1dd","6568ada07d6d1fdef115b01e","14","","","","","","","","","","","","1537","[""SV_PolicingMSA/GA_1094/IMG_3_1094.jpg"",""SV_PolicingMSA/GA_1094/IMG_11_1094.jpg"",""SV_PolicingMSA/GA_1094/IMG_4_1094.jpg"",""SV_PolicingMSA/GA_1094/IMG_9_1094.jpg"",""SV_PolicingMSA/GA_1094/IMG_12_1094.jpg"",""SV_PolicingMSA/GA_1094/IMG_8_1094.jpg"",""SV_PolicingMSA/GA_1094/IMG_13_1094.jpg"",""SV_PolicingMSA/GA_1094/IMG_7_1094.jpg""]","5","","","","","","2","","4","[""./rc_img/cop_condGroup_20_SafeStreets_autoscaled.png"",""./rc_img/cop_condGroup_20_CommunitySafety_autoscaled.png""]","3","",""
"before_SVSlide_prompt","html-button-response","93","365515","0.0-93.0","","656776a7904ae00d6b91d1dd","6568ada07d6d1fdef115b01e","14","","","","","","","","","","","","959","Click [Next] to see the next neighborhood!","0","","","","","","","","","","","",""
"street view slide show","image-button-response","94","366527","0.0-94.0","","656776a7904ae00d6b91d1dd","6568ada07d6d1fdef115b01e","14","","","","","","","","","","","","null","stimulus/SV_PolicingMSA/GA_1756/IMG_10_1756.jpg","null","","","","","","0","","","","","",""
"street view slide show","image-button-response","95","367637","0.0-95.0","","656776a7904ae00d6b91d1dd","6568ada07d6d1fdef115b01e","14","","","","","","","","","","","","null","stimulus/SV_PolicingMSA/GA_1756/IMG_13_1756.jpg","null","","","","","","0","","","","","",""
"street view slide show","image-button-response","96","368641","0.0-96.0","","656776a7904ae00d6b91d1dd","6568ada07d6d1fdef115b01e","14","","","","","","","","","","","","null","stimulus/SV_PolicingMSA/GA_1756/IMG_3_1756.jpg","null","","","","","","0","","","","","",""
"street view slide show","image-button-response","97","369645","0.0-97.0","","656776a7904ae00d6b91d1dd","6568ada07d6d1fdef115b01e","14","","","","","","","","","","","","null","stimulus/SV_PolicingMSA/GA_1756/IMG_2_1756.jpg","null","","","","","","0","","","","","",""
"street view slide show","image-button-response","98","370662","0.0-98.0","","656776a7904ae00d6b91d1dd","6568ada07d6d1fdef115b01e","14","","","","","","","","","","","","null","stimulus/SV_PolicingMSA/GA_1756/IMG_14_1756.jpg","null","","","","","","0","","","","","",""
"street view slide show","image-button-response","99","371673","0.0-99.0","","656776a7904ae00d6b91d1dd","6568ada07d6d1fdef115b01e","14","","","","","","","","","","","","null","stimulus/SV_PolicingMSA/GA_1756/IMG_7_1756.jpg","null","","","","","","0","","","","","",""
"street view slide show","image-button-response","100","372680","0.0-100.0","","656776a7904ae00d6b91d1dd","6568ada07d6d1fdef115b01e","14","","","","","","","","","","","","null","stimulus/SV_PolicingMSA/GA_1756/IMG_1_1756.jpg","null","","","","","","0","","","","","",""
"street view slide show","image-button-response","101","373687","0.0-101.0","","656776a7904ae00d6b91d1dd","6568ada07d6d1fdef115b01e","14","","","","","","","","","","","","null","stimulus/SV_PolicingMSA/GA_1756/IMG_4_1756.jpg","null","","","","","","0","","","","","",""
"dot matrix survey1","survey","102","381728","0.0-102.0","","656776a7904ae00d6b91d1dd","6568ada07d6d1fdef115b01e","14","","","","","","","","","","","","8015","","{""P0_Q0"":null,""P0_Q1"":{""wealthy"":0,""safe"":1,""walkable"":1,""traditional"":1,""diverse"":2}}","","","","","","0","[]","","","","",""
"dot matrix survey2","survey","103","385961","0.0-103.0","","656776a7904ae00d6b91d1dd","6568ada07d6d1fdef115b01e","14","","","","","","","","","","","","4221","","{""P0_Q0"":null,""P0_Q1"":{""violence"":3,""crime"":3,""drug"":3,""schools"":1,""opportunities"":1}}","","","","","","0","[]","","","","",""
"dot matrix survey3","survey","104","392338","0.0-104.0","","656776a7904ae00d6b91d1dd","6568ada07d6d1fdef115b01e","14","","","","","","","","","","","","6367","","{""P0_Q0"":null,""P0_Q1"":{""movein"":0,""moveout"":3,""shopping"":1,""walk"":1,""park"":1,""school"":1}}","","","","","","0","[]","","","","",""
"sliderTrial_attention","html-slider-response","105","402633","0.0-105.0","","656776a7904ae00d6b91d1dd","6568ada07d6d1fdef115b01e","14","","","","","","","","","","","","null","[""SV_PolicingMSA/GA_1756/IMG_10_1756.jpg"",""SV_PolicingMSA/GA_1756/IMG_13_1756.jpg"",""SV_PolicingMSA/GA_1756/IMG_3_1756.jpg"",""SV_PolicingMSA/GA_1756/IMG_2_1756.jpg"",""SV_PolicingMSA/GA_1756/IMG_14_1756.jpg"",""SV_PolicingMSA/GA_1756/IMG_7_1756.jpg"",""SV_PolicingMSA/GA_1756/IMG_1_1756.jpg"",""SV_PolicingMSA/GA_1756/IMG_4_1756.jpg""]","null","","","","","","0","","4","[""./assets/img/attnchk.png"",""./assets/img/attnchk.png""]","","true",""
"sliderTrial","html-slider-response","106","413822","0.0-106.0","","656776a7904ae00d6b91d1dd","6568ada07d6d1fdef115b01e","14","","","","","","","","","","","","11179","[""SV_PolicingMSA/GA_1756/IMG_10_1756.jpg"",""SV_PolicingMSA/GA_1756/IMG_13_1756.jpg"",""SV_PolicingMSA/GA_1756/IMG_3_1756.jpg"",""SV_PolicingMSA/GA_1756/IMG_2_1756.jpg"",""SV_PolicingMSA/GA_1756/IMG_14_1756.jpg"",""SV_PolicingMSA/GA_1756/IMG_7_1756.jpg"",""SV_PolicingMSA/GA_1756/IMG_1_1756.jpg"",""SV_PolicingMSA/GA_1756/IMG_4_1756.jpg""]","3","","","","","","0","","4","[""./rc_img/cop_condGroup_10_CommunitySafety_autoscaled.png"",""./rc_img/cop_condGroup_10_SafeStreets_autoscaled.png""]","3","",""
"sliderTrial","html-slider-response","107","415540","0.0-107.0","","656776a7904ae00d6b91d1dd","6568ada07d6d1fdef115b01e","14","","","","","","","","","","","","1715","[""SV_PolicingMSA/GA_1756/IMG_10_1756.jpg"",""SV_PolicingMSA/GA_1756/IMG_13_1756.jpg"",""SV_PolicingMSA/GA_1756/IMG_3_1756.jpg"",""SV_PolicingMSA/GA_1756/IMG_2_1756.jpg"",""SV_PolicingMSA/GA_1756/IMG_14_1756.jpg"",""SV_PolicingMSA/GA_1756/IMG_7_1756.jpg"",""SV_PolicingMSA/GA_1756/IMG_1_1756.jpg"",""SV_PolicingMSA/GA_1756/IMG_4_1756.jpg""]","3","","","","","","0","","4","[""./rc_img/cop_condGroup_5_CommunitySafety_autoscaled.png"",""./rc_img/cop_condGroup_5_SafeStreets_autoscaled.png""]","3","",""
"sliderTrial","html-slider-response","108","416979","0.0-108.0","","656776a7904ae00d6b91d1dd","6568ada07d6d1fdef115b01e","14","","","","","","","","","","","","1436","[""SV_PolicingMSA/GA_1756/IMG_10_1756.jpg"",""SV_PolicingMSA/GA_1756/IMG_13_1756.jpg"",""SV_PolicingMSA/GA_1756/IMG_3_1756.jpg"",""SV_PolicingMSA/GA_1756/IMG_2_1756.jpg"",""SV_PolicingMSA/GA_1756/IMG_14_1756.jpg"",""SV_PolicingMSA/GA_1756/IMG_7_1756.jpg"",""SV_PolicingMSA/GA_1756/IMG_1_1756.jpg"",""SV_PolicingMSA/GA_1756/IMG_4_1756.jpg""]","5","","","","","","0","","4","[""./rc_img/cop_condGroup_12_SafeStreets_autoscaled.png"",""./rc_img/cop_condGroup_12_CommunitySafety_autoscaled.png""]","3","",""
"sliderTrial","html-slider-response","109","418411","0.0-109.0","","656776a7904ae00d6b91d1dd","6568ada07d6d1fdef115b01e","14","","","","","","","","","","","","1428","[""SV_PolicingMSA/GA_1756/IMG_10_1756.jpg"",""SV_PolicingMSA/GA_1756/IMG_13_1756.jpg"",""SV_PolicingMSA/GA_1756/IMG_3_1756.jpg"",""SV_PolicingMSA/GA_1756/IMG_2_1756.jpg"",""SV_PolicingMSA/GA_1756/IMG_14_1756.jpg"",""SV_PolicingMSA/GA_1756/IMG_7_1756.jpg"",""SV_PolicingMSA/GA_1756/IMG_1_1756.jpg"",""SV_PolicingMSA/GA_1756/IMG_4_1756.jpg""]","3","","","","","","0","","4","[""./rc_img/cop_condGroup_2_CommunitySafety_autoscaled.png"",""./rc_img/cop_condGroup_2_SafeStreets_autoscaled.png""]","3","",""
"sliderTrial","html-slider-response","110","420220","0.0-110.0","","656776a7904ae00d6b91d1dd","6568ada07d6d1fdef115b01e","14","","","","","","","","","","","","1807","[""SV_PolicingMSA/GA_1756/IMG_10_1756.jpg"",""SV_PolicingMSA/GA_1756/IMG_13_1756.jpg"",""SV_PolicingMSA/GA_1756/IMG_3_1756.jpg"",""SV_PolicingMSA/GA_1756/IMG_2_1756.jpg"",""SV_PolicingMSA/GA_1756/IMG_14_1756.jpg"",""SV_PolicingMSA/GA_1756/IMG_7_1756.jpg"",""SV_PolicingMSA/GA_1756/IMG_1_1756.jpg"",""SV_PolicingMSA/GA_1756/IMG_4_1756.jpg""]","5","","","","","","0","","4","[""./rc_img/cop_condGroup_20_SafeStreets_autoscaled.png"",""./rc_img/cop_condGroup_20_CommunitySafety_autoscaled.png""]","3","",""
"before_SVSlide_prompt","html-button-response","111","421312","0.0-111.0","","656776a7904ae00d6b91d1dd","6568ada07d6d1fdef115b01e","14","","","","","","","","","","","","1090","Click [Next] to see the next neighborhood!","0","","","","","","","","","","","",""
"street view slide show","image-button-response","112","422322","0.0-112.0","","656776a7904ae00d6b91d1dd","6568ada07d6d1fdef115b01e","14","","","","","","","","","","","","null","stimulus/SV_PolicingMSA/GA_1400/IMG_4_1400.jpg","null","","","","","","3","","","","","",""
"street view slide show","image-button-response","113","423640","0.0-113.0","","656776a7904ae00d6b91d1dd","6568ada07d6d1fdef115b01e","14","","","","","","","","","","","","null","stimulus/SV_PolicingMSA/GA_1400/IMG_2_1400.jpg","null","","","","","","3","","","","","",""
"street view slide show","image-button-response","114","425628","0.0-114.0","","656776a7904ae00d6b91d1dd","6568ada07d6d1fdef115b01e","14","","","","","","","","","","","","null","stimulus/SV_PolicingMSA/GA_1400/IMG_0_1400.jpg","null","","","","","","3","","","","","",""
"street view slide show","image-button-response","115","427636","0.0-115.0","","656776a7904ae00d6b91d1dd","6568ada07d6d1fdef115b01e","14","","","","","","","","","","","","null","stimulus/SV_PolicingMSA/GA_1400/IMG_3_1400.jpg","null","","","","","","3","","","","","",""
"street view slide show","image-button-response","116","429628","0.0-116.0","","656776a7904ae00d6b91d1dd","6568ada07d6d1fdef115b01e","14","","","","","","","","","","","","null","stimulus/SV_PolicingMSA/GA_1400/IMG_9_1400.jpg","null","","","","","","3","","","","","",""
"street view slide show","image-button-response","117","430634","0.0-117.0","","656776a7904ae00d6b91d1dd","6568ada07d6d1fdef115b01e","14","","","","","","","","","","","","null","stimulus/SV_PolicingMSA/GA_1400/IMG_8_1400.jpg","null","","","","","","3","","","","","",""
"street view slide show","image-button-response","118","432630","0.0-118.0","","656776a7904ae00d6b91d1dd","6568ada07d6d1fdef115b01e","14","","","","","","","","","","","","null","stimulus/SV_PolicingMSA/GA_1400/IMG_1_1400.jpg","null","","","","","","3","","","","","",""
"street view slide show","image-button-response","119","434637","0.0-119.0","","656776a7904ae00d6b91d1dd","6568ada07d6d1fdef115b01e","14","","","","","","","","","","","","null","stimulus/SV_PolicingMSA/GA_1400/IMG_12_1400.jpg","null","","","","","","3","","","","","",""
"dot matrix survey1","survey","120","467822","0.0-120.0","","656776a7904ae00d6b91d1dd","6568ada07d6d1fdef115b01e","14","","","","","","","","","","","","33161","","{""P0_Q0"":null,""P0_Q1"":{""wealthy"":1,""safe"":2,""walkable"":0,""traditional"":2,""diverse"":2}}","","","","","","3","[]","","","","",""
"dot matrix survey2","survey","121","470955","0.0-121.0","","656776a7904ae00d6b91d1dd","6568ada07d6d1fdef115b01e","14","","","","","","","","","","","","3118","","{""P0_Q0"":null,""P0_Q1"":{""violence"":2,""crime"":2,""drug"":2,""schools"":1,""opportunities"":1}}","","","","","","3","[]","","","","",""
"dot matrix survey3","survey","122","475358","0.0-122.0","","656776a7904ae00d6b91d1dd","6568ada07d6d1fdef115b01e","14","","","","","","","","","","","","4393","","{""P0_Q0"":null,""P0_Q1"":{""movein"":1,""moveout"":3,""shopping"":1,""walk"":1,""park"":1,""school"":1}}","","","","","","3","[]","","","","",""
"sliderTrial","html-slider-response","123","477828","0.0-123.0","","656776a7904ae00d6b91d1dd","6568ada07d6d1fdef115b01e","14","","","","","","","","","","","","2466","[""SV_PolicingMSA/GA_1400/IMG_4_1400.jpg"",""SV_PolicingMSA/GA_1400/IMG_2_1400.jpg"",""SV_PolicingMSA/GA_1400/IMG_0_1400.jpg"",""SV_PolicingMSA/GA_1400/IMG_3_1400.jpg"",""SV_PolicingMSA/GA_1400/IMG_9_1400.jpg"",""SV_PolicingMSA/GA_1400/IMG_8_1400.jpg"",""SV_PolicingMSA/GA_1400/IMG_1_1400.jpg"",""SV_PolicingMSA/GA_1400/IMG_12_1400.jpg""]","5","","","","","","3","","4","[""./rc_img/cop_condGroup_16_SafeStreets_autoscaled.png"",""./rc_img/cop_condGroup_16_CommunitySafety_autoscaled.png""]","3","",""
"sliderTrial","html-slider-response","124","479298","0.0-124.0","","656776a7904ae00d6b91d1dd","6568ada07d6d1fdef115b01e","14","","","","","","","","","","","","1467","[""SV_PolicingMSA/GA_1400/IMG_4_1400.jpg"",""SV_PolicingMSA/GA_1400/IMG_2_1400.jpg"",""SV_PolicingMSA/GA_1400/IMG_0_1400.jpg"",""SV_PolicingMSA/GA_1400/IMG_3_1400.jpg"",""SV_PolicingMSA/GA_1400/IMG_9_1400.jpg"",""SV_PolicingMSA/GA_1400/IMG_8_1400.jpg"",""SV_PolicingMSA/GA_1400/IMG_1_1400.jpg"",""SV_PolicingMSA/GA_1400/IMG_12_1400.jpg""]","3","","","","","","3","","4","[""./rc_img/cop_condGroup_11_CommunitySafety_autoscaled.png"",""./rc_img/cop_condGroup_11_SafeStreets_autoscaled.png""]","3","",""
"sliderTrial","html-slider-response","125","480628","0.0-125.0","","656776a7904ae00d6b91d1dd","6568ada07d6d1fdef115b01e","14","","","","","","","","","","","","1326","[""SV_PolicingMSA/GA_1400/IMG_4_1400.jpg"",""SV_PolicingMSA/GA_1400/IMG_2_1400.jpg"",""SV_PolicingMSA/GA_1400/IMG_0_1400.jpg"",""SV_PolicingMSA/GA_1400/IMG_3_1400.jpg"",""SV_PolicingMSA/GA_1400/IMG_9_1400.jpg"",""SV_PolicingMSA/GA_1400/IMG_8_1400.jpg"",""SV_PolicingMSA/GA_1400/IMG_1_1400.jpg"",""SV_PolicingMSA/GA_1400/IMG_12_1400.jpg""]","3","","","","","","3","","4","[""./rc_img/cop_condGroup_13_CommunitySafety_autoscaled.png"",""./rc_img/cop_condGroup_13_SafeStreets_autoscaled.png""]","3","",""
"sliderTrial","html-slider-response","126","482764","0.0-126.0","","656776a7904ae00d6b91d1dd","6568ada07d6d1fdef115b01e","14","","","","","","","","","","","","2133","[""SV_PolicingMSA/GA_1400/IMG_4_1400.jpg"",""SV_PolicingMSA/GA_1400/IMG_2_1400.jpg"",""SV_PolicingMSA/GA_1400/IMG_0_1400.jpg"",""SV_PolicingMSA/GA_1400/IMG_3_1400.jpg"",""SV_PolicingMSA/GA_1400/IMG_9_1400.jpg"",""SV_PolicingMSA/GA_1400/IMG_8_1400.jpg"",""SV_PolicingMSA/GA_1400/IMG_1_1400.jpg"",""SV_PolicingMSA/GA_1400/IMG_12_1400.jpg""]","3","","","","","","3","","4","[""./rc_img/cop_condGroup_7_CommunitySafety_autoscaled.png"",""./rc_img/cop_condGroup_7_SafeStreets_autoscaled.png""]","3","",""
"sliderTrial","html-slider-response","127","484374","0.0-127.0","","656776a7904ae00d6b91d1dd","6568ada07d6d1fdef115b01e","14","","","","","","","","","","","","1607","[""SV_PolicingMSA/GA_1400/IMG_4_1400.jpg"",""SV_PolicingMSA/GA_1400/IMG_2_1400.jpg"",""SV_PolicingMSA/GA_1400/IMG_0_1400.jpg"",""SV_PolicingMSA/GA_1400/IMG_3_1400.jpg"",""SV_PolicingMSA/GA_1400/IMG_9_1400.jpg"",""SV_PolicingMSA/GA_1400/IMG_8_1400.jpg"",""SV_PolicingMSA/GA_1400/IMG_1_1400.jpg"",""SV_PolicingMSA/GA_1400/IMG_12_1400.jpg""]","5","","","","","","3","","4","[""./rc_img/cop_condGroup_1_SafeStreets_autoscaled.png"",""./rc_img/cop_condGroup_1_CommunitySafety_autoscaled.png""]","3","",""
"before_SVSlide_prompt","html-button-response","128","485426","0.0-128.0","","656776a7904ae00d6b91d1dd","6568ada07d6d1fdef115b01e","14","","","","","","","","","","","","1050","Click [Next] to see the next neighborhood!","0","","","","","","","","","","","",""
"street view slide show","image-button-response","129","486432","0.0-129.0","","656776a7904ae00d6b91d1dd","6568ada07d6d1fdef115b01e","14","","","","","","","","","","","","null","stimulus/SV_PolicingMSA/GA_2654/IMG_5_2654.jpg","null","","","","","","3","","","","","",""
"street view slide show","image-button-response","130","487437","0.0-130.0","","656776a7904ae00d6b91d1dd","6568ada07d6d1fdef115b01e","14","","","","","","","","","","","","null","stimulus/SV_PolicingMSA/GA_2654/IMG_8_2654.jpg","null","","","","","","3","","","","","",""
"street view slide show","image-button-response","131","488449","0.0-131.0","","656776a7904ae00d6b91d1dd","6568ada07d6d1fdef115b01e","14","","","","","","","","","","","","null","stimulus/SV_PolicingMSA/GA_2654/IMG_6_2654.jpg","null","","","","","","3","","","","","",""
"street view slide show","image-button-response","132","489460","0.0-132.0","","656776a7904ae00d6b91d1dd","6568ada07d6d1fdef115b01e","14","","","","","","","","","","","","null","stimulus/SV_PolicingMSA/GA_2654/IMG_1_2654.jpg","null","","","","","","3","","","","","",""
"street view slide show","image-button-response","133","490476","0.0-133.0","","656776a7904ae00d6b91d1dd","6568ada07d6d1fdef115b01e","14","","","","","","","","","","","","null","stimulus/SV_PolicingMSA/GA_2654/IMG_0_2654.jpg","null","","","","","","3","","","","","",""
"street view slide show","image-button-response","134","491479","0.0-134.0","","656776a7904ae00d6b91d1dd","6568ada07d6d1fdef115b01e","14","","","","","","","","","","","","null","stimulus/SV_PolicingMSA/GA_2654/IMG_7_2654.jpg","null","","","","","","3","","","","","",""
"street view slide show","image-button-response","135","492492","0.0-135.0","","656776a7904ae00d6b91d1dd","6568ada07d6d1fdef115b01e","14","","","","","","","","","","","","null","stimulus/SV_PolicingMSA/GA_2654/IMG_3_2654.jpg","null","","","","","","3","","","","","",""
"street view slide show","image-button-response","136","493497","0.0-136.0","","656776a7904ae00d6b91d1dd","6568ada07d6d1fdef115b01e","14","","","","","","","","","","","","null","stimulus/SV_PolicingMSA/GA_2654/IMG_12_2654.jpg","null","","","","","","3","","","","","",""
"dot matrix survey1","survey","137","503373","0.0-137.0","","656776a7904ae00d6b91d1dd","6568ada07d6d1fdef115b01e","14","","","","","","","","","","","","9859","","{""P0_Q0"":null,""P0_Q1"":{""wealthy"":0,""safe"":1,""walkable"":1,""traditional"":1,""diverse"":1}}","","","","","","3","[]","","","","",""
"dot matrix survey2","survey","138","509113","0.0-138.0","","656776a7904ae00d6b91d1dd","6568ada07d6d1fdef115b01e","14","","","","","","","","","","","","5728","","{""P0_Q0"":null,""P0_Q1"":{""violence"":1,""crime"":1,""drug"":1,""schools"":1,""opportunities"":1}}","","","","","","3","[]","","","","",""
"dot matrix survey3","survey","139","514945","0.0-139.0","","656776a7904ae00d6b91d1dd","6568ada07d6d1fdef115b01e","14","","","","","","","","","","","","5822","","{""P0_Q0"":null,""P0_Q1"":{""movein"":0,""moveout"":3,""shopping"":0,""walk"":0,""park"":0,""school"":0}}","","","","","","3","[]","","","","",""
"sliderTrial","html-slider-response","140","516609","0.0-140.0","","656776a7904ae00d6b91d1dd","6568ada07d6d1fdef115b01e","14","","","","","","","","","","","","1660","[""SV_PolicingMSA/GA_2654/IMG_5_2654.jpg"",""SV_PolicingMSA/GA_2654/IMG_8_2654.jpg"",""SV_PolicingMSA/GA_2654/IMG_6_2654.jpg"",""SV_PolicingMSA/GA_2654/IMG_1_2654.jpg"",""SV_PolicingMSA/GA_2654/IMG_0_2654.jpg"",""SV_PolicingMSA/GA_2654/IMG_7_2654.jpg"",""SV_PolicingMSA/GA_2654/IMG_3_2654.jpg"",""SV_PolicingMSA/GA_2654/IMG_12_2654.jpg""]","3","","","","","","3","","4","[""./rc_img/cop_condGroup_9_CommunitySafety_autoscaled.png"",""./rc_img/cop_condGroup_9_SafeStreets_autoscaled.png""]","3","",""
"sliderTrial","html-slider-response","141","518103","0.0-141.0","","656776a7904ae00d6b91d1dd","6568ada07d6d1fdef115b01e","14","","","","","","","","","","","","1492","[""SV_PolicingMSA/GA_2654/IMG_5_2654.jpg"",""SV_PolicingMSA/GA_2654/IMG_8_2654.jpg"",""SV_PolicingMSA/GA_2654/IMG_6_2654.jpg"",""SV_PolicingMSA/GA_2654/IMG_1_2654.jpg"",""SV_PolicingMSA/GA_2654/IMG_0_2654.jpg"",""SV_PolicingMSA/GA_2654/IMG_7_2654.jpg"",""SV_PolicingMSA/GA_2654/IMG_3_2654.jpg"",""SV_PolicingMSA/GA_2654/IMG_12_2654.jpg""]","3","","","","","","3","","4","[""./rc_img/cop_condGroup_3_CommunitySafety_autoscaled.png"",""./rc_img/cop_condGroup_3_SafeStreets_autoscaled.png""]","3","",""
"sliderTrial","html-slider-response","142","519781","0.0-142.0","","656776a7904ae00d6b91d1dd","6568ada07d6d1fdef115b01e","14","","","","","","","","","","","","1674","[""SV_PolicingMSA/GA_2654/IMG_5_2654.jpg"",""SV_PolicingMSA/GA_2654/IMG_8_2654.jpg"",""SV_PolicingMSA/GA_2654/IMG_6_2654.jpg"",""SV_PolicingMSA/GA_2654/IMG_1_2654.jpg"",""SV_PolicingMSA/GA_2654/IMG_0_2654.jpg"",""SV_PolicingMSA/GA_2654/IMG_7_2654.jpg"",""SV_PolicingMSA/GA_2654/IMG_3_2654.jpg"",""SV_PolicingMSA/GA_2654/IMG_12_2654.jpg""]","3","","","","","","3","","4","[""./rc_img/cop_condGroup_14_CommunitySafety_autoscaled.png"",""./rc_img/cop_condGroup_14_SafeStreets_autoscaled.png""]","3","",""
"sliderTrial","html-slider-response","143","521723","0.0-143.0","","656776a7904ae00d6b91d1dd","6568ada07d6d1fdef115b01e","14","","","","","","","","","","","","1939","[""SV_PolicingMSA/GA_2654/IMG_5_2654.jpg"",""SV_PolicingMSA/GA_2654/IMG_8_2654.jpg"",""SV_PolicingMSA/GA_2654/IMG_6_2654.jpg"",""SV_PolicingMSA/GA_2654/IMG_1_2654.jpg"",""SV_PolicingMSA/GA_2654/IMG_0_2654.jpg"",""SV_PolicingMSA/GA_2654/IMG_7_2654.jpg"",""SV_PolicingMSA/GA_2654/IMG_3_2654.jpg"",""SV_PolicingMSA/GA_2654/IMG_12_2654.jpg""]","4","","","","","","3","","4","[""./rc_img/cop_condGroup_15_CommunitySafety_autoscaled.png"",""./rc_img/cop_condGroup_15_SafeStreets_autoscaled.png""]","4","",""
"sliderTrial","html-slider-response","144","523864","0.0-144.0","","656776a7904ae00d6b91d1dd","6568ada07d6d1fdef115b01e","14","","","","","","","","","","","","2139","[""SV_PolicingMSA/GA_2654/IMG_5_2654.jpg"",""SV_PolicingMSA/GA_2654/IMG_8_2654.jpg"",""SV_PolicingMSA/GA_2654/IMG_6_2654.jpg"",""SV_PolicingMSA/GA_2654/IMG_1_2654.jpg"",""SV_PolicingMSA/GA_2654/IMG_0_2654.jpg"",""SV_PolicingMSA/GA_2654/IMG_7_2654.jpg"",""SV_PolicingMSA/GA_2654/IMG_3_2654.jpg"",""SV_PolicingMSA/GA_2654/IMG_12_2654.jpg""]","4","","","","","","3","","4","[""./rc_img/cop_condGroup_19_SafeStreets_autoscaled.png"",""./rc_img/cop_condGroup_19_CommunitySafety_autoscaled.png""]","4","",""
"demographics","survey-html-form","145","530878","0.0-145.0","","656776a7904ae00d6b91d1dd","6568ada07d6d1fdef115b01e","14","","","","","","","","","","","","7010","","{""age"":""33"",""sex"":""male"",""gender"":""man"",""gender-self-describe"":"""",""zipcode"":""98503""}","","","","","","","","","","","",""
"demographics-list","survey","146","539191","0.0-146.0","","656776a7904ae00d6b91d1dd","6568ada07d6d1fdef115b01e","14","","","","","","","","","","","","8276","","{""P0_Q0"":null,""race-ethnicity"":[""White or of European ancestry""],""education"":""Some college"",""P1_Q0"":null,""ideology"":""Very Liberal"",""P2_Q0"":null,""num-moves"":1,""P3_Q0"":null,""social-ladder"":2}","","","","","","","[]","","","","",""
"end-survey","survey-text","147","541034","0.0-147.0","","656776a7904ae00d6b91d1dd","6568ada07d6d1fdef115b01e","14","","","","","","","","","","","","1834","","{""Q0"":""""}","","","","","","","","","","","","2"
"end-survey","html-button-response","148","544855","0.0-148.0","","656776a7904ae00d6b91d1dd","6568ada07d6d1fdef115b01e","14","","","","","","","","","","","","3819","
    You've reached the end of the survey. <br><br> 
    <b>Do not close or refresh this window.</b><br>
    On the next page, you will be automatically redirected to Prolific. <br><br>

    <div class=""alert alert-warning""><b>
    </div>
","0","","","","","","","","","","","",""
