"task","trial_type","trial_index","time_elapsed","internal_node_id","subject_id","study_id","session_id","section","width","height","webaudio","browser","browser_version","mobile","os","fullscreen","vsync_rate","webcam","microphone","rt","stimulus","response","success","timeout","failed_images","failed_audio","failed_video","block","accuracy","slider_start","choices","standardized_response","correct","num_attention_checks_correct"
"pavlovia-init","pavlovia","0","1407","0.0-0.0","","656776a7904ae00d6b91d1dd","6568ac0f9026038c0df229eb","15","","","","","","","","","","","","","","","","","","","","","","","","","",""
"browser-check","browser-check","1","2398","0.0-1.0","","656776a7904ae00d6b91d1dd","6568ac0f9026038c0df229eb","15","1920","931","true","chrome","119.0.0","false","Windows 10","true","60.89","true","true","","","","","","","","","","","","","","",""
"consent","html-button-response","2","19820","0.0-2.0","","656776a7904ae00d6b91d1dd","6568ac0f9026038c0df229eb","15","","","","","","","","","","","","17420","
        <div style=""font-size: 80%; max-width:700px"">
            <h2>CONSENT FORM</h2>
        
            <div style=""text-align: left"">
            <h4>DESCRIPTION</h4>
            <p>
            You will complete a short task where you give your impressions of various neighborhoods and assign individuals to those spaces, and answer some questions about your thoughts and opinions.<br>
            The University of Michigan Institutional Review Board Health Sciences and Behavioral Sciences has determined that this study is exempt from IRB oversight.
            </p>

            <h4>TIME INVOLVEMENT</h4>
            <p>Your participation will take approximately 15 minutes. You will receive $3.15 upon completion of the study.</p>
        
            <h4>RISKS AND BENEFITS</h4>
            <p>
            The risks associated with this study are minimal. The benefits which may reasonably be expected to result from this study are none. We cannot and do not guarantee or promise that you will receive any benefits from this study.
            </p>
          
            <h4>SUBJECT'S RIGHTS</h4>
            <p>
            If you have read this form and have decided to participate in this project, please understand your participation is voluntary and you have the right to withdraw your consent or discontinue participation at any time without penalty or loss of benefits to which you are otherwise entitled. The alternative is not to participate. You have the right to refuse to answer particular questions. Your individual privacy will be maintained in all published and written data resulting from the study.
            </p>

            <h4>HUMAN SUBJECT APPROVAL</h4>
            <p>
            This study is exempt from ongoing IRB review.
            </p>

            <h4>CONTACT INFORMATION</h4>
            If you have any questions, concerns or complaints about this research, its procedures, risks and benefits, contact the Protocol Director, Nicholas Camp, npcamp@umich.edu, (443) 851-6783. <br>

            If you have questions about your rights as a research participant, or wish to obtain information, ask questions or discuss any concerns about this study with someone other than the researcher(s), please contact the following:<br><br>
            University of Michigan<br>
            Health Sciences and Behavioral Sciences Institutional Review Board (IRB-HSBS)<br>
            2800 Plymouth Road<br>
            Building 520, Room 1169Ann Arbor, MI 48109-2800<br>
            Telephone: 734-936-0933 or toll free (866) 936-0933<br>
            Fax: 734-936-1852<br>
            E-mail: irbhsbs@umich.edu<br><br>

            You can also contact the University of Michigan Compliance Hotline at 1-866-990-0111. You may also print this consent form to keep.
            <br><br>
            <div class=""alert alert-warning""><b>
            Do you consent to participate in this study? If you consent to participate in this study, please click “Accept and Continue”. If you select ""Decline and Exit"", you will be exited from the survey. <br>
            </b></div>
            </div>
        </div>
    ","1","","","","","","","","","","","",""
"","preload","3","22607","0.0-3.0","","656776a7904ae00d6b91d1dd","6568ac0f9026038c0df229eb","15","","","","","","","","","","","","","","","true","false","[]","[]","[]","","","","","","",""
"instructions","html-button-response","4","40048","0.0-4.0","","656776a7904ae00d6b91d1dd","6568ac0f9026038c0df229eb","15","","","","","","","","","","","","17440","
        <div class=""text-container"">
        <h1>Welcome to the study!</h1>
        
        <div class=""text-left"">
            <p>
                In this study, we are interested in what people can tell about spaces from Google Street View images. <br> Google Street View takes pictures of streets used for Google Earth and Google Maps. <br>You’ll see Google Street View images of different places and answer some questions about each one.<br>
            </p>
        </div>
        <img src = ""assets/img/example.png"" width = 500px, height = auto>
        <br>
    <br>
    ","0","","","","","","","","","","","",""
"instructions","html-button-response","5","44797","0.0-5.0","","656776a7904ae00d6b91d1dd","6568ac0f9026038c0df229eb","15","","","","","","","","","","","","4749","
    <div class=""text-container"">
        <div class=""text-center"">
            <p>Please remember that your answers are completely anonymous.<br>Go with your gut response- there are no right or wrong answers!</p>
        </div>
    <br>
","0","","","","","","","","","","","",""
"before_SVSlide_prompt","html-button-response","6","46224","0.0-6.0","","656776a7904ae00d6b91d1dd","6568ac0f9026038c0df229eb","15","","","","","","","","","","","","1426","Click [Next] to see the next neighborhood!","0","","","","","","","","","","","",""
"street view slide show","image-button-response","7","47227","0.0-7.0","","656776a7904ae00d6b91d1dd","6568ac0f9026038c0df229eb","15","","","","","","","","","","","","null","stimulus/SV_PolicingMSA/MA_854/IMG_11_854.jpg","null","","","","","","1","","","","","",""
"street view slide show","image-button-response","8","48239","0.0-8.0","","656776a7904ae00d6b91d1dd","6568ac0f9026038c0df229eb","15","","","","","","","","","","","","null","stimulus/SV_PolicingMSA/MA_854/IMG_7_854.jpg","null","","","","","","1","","","","","",""
"street view slide show","image-button-response","9","49242","0.0-9.0","","656776a7904ae00d6b91d1dd","6568ac0f9026038c0df229eb","15","","","","","","","","","","","","null","stimulus/SV_PolicingMSA/MA_854/IMG_13_854.jpg","null","","","","","","1","","","","","",""
"street view slide show","image-button-response","10","50247","0.0-10.0","","656776a7904ae00d6b91d1dd","6568ac0f9026038c0df229eb","15","","","","","","","","","","","","null","stimulus/SV_PolicingMSA/MA_854/IMG_12_854.jpg","null","","","","","","1","","","","","",""
"street view slide show","image-button-response","11","51251","0.0-11.0","","656776a7904ae00d6b91d1dd","6568ac0f9026038c0df229eb","15","","","","","","","","","","","","null","stimulus/SV_PolicingMSA/MA_854/IMG_0_854.jpg","null","","","","","","1","","","","","",""
"street view slide show","image-button-response","12","52256","0.0-12.0","","656776a7904ae00d6b91d1dd","6568ac0f9026038c0df229eb","15","","","","","","","","","","","","null","stimulus/SV_PolicingMSA/MA_854/IMG_10_854.jpg","null","","","","","","1","","","","","",""
"street view slide show","image-button-response","13","53262","0.0-13.0","","656776a7904ae00d6b91d1dd","6568ac0f9026038c0df229eb","15","","","","","","","","","","","","null","stimulus/SV_PolicingMSA/MA_854/IMG_3_854.jpg","null","","","","","","1","","","","","",""
"street view slide show","image-button-response","14","54269","0.0-14.0","","656776a7904ae00d6b91d1dd","6568ac0f9026038c0df229eb","15","","","","","","","","","","","","null","stimulus/SV_PolicingMSA/MA_854/IMG_5_854.jpg","null","","","","","","1","","","","","",""
"dot matrix survey1","survey","15","97256","0.0-15.0","","656776a7904ae00d6b91d1dd","6568ac0f9026038c0df229eb","15","","","","","","","","","","","","42958","","{""P0_Q0"":null,""P0_Q1"":{""wealthy"":1,""safe"":2,""walkable"":3,""traditional"":2,""diverse"":1}}","","","","","","1","[]","","","","",""
"dot matrix survey2","survey","16","126017","0.0-16.0","","656776a7904ae00d6b91d1dd","6568ac0f9026038c0df229eb","15","","","","","","","","","","","","28755","","{""P0_Q0"":null,""P0_Q1"":{""violence"":3,""crime"":3,""drug"":2,""schools"":1,""opportunities"":1}}","","","","","","1","[]","","","","",""
"dot matrix survey3","survey","17","168569","0.0-17.0","","656776a7904ae00d6b91d1dd","6568ac0f9026038c0df229eb","15","","","","","","","","","","","","42547","","{""P0_Q0"":null,""P0_Q1"":{""movein"":0,""moveout"":4,""shopping"":1,""walk"":0,""park"":2,""school"":1}}","","","","","","1","[]","","","","",""
"sliderTrial","html-slider-response","18","197265","0.0-18.0","","656776a7904ae00d6b91d1dd","6568ac0f9026038c0df229eb","15","","","","","","","","","","","","28694","[""SV_PolicingMSA/MA_854/IMG_11_854.jpg"",""SV_PolicingMSA/MA_854/IMG_7_854.jpg"",""SV_PolicingMSA/MA_854/IMG_13_854.jpg"",""SV_PolicingMSA/MA_854/IMG_12_854.jpg"",""SV_PolicingMSA/MA_854/IMG_0_854.jpg"",""SV_PolicingMSA/MA_854/IMG_10_854.jpg"",""SV_PolicingMSA/MA_854/IMG_3_854.jpg"",""SV_PolicingMSA/MA_854/IMG_5_854.jpg""]","3","","","","","","1","","4","[""./rc_img/cop_condGroup_18_CommunitySafety_autoscaled.png"",""./rc_img/cop_condGroup_18_SafeStreets_autoscaled.png""]","3","",""
"sliderTrial","html-slider-response","19","205275","0.0-19.0","","656776a7904ae00d6b91d1dd","6568ac0f9026038c0df229eb","15","","","","","","","","","","","","8009","[""SV_PolicingMSA/MA_854/IMG_11_854.jpg"",""SV_PolicingMSA/MA_854/IMG_7_854.jpg"",""SV_PolicingMSA/MA_854/IMG_13_854.jpg"",""SV_PolicingMSA/MA_854/IMG_12_854.jpg"",""SV_PolicingMSA/MA_854/IMG_0_854.jpg"",""SV_PolicingMSA/MA_854/IMG_10_854.jpg"",""SV_PolicingMSA/MA_854/IMG_3_854.jpg"",""SV_PolicingMSA/MA_854/IMG_5_854.jpg""]","3","","","","","","1","","4","[""./rc_img/cop_condGroup_20_CommunitySafety_autoscaled.png"",""./rc_img/cop_condGroup_20_SafeStreets_autoscaled.png""]","3","",""
"sliderTrial","html-slider-response","20","211611","0.0-20.0","","656776a7904ae00d6b91d1dd","6568ac0f9026038c0df229eb","15","","","","","","","","","","","","6335","[""SV_PolicingMSA/MA_854/IMG_11_854.jpg"",""SV_PolicingMSA/MA_854/IMG_7_854.jpg"",""SV_PolicingMSA/MA_854/IMG_13_854.jpg"",""SV_PolicingMSA/MA_854/IMG_12_854.jpg"",""SV_PolicingMSA/MA_854/IMG_0_854.jpg"",""SV_PolicingMSA/MA_854/IMG_10_854.jpg"",""SV_PolicingMSA/MA_854/IMG_3_854.jpg"",""SV_PolicingMSA/MA_854/IMG_5_854.jpg""]","5","","","","","","1","","4","[""./rc_img/cop_condGroup_16_SafeStreets_autoscaled.png"",""./rc_img/cop_condGroup_16_CommunitySafety_autoscaled.png""]","3","",""
"sliderTrial_attention","html-slider-response","21","221615","0.0-21.0","","656776a7904ae00d6b91d1dd","6568ac0f9026038c0df229eb","15","","","","","","","","","","","","null","[""SV_PolicingMSA/MA_854/IMG_11_854.jpg"",""SV_PolicingMSA/MA_854/IMG_7_854.jpg"",""SV_PolicingMSA/MA_854/IMG_13_854.jpg"",""SV_PolicingMSA/MA_854/IMG_12_854.jpg"",""SV_PolicingMSA/MA_854/IMG_0_854.jpg"",""SV_PolicingMSA/MA_854/IMG_10_854.jpg"",""SV_PolicingMSA/MA_854/IMG_3_854.jpg"",""SV_PolicingMSA/MA_854/IMG_5_854.jpg""]","null","","","","","","1","","4","[""./assets/img/attnchk.png"",""./assets/img/attnchk.png""]","","true",""
"sliderTrial","html-slider-response","22","229435","0.0-22.0","","656776a7904ae00d6b91d1dd","6568ac0f9026038c0df229eb","15","","","","","","","","","","","","7818","[""SV_PolicingMSA/MA_854/IMG_11_854.jpg"",""SV_PolicingMSA/MA_854/IMG_7_854.jpg"",""SV_PolicingMSA/MA_854/IMG_13_854.jpg"",""SV_PolicingMSA/MA_854/IMG_12_854.jpg"",""SV_PolicingMSA/MA_854/IMG_0_854.jpg"",""SV_PolicingMSA/MA_854/IMG_10_854.jpg"",""SV_PolicingMSA/MA_854/IMG_3_854.jpg"",""SV_PolicingMSA/MA_854/IMG_5_854.jpg""]","5","","","","","","1","","4","[""./rc_img/cop_condGroup_10_SafeStreets_autoscaled.png"",""./rc_img/cop_condGroup_10_CommunitySafety_autoscaled.png""]","3","",""
"sliderTrial","html-slider-response","23","239518","0.0-23.0","","656776a7904ae00d6b91d1dd","6568ac0f9026038c0df229eb","15","","","","","","","","","","","","10081","[""SV_PolicingMSA/MA_854/IMG_11_854.jpg"",""SV_PolicingMSA/MA_854/IMG_7_854.jpg"",""SV_PolicingMSA/MA_854/IMG_13_854.jpg"",""SV_PolicingMSA/MA_854/IMG_12_854.jpg"",""SV_PolicingMSA/MA_854/IMG_0_854.jpg"",""SV_PolicingMSA/MA_854/IMG_10_854.jpg"",""SV_PolicingMSA/MA_854/IMG_3_854.jpg"",""SV_PolicingMSA/MA_854/IMG_5_854.jpg""]","3","","","","","","1","","4","[""./rc_img/cop_condGroup_17_CommunitySafety_autoscaled.png"",""./rc_img/cop_condGroup_17_SafeStreets_autoscaled.png""]","3","",""
"before_SVSlide_prompt","html-button-response","24","241533","0.0-24.0","","656776a7904ae00d6b91d1dd","6568ac0f9026038c0df229eb","15","","","","","","","","","","","","2015","Click [Next] to see the next neighborhood!","0","","","","","","","","","","","",""
"street view slide show","image-button-response","25","242536","0.0-25.0","","656776a7904ae00d6b91d1dd","6568ac0f9026038c0df229eb","15","","","","","","","","","","","","null","stimulus/SV_PolicingMSA/MA_159/IMG_7_159.jpg","null","","","","","","4","","","","","",""
"street view slide show","image-button-response","26","243538","0.0-26.0","","656776a7904ae00d6b91d1dd","6568ac0f9026038c0df229eb","15","","","","","","","","","","","","null","stimulus/SV_PolicingMSA/MA_159/IMG_14_159.jpg","null","","","","","","4","","","","","",""
"street view slide show","image-button-response","27","244549","0.0-27.0","","656776a7904ae00d6b91d1dd","6568ac0f9026038c0df229eb","15","","","","","","","","","","","","null","stimulus/SV_PolicingMSA/MA_159/IMG_4_159.jpg","null","","","","","","4","","","","","",""
"street view slide show","image-button-response","28","245553","0.0-28.0","","656776a7904ae00d6b91d1dd","6568ac0f9026038c0df229eb","15","","","","","","","","","","","","null","stimulus/SV_PolicingMSA/MA_159/IMG_11_159.jpg","null","","","","","","4","","","","","",""
"street view slide show","image-button-response","29","246554","0.0-29.0","","656776a7904ae00d6b91d1dd","6568ac0f9026038c0df229eb","15","","","","","","","","","","","","null","stimulus/SV_PolicingMSA/MA_159/IMG_10_159.jpg","null","","","","","","4","","","","","",""
"street view slide show","image-button-response","30","247563","0.0-30.0","","656776a7904ae00d6b91d1dd","6568ac0f9026038c0df229eb","15","","","","","","","","","","","","null","stimulus/SV_PolicingMSA/MA_159/IMG_5_159.jpg","null","","","","","","4","","","","","",""
"street view slide show","image-button-response","31","248568","0.0-31.0","","656776a7904ae00d6b91d1dd","6568ac0f9026038c0df229eb","15","","","","","","","","","","","","null","stimulus/SV_PolicingMSA/MA_159/IMG_13_159.jpg","null","","","","","","4","","","","","",""
"street view slide show","image-button-response","32","249573","0.0-32.0","","656776a7904ae00d6b91d1dd","6568ac0f9026038c0df229eb","15","","","","","","","","","","","","null","stimulus/SV_PolicingMSA/MA_159/IMG_9_159.jpg","null","","","","","","4","","","","","",""
"dot matrix survey1","survey","33","268442","0.0-33.0","","656776a7904ae00d6b91d1dd","6568ac0f9026038c0df229eb","15","","","","","","","","","","","","18857","","{""P0_Q0"":null,""P0_Q1"":{""wealthy"":3,""safe"":4,""walkable"":4,""traditional"":4,""diverse"":1}}","","","","","","4","[]","","","","",""
"dot matrix survey2","survey","34","292208","0.0-34.0","","656776a7904ae00d6b91d1dd","6568ac0f9026038c0df229eb","15","","","","","","","","","","","","23762","","{""P0_Q0"":null,""P0_Q1"":{""violence"":0,""crime"":0,""drug"":1,""schools"":3,""opportunities"":3}}","","","","","","4","[]","","","","",""
"dot matrix survey3","survey","35","320590","0.0-35.0","","656776a7904ae00d6b91d1dd","6568ac0f9026038c0df229eb","15","","","","","","","","","","","","28376","","{""P0_Q0"":null,""P0_Q1"":{""movein"":4,""moveout"":0,""shopping"":4,""walk"":3,""park"":4,""school"":4}}","","","","","","4","[]","","","","",""
"sliderTrial","html-slider-response","36","345258","0.0-36.0","","656776a7904ae00d6b91d1dd","6568ac0f9026038c0df229eb","15","","","","","","","","","","","","24667","[""SV_PolicingMSA/MA_159/IMG_7_159.jpg"",""SV_PolicingMSA/MA_159/IMG_14_159.jpg"",""SV_PolicingMSA/MA_159/IMG_4_159.jpg"",""SV_PolicingMSA/MA_159/IMG_11_159.jpg"",""SV_PolicingMSA/MA_159/IMG_10_159.jpg"",""SV_PolicingMSA/MA_159/IMG_5_159.jpg"",""SV_PolicingMSA/MA_159/IMG_13_159.jpg"",""SV_PolicingMSA/MA_159/IMG_9_159.jpg""]","2","","","","","","4","","4","[""./rc_img/cop_condGroup_19_CommunitySafety_autoscaled.png"",""./rc_img/cop_condGroup_19_SafeStreets_autoscaled.png""]","2","",""
"sliderTrial","html-slider-response","37","348304","0.0-37.0","","656776a7904ae00d6b91d1dd","6568ac0f9026038c0df229eb","15","","","","","","","","","","","","3044","[""SV_PolicingMSA/MA_159/IMG_7_159.jpg"",""SV_PolicingMSA/MA_159/IMG_14_159.jpg"",""SV_PolicingMSA/MA_159/IMG_4_159.jpg"",""SV_PolicingMSA/MA_159/IMG_11_159.jpg"",""SV_PolicingMSA/MA_159/IMG_10_159.jpg"",""SV_PolicingMSA/MA_159/IMG_5_159.jpg"",""SV_PolicingMSA/MA_159/IMG_13_159.jpg"",""SV_PolicingMSA/MA_159/IMG_9_159.jpg""]","6","","","","","","4","","4","[""./rc_img/cop_condGroup_8_SafeStreets_autoscaled.png"",""./rc_img/cop_condGroup_8_CommunitySafety_autoscaled.png""]","2","",""
"sliderTrial","html-slider-response","38","352078","0.0-38.0","","656776a7904ae00d6b91d1dd","6568ac0f9026038c0df229eb","15","","","","","","","","","","","","3773","[""SV_PolicingMSA/MA_159/IMG_7_159.jpg"",""SV_PolicingMSA/MA_159/IMG_14_159.jpg"",""SV_PolicingMSA/MA_159/IMG_4_159.jpg"",""SV_PolicingMSA/MA_159/IMG_11_159.jpg"",""SV_PolicingMSA/MA_159/IMG_10_159.jpg"",""SV_PolicingMSA/MA_159/IMG_5_159.jpg"",""SV_PolicingMSA/MA_159/IMG_13_159.jpg"",""SV_PolicingMSA/MA_159/IMG_9_159.jpg""]","6","","","","","","4","","4","[""./rc_img/cop_condGroup_13_SafeStreets_autoscaled.png"",""./rc_img/cop_condGroup_13_CommunitySafety_autoscaled.png""]","2","",""
"sliderTrial","html-slider-response","39","356346","0.0-39.0","","656776a7904ae00d6b91d1dd","6568ac0f9026038c0df229eb","15","","","","","","","","","","","","4266","[""SV_PolicingMSA/MA_159/IMG_7_159.jpg"",""SV_PolicingMSA/MA_159/IMG_14_159.jpg"",""SV_PolicingMSA/MA_159/IMG_4_159.jpg"",""SV_PolicingMSA/MA_159/IMG_11_159.jpg"",""SV_PolicingMSA/MA_159/IMG_10_159.jpg"",""SV_PolicingMSA/MA_159/IMG_5_159.jpg"",""SV_PolicingMSA/MA_159/IMG_13_159.jpg"",""SV_PolicingMSA/MA_159/IMG_9_159.jpg""]","6","","","","","","4","","4","[""./rc_img/cop_condGroup_11_SafeStreets_autoscaled.png"",""./rc_img/cop_condGroup_11_CommunitySafety_autoscaled.png""]","2","",""
"sliderTrial","html-slider-response","40","363216","0.0-40.0","","656776a7904ae00d6b91d1dd","6568ac0f9026038c0df229eb","15","","","","","","","","","","","","6869","[""SV_PolicingMSA/MA_159/IMG_7_159.jpg"",""SV_PolicingMSA/MA_159/IMG_14_159.jpg"",""SV_PolicingMSA/MA_159/IMG_4_159.jpg"",""SV_PolicingMSA/MA_159/IMG_11_159.jpg"",""SV_PolicingMSA/MA_159/IMG_10_159.jpg"",""SV_PolicingMSA/MA_159/IMG_5_159.jpg"",""SV_PolicingMSA/MA_159/IMG_13_159.jpg"",""SV_PolicingMSA/MA_159/IMG_9_159.jpg""]","6","","","","","","4","","4","[""./rc_img/cop_condGroup_3_SafeStreets_autoscaled.png"",""./rc_img/cop_condGroup_3_CommunitySafety_autoscaled.png""]","2","",""
"before_SVSlide_prompt","html-button-response","41","365274","0.0-41.0","","656776a7904ae00d6b91d1dd","6568ac0f9026038c0df229eb","15","","","","","","","","","","","","2057","Click [Next] to see the next neighborhood!","0","","","","","","","","","","","",""
"street view slide show","image-button-response","42","366286","0.0-42.0","","656776a7904ae00d6b91d1dd","6568ac0f9026038c0df229eb","15","","","","","","","","","","","","null","stimulus/SV_PolicingMSA/MA_185/IMG_13_185.jpg","null","","","","","","0","","","","","",""
"street view slide show","image-button-response","43","367294","0.0-43.0","","656776a7904ae00d6b91d1dd","6568ac0f9026038c0df229eb","15","","","","","","","","","","","","null","stimulus/SV_PolicingMSA/MA_185/IMG_1_185.jpg","null","","","","","","0","","","","","",""
"street view slide show","image-button-response","44","368298","0.0-44.0","","656776a7904ae00d6b91d1dd","6568ac0f9026038c0df229eb","15","","","","","","","","","","","","null","stimulus/SV_PolicingMSA/MA_185/IMG_8_185.jpg","null","","","","","","0","","","","","",""
"street view slide show","image-button-response","45","369307","0.0-45.0","","656776a7904ae00d6b91d1dd","6568ac0f9026038c0df229eb","15","","","","","","","","","","","","null","stimulus/SV_PolicingMSA/MA_185/IMG_5_185.jpg","null","","","","","","0","","","","","",""
"street view slide show","image-button-response","46","370309","0.0-46.0","","656776a7904ae00d6b91d1dd","6568ac0f9026038c0df229eb","15","","","","","","","","","","","","null","stimulus/SV_PolicingMSA/MA_185/IMG_6_185.jpg","null","","","","","","0","","","","","",""
"street view slide show","image-button-response","47","371311","0.0-47.0","","656776a7904ae00d6b91d1dd","6568ac0f9026038c0df229eb","15","","","","","","","","","","","","null","stimulus/SV_PolicingMSA/MA_185/IMG_11_185.jpg","null","","","","","","0","","","","","",""
"street view slide show","image-button-response","48","372319","0.0-48.0","","656776a7904ae00d6b91d1dd","6568ac0f9026038c0df229eb","15","","","","","","","","","","","","null","stimulus/SV_PolicingMSA/MA_185/IMG_2_185.jpg","null","","","","","","0","","","","","",""
"street view slide show","image-button-response","49","373323","0.0-49.0","","656776a7904ae00d6b91d1dd","6568ac0f9026038c0df229eb","15","","","","","","","","","","","","null","stimulus/SV_PolicingMSA/MA_185/IMG_3_185.jpg","null","","","","","","0","","","","","",""
"dot matrix survey1","survey","50","412580","0.0-50.0","","656776a7904ae00d6b91d1dd","6568ac0f9026038c0df229eb","15","","","","","","","","","","","","39244","","{""P0_Q0"":null,""P0_Q1"":{""wealthy"":1,""safe"":2,""walkable"":2,""traditional"":4,""diverse"":3}}","","","","","","0","[]","","","","",""
"dot matrix survey2","survey","51","437986","0.0-51.0","","656776a7904ae00d6b91d1dd","6568ac0f9026038c0df229eb","15","","","","","","","","","","","","25403","","{""P0_Q0"":null,""P0_Q1"":{""violence"":2,""crime"":2,""drug"":3,""schools"":1,""opportunities"":1}}","","","","","","0","[]","","","","",""
"dot matrix survey3","survey","52","477013","0.0-52.0","","656776a7904ae00d6b91d1dd","6568ac0f9026038c0df229eb","15","","","","","","","","","","","","39022","","{""P0_Q0"":null,""P0_Q1"":{""movein"":1,""moveout"":3,""walk"":0,""park"":3,""school"":2}}","","","","","","0","[]","","","","",""
"sliderTrial","html-slider-response","53","482765","0.0-53.0","","656776a7904ae00d6b91d1dd","6568ac0f9026038c0df229eb","15","","","","","","","","","","","","5751","[""SV_PolicingMSA/MA_185/IMG_13_185.jpg"",""SV_PolicingMSA/MA_185/IMG_1_185.jpg"",""SV_PolicingMSA/MA_185/IMG_8_185.jpg"",""SV_PolicingMSA/MA_185/IMG_5_185.jpg"",""SV_PolicingMSA/MA_185/IMG_6_185.jpg"",""SV_PolicingMSA/MA_185/IMG_11_185.jpg"",""SV_PolicingMSA/MA_185/IMG_2_185.jpg"",""SV_PolicingMSA/MA_185/IMG_3_185.jpg""]","3","","","","","","0","","4","[""./rc_img/cop_condGroup_9_CommunitySafety_autoscaled.png"",""./rc_img/cop_condGroup_9_SafeStreets_autoscaled.png""]","3","",""
"sliderTrial_attention","html-slider-response","54","492777","0.0-54.0","","656776a7904ae00d6b91d1dd","6568ac0f9026038c0df229eb","15","","","","","","","","","","","","null","[""SV_PolicingMSA/MA_185/IMG_13_185.jpg"",""SV_PolicingMSA/MA_185/IMG_1_185.jpg"",""SV_PolicingMSA/MA_185/IMG_8_185.jpg"",""SV_PolicingMSA/MA_185/IMG_5_185.jpg"",""SV_PolicingMSA/MA_185/IMG_6_185.jpg"",""SV_PolicingMSA/MA_185/IMG_11_185.jpg"",""SV_PolicingMSA/MA_185/IMG_2_185.jpg"",""SV_PolicingMSA/MA_185/IMG_3_185.jpg""]","null","","","","","","0","","4","[""./assets/img/attnchk.png"",""./assets/img/attnchk.png""]","","true",""
"sliderTrial","html-slider-response","55","497491","0.0-55.0","","656776a7904ae00d6b91d1dd","6568ac0f9026038c0df229eb","15","","","","","","","","","","","","4712","[""SV_PolicingMSA/MA_185/IMG_13_185.jpg"",""SV_PolicingMSA/MA_185/IMG_1_185.jpg"",""SV_PolicingMSA/MA_185/IMG_8_185.jpg"",""SV_PolicingMSA/MA_185/IMG_5_185.jpg"",""SV_PolicingMSA/MA_185/IMG_6_185.jpg"",""SV_PolicingMSA/MA_185/IMG_11_185.jpg"",""SV_PolicingMSA/MA_185/IMG_2_185.jpg"",""SV_PolicingMSA/MA_185/IMG_3_185.jpg""]","5","","","","","","0","","4","[""./rc_img/cop_condGroup_2_SafeStreets_autoscaled.png"",""./rc_img/cop_condGroup_2_CommunitySafety_autoscaled.png""]","3","",""
"sliderTrial","html-slider-response","56","509487","0.0-56.0","","656776a7904ae00d6b91d1dd","6568ac0f9026038c0df229eb","15","","","","","","","","","","","","11994","[""SV_PolicingMSA/MA_185/IMG_13_185.jpg"",""SV_PolicingMSA/MA_185/IMG_1_185.jpg"",""SV_PolicingMSA/MA_185/IMG_8_185.jpg"",""SV_PolicingMSA/MA_185/IMG_5_185.jpg"",""SV_PolicingMSA/MA_185/IMG_6_185.jpg"",""SV_PolicingMSA/MA_185/IMG_11_185.jpg"",""SV_PolicingMSA/MA_185/IMG_2_185.jpg"",""SV_PolicingMSA/MA_185/IMG_3_185.jpg""]","5","","","","","","0","","4","[""./rc_img/cop_condGroup_4_SafeStreets_autoscaled.png"",""./rc_img/cop_condGroup_4_CommunitySafety_autoscaled.png""]","3","",""
"sliderTrial","html-slider-response","57","516767","0.0-57.0","","656776a7904ae00d6b91d1dd","6568ac0f9026038c0df229eb","15","","","","","","","","","","","","7279","[""SV_PolicingMSA/MA_185/IMG_13_185.jpg"",""SV_PolicingMSA/MA_185/IMG_1_185.jpg"",""SV_PolicingMSA/MA_185/IMG_8_185.jpg"",""SV_PolicingMSA/MA_185/IMG_5_185.jpg"",""SV_PolicingMSA/MA_185/IMG_6_185.jpg"",""SV_PolicingMSA/MA_185/IMG_11_185.jpg"",""SV_PolicingMSA/MA_185/IMG_2_185.jpg"",""SV_PolicingMSA/MA_185/IMG_3_185.jpg""]","5","","","","","","0","","4","[""./rc_img/cop_condGroup_7_SafeStreets_autoscaled.png"",""./rc_img/cop_condGroup_7_CommunitySafety_autoscaled.png""]","3","",""
"sliderTrial","html-slider-response","58","521741","0.0-58.0","","656776a7904ae00d6b91d1dd","6568ac0f9026038c0df229eb","15","","","","","","","","","","","","4973","[""SV_PolicingMSA/MA_185/IMG_13_185.jpg"",""SV_PolicingMSA/MA_185/IMG_1_185.jpg"",""SV_PolicingMSA/MA_185/IMG_8_185.jpg"",""SV_PolicingMSA/MA_185/IMG_5_185.jpg"",""SV_PolicingMSA/MA_185/IMG_6_185.jpg"",""SV_PolicingMSA/MA_185/IMG_11_185.jpg"",""SV_PolicingMSA/MA_185/IMG_2_185.jpg"",""SV_PolicingMSA/MA_185/IMG_3_185.jpg""]","3","","","","","","0","","4","[""./rc_img/cop_condGroup_1_CommunitySafety_autoscaled.png"",""./rc_img/cop_condGroup_1_SafeStreets_autoscaled.png""]","3","",""
"before_SVSlide_prompt","html-button-response","59","523471","0.0-59.0","","656776a7904ae00d6b91d1dd","6568ac0f9026038c0df229eb","15","","","","","","","","","","","","1729","Click [Next] to see the next neighborhood!","0","","","","","","","","","","","",""
"street view slide show","image-button-response","60","524472","0.0-60.0","","656776a7904ae00d6b91d1dd","6568ac0f9026038c0df229eb","15","","","","","","","","","","","","null","stimulus/SV_PolicingMSA/MA_157/IMG_0_157.jpg","null","","","","","","3","","","","","",""
"street view slide show","image-button-response","61","525478","0.0-61.0","","656776a7904ae00d6b91d1dd","6568ac0f9026038c0df229eb","15","","","","","","","","","","","","null","stimulus/SV_PolicingMSA/MA_157/IMG_3_157.jpg","null","","","","","","3","","","","","",""
"street view slide show","image-button-response","62","526483","0.0-62.0","","656776a7904ae00d6b91d1dd","6568ac0f9026038c0df229eb","15","","","","","","","","","","","","null","stimulus/SV_PolicingMSA/MA_157/IMG_13_157.jpg","null","","","","","","3","","","","","",""
"street view slide show","image-button-response","63","527490","0.0-63.0","","656776a7904ae00d6b91d1dd","6568ac0f9026038c0df229eb","15","","","","","","","","","","","","null","stimulus/SV_PolicingMSA/MA_157/IMG_4_157.jpg","null","","","","","","3","","","","","",""
"street view slide show","image-button-response","64","528493","0.0-64.0","","656776a7904ae00d6b91d1dd","6568ac0f9026038c0df229eb","15","","","","","","","","","","","","null","stimulus/SV_PolicingMSA/MA_157/IMG_1_157.jpg","null","","","","","","3","","","","","",""
"street view slide show","image-button-response","65","529498","0.0-65.0","","656776a7904ae00d6b91d1dd","6568ac0f9026038c0df229eb","15","","","","","","","","","","","","null","stimulus/SV_PolicingMSA/MA_157/IMG_2_157.jpg","null","","","","","","3","","","","","",""
"street view slide show","image-button-response","66","530504","0.0-66.0","","656776a7904ae00d6b91d1dd","6568ac0f9026038c0df229eb","15","","","","","","","","","","","","null","stimulus/SV_PolicingMSA/MA_157/IMG_5_157.jpg","null","","","","","","3","","","","","",""
"street view slide show","image-button-response","67","531507","0.0-67.0","","656776a7904ae00d6b91d1dd","6568ac0f9026038c0df229eb","15","","","","","","","","","","","","null","stimulus/SV_PolicingMSA/MA_157/IMG_7_157.jpg","null","","","","","","3","","","","","",""
"dot matrix survey1","survey","68","563832","0.0-68.0","","656776a7904ae00d6b91d1dd","6568ac0f9026038c0df229eb","15","","","","","","","","","","","","32312","","{""P0_Q0"":null,""P0_Q1"":{""wealthy"":2,""safe"":3,""walkable"":3,""traditional"":4,""diverse"":1}}","","","","","","3","[]","","","","",""
"dot matrix survey2","survey","69","581090","0.0-69.0","","656776a7904ae00d6b91d1dd","6568ac0f9026038c0df229eb","15","","","","","","","","","","","","17255","","{""P0_Q0"":null,""P0_Q1"":{""violence"":1,""crime"":1,""drug"":2,""schools"":2,""opportunities"":2}}","","","","","","3","[]","","","","",""
"dot matrix survey3","survey","70","615551","0.0-70.0","","656776a7904ae00d6b91d1dd","6568ac0f9026038c0df229eb","15","","","","","","","","","","","","34457","","{""P0_Q0"":null,""P0_Q1"":{""movein"":2,""moveout"":1,""shopping"":3,""walk"":1,""park"":4,""school"":4}}","","","","","","3","[]","","","","",""
"sliderTrial","html-slider-response","71","621637","0.0-71.0","","656776a7904ae00d6b91d1dd","6568ac0f9026038c0df229eb","15","","","","","","","","","","","","6085","[""SV_PolicingMSA/MA_157/IMG_0_157.jpg"",""SV_PolicingMSA/MA_157/IMG_3_157.jpg"",""SV_PolicingMSA/MA_157/IMG_13_157.jpg"",""SV_PolicingMSA/MA_157/IMG_4_157.jpg"",""SV_PolicingMSA/MA_157/IMG_1_157.jpg"",""SV_PolicingMSA/MA_157/IMG_2_157.jpg"",""SV_PolicingMSA/MA_157/IMG_5_157.jpg"",""SV_PolicingMSA/MA_157/IMG_7_157.jpg""]","3","","","","","","3","","4","[""./rc_img/cop_condGroup_18_CommunitySafety_autoscaled.png"",""./rc_img/cop_condGroup_18_SafeStreets_autoscaled.png""]","3","",""
"sliderTrial","html-slider-response","72","625040","0.0-72.0","","656776a7904ae00d6b91d1dd","6568ac0f9026038c0df229eb","15","","","","","","","","","","","","3401","[""SV_PolicingMSA/MA_157/IMG_0_157.jpg"",""SV_PolicingMSA/MA_157/IMG_3_157.jpg"",""SV_PolicingMSA/MA_157/IMG_13_157.jpg"",""SV_PolicingMSA/MA_157/IMG_4_157.jpg"",""SV_PolicingMSA/MA_157/IMG_1_157.jpg"",""SV_PolicingMSA/MA_157/IMG_2_157.jpg"",""SV_PolicingMSA/MA_157/IMG_5_157.jpg"",""SV_PolicingMSA/MA_157/IMG_7_157.jpg""]","3","","","","","","3","","4","[""./rc_img/cop_condGroup_20_CommunitySafety_autoscaled.png"",""./rc_img/cop_condGroup_20_SafeStreets_autoscaled.png""]","3","",""
"sliderTrial","html-slider-response","73","628073","0.0-73.0","","656776a7904ae00d6b91d1dd","6568ac0f9026038c0df229eb","15","","","","","","","","","","","","3032","[""SV_PolicingMSA/MA_157/IMG_0_157.jpg"",""SV_PolicingMSA/MA_157/IMG_3_157.jpg"",""SV_PolicingMSA/MA_157/IMG_13_157.jpg"",""SV_PolicingMSA/MA_157/IMG_4_157.jpg"",""SV_PolicingMSA/MA_157/IMG_1_157.jpg"",""SV_PolicingMSA/MA_157/IMG_2_157.jpg"",""SV_PolicingMSA/MA_157/IMG_5_157.jpg"",""SV_PolicingMSA/MA_157/IMG_7_157.jpg""]","5","","","","","","3","","4","[""./rc_img/cop_condGroup_16_SafeStreets_autoscaled.png"",""./rc_img/cop_condGroup_16_CommunitySafety_autoscaled.png""]","3","",""
"sliderTrial","html-slider-response","74","633264","0.0-74.0","","656776a7904ae00d6b91d1dd","6568ac0f9026038c0df229eb","15","","","","","","","","","","","","5190","[""SV_PolicingMSA/MA_157/IMG_0_157.jpg"",""SV_PolicingMSA/MA_157/IMG_3_157.jpg"",""SV_PolicingMSA/MA_157/IMG_13_157.jpg"",""SV_PolicingMSA/MA_157/IMG_4_157.jpg"",""SV_PolicingMSA/MA_157/IMG_1_157.jpg"",""SV_PolicingMSA/MA_157/IMG_2_157.jpg"",""SV_PolicingMSA/MA_157/IMG_5_157.jpg"",""SV_PolicingMSA/MA_157/IMG_7_157.jpg""]","5","","","","","","3","","4","[""./rc_img/cop_condGroup_10_SafeStreets_autoscaled.png"",""./rc_img/cop_condGroup_10_CommunitySafety_autoscaled.png""]","3","",""
"sliderTrial","html-slider-response","75","636888","0.0-75.0","","656776a7904ae00d6b91d1dd","6568ac0f9026038c0df229eb","15","","","","","","","","","","","","3623","[""SV_PolicingMSA/MA_157/IMG_0_157.jpg"",""SV_PolicingMSA/MA_157/IMG_3_157.jpg"",""SV_PolicingMSA/MA_157/IMG_13_157.jpg"",""SV_PolicingMSA/MA_157/IMG_4_157.jpg"",""SV_PolicingMSA/MA_157/IMG_1_157.jpg"",""SV_PolicingMSA/MA_157/IMG_2_157.jpg"",""SV_PolicingMSA/MA_157/IMG_5_157.jpg"",""SV_PolicingMSA/MA_157/IMG_7_157.jpg""]","3","","","","","","3","","4","[""./rc_img/cop_condGroup_17_CommunitySafety_autoscaled.png"",""./rc_img/cop_condGroup_17_SafeStreets_autoscaled.png""]","3","",""
"half-way","html-button-response","76","652650","0.0-76.0","","656776a7904ae00d6b91d1dd","6568ac0f9026038c0df229eb","15","","","","","","","","","","","","null","
    <h3>You are now half way through the study.</h3>
    <p>Please take a quick, 15-second break before you continue.</p>
    <img src='assets/img/countdown-15.gif'>
    <p>The study will automatically advance forward after the countdown is complete. <br> However, you may click ""Next"" to advance forward now if you wish.</p>
    ","null","","","","","","","","","","","",""
"before_SVSlide_prompt","html-button-response","77","656716","0.0-77.0","","656776a7904ae00d6b91d1dd","6568ac0f9026038c0df229eb","15","","","","","","","","","","","","4066","Click [Next] to see the next neighborhood!","0","","","","","","","","","","","",""
"street view slide show","image-button-response","78","657723","0.0-78.0","","656776a7904ae00d6b91d1dd","6568ac0f9026038c0df229eb","15","","","","","","","","","","","","null","stimulus/SV_PolicingMSA/MA_1486/IMG_8_1486.jpg","null","","","","","","2","","","","","",""
"street view slide show","image-button-response","79","658729","0.0-79.0","","656776a7904ae00d6b91d1dd","6568ac0f9026038c0df229eb","15","","","","","","","","","","","","null","stimulus/SV_PolicingMSA/MA_1486/IMG_9_1486.jpg","null","","","","","","2","","","","","",""
"street view slide show","image-button-response","80","659735","0.0-80.0","","656776a7904ae00d6b91d1dd","6568ac0f9026038c0df229eb","15","","","","","","","","","","","","null","stimulus/SV_PolicingMSA/MA_1486/IMG_5_1486.jpg","null","","","","","","2","","","","","",""
"street view slide show","image-button-response","81","660739","0.0-81.0","","656776a7904ae00d6b91d1dd","6568ac0f9026038c0df229eb","15","","","","","","","","","","","","null","stimulus/SV_PolicingMSA/MA_1486/IMG_4_1486.jpg","null","","","","","","2","","","","","",""
"street view slide show","image-button-response","82","661742","0.0-82.0","","656776a7904ae00d6b91d1dd","6568ac0f9026038c0df229eb","15","","","","","","","","","","","","null","stimulus/SV_PolicingMSA/MA_1486/IMG_0_1486.jpg","null","","","","","","2","","","","","",""
"street view slide show","image-button-response","83","662747","0.0-83.0","","656776a7904ae00d6b91d1dd","6568ac0f9026038c0df229eb","15","","","","","","","","","","","","null","stimulus/SV_PolicingMSA/MA_1486/IMG_12_1486.jpg","null","","","","","","2","","","","","",""
"street view slide show","image-button-response","84","663751","0.0-84.0","","656776a7904ae00d6b91d1dd","6568ac0f9026038c0df229eb","15","","","","","","","","","","","","null","stimulus/SV_PolicingMSA/MA_1486/IMG_11_1486.jpg","null","","","","","","2","","","","","",""
"street view slide show","image-button-response","85","664758","0.0-85.0","","656776a7904ae00d6b91d1dd","6568ac0f9026038c0df229eb","15","","","","","","","","","","","","null","stimulus/SV_PolicingMSA/MA_1486/IMG_13_1486.jpg","null","","","","","","2","","","","","",""
"dot matrix survey1","survey","86","701259","0.0-86.0","","656776a7904ae00d6b91d1dd","6568ac0f9026038c0df229eb","15","","","","","","","","","","","","36490","","{""P0_Q0"":null,""P0_Q1"":{""wealthy"":1,""safe"":2,""walkable"":2,""traditional"":2,""diverse"":1}}","","","","","","2","[]","","","","",""
"dot matrix survey2","survey","87","729408","0.0-87.0","","656776a7904ae00d6b91d1dd","6568ac0f9026038c0df229eb","15","","","","","","","","","","","","28146","","{""P0_Q0"":null,""P0_Q1"":{""violence"":2,""crime"":2,""drug"":2,""schools"":2,""opportunities"":3}}","","","","","","2","[]","","","","",""
"dot matrix survey3","survey","88","768455","0.0-88.0","","656776a7904ae00d6b91d1dd","6568ac0f9026038c0df229eb","15","","","","","","","","","","","","39043","","{""P0_Q0"":null,""P0_Q1"":{""movein"":1,""moveout"":3,""shopping"":2,""walk"":0,""park"":3,""school"":1}}","","","","","","2","[]","","","","",""
"sliderTrial","html-slider-response","89","783024","0.0-89.0","","656776a7904ae00d6b91d1dd","6568ac0f9026038c0df229eb","15","","","","","","","","","","","","14568","[""SV_PolicingMSA/MA_1486/IMG_8_1486.jpg"",""SV_PolicingMSA/MA_1486/IMG_9_1486.jpg"",""SV_PolicingMSA/MA_1486/IMG_5_1486.jpg"",""SV_PolicingMSA/MA_1486/IMG_4_1486.jpg"",""SV_PolicingMSA/MA_1486/IMG_0_1486.jpg"",""SV_PolicingMSA/MA_1486/IMG_12_1486.jpg"",""SV_PolicingMSA/MA_1486/IMG_11_1486.jpg"",""SV_PolicingMSA/MA_1486/IMG_13_1486.jpg""]","5","","","","","","2","","4","[""./rc_img/cop_condGroup_9_CommunitySafety_autoscaled.png"",""./rc_img/cop_condGroup_9_SafeStreets_autoscaled.png""]","5","",""
"sliderTrial","html-slider-response","90","787467","0.0-90.0","","656776a7904ae00d6b91d1dd","6568ac0f9026038c0df229eb","15","","","","","","","","","","","","4443","[""SV_PolicingMSA/MA_1486/IMG_8_1486.jpg"",""SV_PolicingMSA/MA_1486/IMG_9_1486.jpg"",""SV_PolicingMSA/MA_1486/IMG_5_1486.jpg"",""SV_PolicingMSA/MA_1486/IMG_4_1486.jpg"",""SV_PolicingMSA/MA_1486/IMG_0_1486.jpg"",""SV_PolicingMSA/MA_1486/IMG_12_1486.jpg"",""SV_PolicingMSA/MA_1486/IMG_11_1486.jpg"",""SV_PolicingMSA/MA_1486/IMG_13_1486.jpg""]","3","","","","","","2","","4","[""./rc_img/cop_condGroup_2_SafeStreets_autoscaled.png"",""./rc_img/cop_condGroup_2_CommunitySafety_autoscaled.png""]","5","",""
"sliderTrial","html-slider-response","91","790296","0.0-91.0","","656776a7904ae00d6b91d1dd","6568ac0f9026038c0df229eb","15","","","","","","","","","","","","2827","[""SV_PolicingMSA/MA_1486/IMG_8_1486.jpg"",""SV_PolicingMSA/MA_1486/IMG_9_1486.jpg"",""SV_PolicingMSA/MA_1486/IMG_5_1486.jpg"",""SV_PolicingMSA/MA_1486/IMG_4_1486.jpg"",""SV_PolicingMSA/MA_1486/IMG_0_1486.jpg"",""SV_PolicingMSA/MA_1486/IMG_12_1486.jpg"",""SV_PolicingMSA/MA_1486/IMG_11_1486.jpg"",""SV_PolicingMSA/MA_1486/IMG_13_1486.jpg""]","3","","","","","","2","","4","[""./rc_img/cop_condGroup_4_SafeStreets_autoscaled.png"",""./rc_img/cop_condGroup_4_CommunitySafety_autoscaled.png""]","5","",""
"sliderTrial","html-slider-response","92","794782","0.0-92.0","","656776a7904ae00d6b91d1dd","6568ac0f9026038c0df229eb","15","","","","","","","","","","","","4485","[""SV_PolicingMSA/MA_1486/IMG_8_1486.jpg"",""SV_PolicingMSA/MA_1486/IMG_9_1486.jpg"",""SV_PolicingMSA/MA_1486/IMG_5_1486.jpg"",""SV_PolicingMSA/MA_1486/IMG_4_1486.jpg"",""SV_PolicingMSA/MA_1486/IMG_0_1486.jpg"",""SV_PolicingMSA/MA_1486/IMG_12_1486.jpg"",""SV_PolicingMSA/MA_1486/IMG_11_1486.jpg"",""SV_PolicingMSA/MA_1486/IMG_13_1486.jpg""]","3","","","","","","2","","4","[""./rc_img/cop_condGroup_7_SafeStreets_autoscaled.png"",""./rc_img/cop_condGroup_7_CommunitySafety_autoscaled.png""]","5","",""
"sliderTrial","html-slider-response","93","799482","0.0-93.0","","656776a7904ae00d6b91d1dd","6568ac0f9026038c0df229eb","15","","","","","","","","","","","","4699","[""SV_PolicingMSA/MA_1486/IMG_8_1486.jpg"",""SV_PolicingMSA/MA_1486/IMG_9_1486.jpg"",""SV_PolicingMSA/MA_1486/IMG_5_1486.jpg"",""SV_PolicingMSA/MA_1486/IMG_4_1486.jpg"",""SV_PolicingMSA/MA_1486/IMG_0_1486.jpg"",""SV_PolicingMSA/MA_1486/IMG_12_1486.jpg"",""SV_PolicingMSA/MA_1486/IMG_11_1486.jpg"",""SV_PolicingMSA/MA_1486/IMG_13_1486.jpg""]","5","","","","","","2","","4","[""./rc_img/cop_condGroup_1_CommunitySafety_autoscaled.png"",""./rc_img/cop_condGroup_1_SafeStreets_autoscaled.png""]","5","",""
"before_SVSlide_prompt","html-button-response","94","801654","0.0-94.0","","656776a7904ae00d6b91d1dd","6568ac0f9026038c0df229eb","15","","","","","","","","","","","","2171","Click [Next] to see the next neighborhood!","0","","","","","","","","","","","",""
"street view slide show","image-button-response","95","802668","0.0-95.0","","656776a7904ae00d6b91d1dd","6568ac0f9026038c0df229eb","15","","","","","","","","","","","","null","stimulus/SV_PolicingMSA/MA_181/IMG_5_181.jpg","null","","","","","","3","","","","","",""
"street view slide show","image-button-response","96","803673","0.0-96.0","","656776a7904ae00d6b91d1dd","6568ac0f9026038c0df229eb","15","","","","","","","","","","","","null","stimulus/SV_PolicingMSA/MA_181/IMG_8_181.jpg","null","","","","","","3","","","","","",""
"street view slide show","image-button-response","97","804678","0.0-97.0","","656776a7904ae00d6b91d1dd","6568ac0f9026038c0df229eb","15","","","","","","","","","","","","null","stimulus/SV_PolicingMSA/MA_181/IMG_7_181.jpg","null","","","","","","3","","","","","",""
"street view slide show","image-button-response","98","805682","0.0-98.0","","656776a7904ae00d6b91d1dd","6568ac0f9026038c0df229eb","15","","","","","","","","","","","","null","stimulus/SV_PolicingMSA/MA_181/IMG_10_181.jpg","null","","","","","","3","","","","","",""
"street view slide show","image-button-response","99","806699","0.0-99.0","","656776a7904ae00d6b91d1dd","6568ac0f9026038c0df229eb","15","","","","","","","","","","","","null","stimulus/SV_PolicingMSA/MA_181/IMG_6_181.jpg","null","","","","","","3","","","","","",""
"street view slide show","image-button-response","100","807706","0.0-100.0","","656776a7904ae00d6b91d1dd","6568ac0f9026038c0df229eb","15","","","","","","","","","","","","null","stimulus/SV_PolicingMSA/MA_181/IMG_4_181.jpg","null","","","","","","3","","","","","",""
"street view slide show","image-button-response","101","808710","0.0-101.0","","656776a7904ae00d6b91d1dd","6568ac0f9026038c0df229eb","15","","","","","","","","","","","","null","stimulus/SV_PolicingMSA/MA_181/IMG_2_181.jpg","null","","","","","","3","","","","","",""
"street view slide show","image-button-response","102","809718","0.0-102.0","","656776a7904ae00d6b91d1dd","6568ac0f9026038c0df229eb","15","","","","","","","","","","","","null","stimulus/SV_PolicingMSA/MA_181/IMG_3_181.jpg","null","","","","","","3","","","","","",""
"dot matrix survey1","survey","103","843283","0.0-103.0","","656776a7904ae00d6b91d1dd","6568ac0f9026038c0df229eb","15","","","","","","","","","","","","33556","","{""P0_Q0"":null,""P0_Q1"":{""wealthy"":1,""safe"":2,""walkable"":1,""traditional"":2,""diverse"":3}}","","","","","","3","[]","","","","",""
"dot matrix survey2","survey","104","869781","0.0-104.0","","656776a7904ae00d6b91d1dd","6568ac0f9026038c0df229eb","15","","","","","","","","","","","","26494","","{""P0_Q0"":null,""P0_Q1"":{""violence"":3,""crime"":2,""drug"":3,""schools"":1,""opportunities"":1}}","","","","","","3","[]","","","","",""
"dot matrix survey3","survey","105","895410","0.0-105.0","","656776a7904ae00d6b91d1dd","6568ac0f9026038c0df229eb","15","","","","","","","","","","","","25625","","{""P0_Q0"":null,""P0_Q1"":{""movein"":1,""moveout"":3,""shopping"":3,""walk"":0,""park"":3,""school"":2}}","","","","","","3","[]","","","","",""
"sliderTrial","html-slider-response","106","901868","0.0-106.0","","656776a7904ae00d6b91d1dd","6568ac0f9026038c0df229eb","15","","","","","","","","","","","","6457","[""SV_PolicingMSA/MA_181/IMG_5_181.jpg"",""SV_PolicingMSA/MA_181/IMG_8_181.jpg"",""SV_PolicingMSA/MA_181/IMG_7_181.jpg"",""SV_PolicingMSA/MA_181/IMG_10_181.jpg"",""SV_PolicingMSA/MA_181/IMG_6_181.jpg"",""SV_PolicingMSA/MA_181/IMG_4_181.jpg"",""SV_PolicingMSA/MA_181/IMG_2_181.jpg"",""SV_PolicingMSA/MA_181/IMG_3_181.jpg""]","3","","","","","","3","","4","[""./rc_img/cop_condGroup_6_CommunitySafety_autoscaled.png"",""./rc_img/cop_condGroup_6_SafeStreets_autoscaled.png""]","3","",""
"sliderTrial","html-slider-response","107","904400","0.0-107.0","","656776a7904ae00d6b91d1dd","6568ac0f9026038c0df229eb","15","","","","","","","","","","","","2530","[""SV_PolicingMSA/MA_181/IMG_5_181.jpg"",""SV_PolicingMSA/MA_181/IMG_8_181.jpg"",""SV_PolicingMSA/MA_181/IMG_7_181.jpg"",""SV_PolicingMSA/MA_181/IMG_10_181.jpg"",""SV_PolicingMSA/MA_181/IMG_6_181.jpg"",""SV_PolicingMSA/MA_181/IMG_4_181.jpg"",""SV_PolicingMSA/MA_181/IMG_2_181.jpg"",""SV_PolicingMSA/MA_181/IMG_3_181.jpg""]","3","","","","","","3","","4","[""./rc_img/cop_condGroup_12_CommunitySafety_autoscaled.png"",""./rc_img/cop_condGroup_12_SafeStreets_autoscaled.png""]","3","",""
"sliderTrial","html-slider-response","108","920933","0.0-108.0","","656776a7904ae00d6b91d1dd","6568ac0f9026038c0df229eb","15","","","","","","","","","","","","16533","[""SV_PolicingMSA/MA_181/IMG_5_181.jpg"",""SV_PolicingMSA/MA_181/IMG_8_181.jpg"",""SV_PolicingMSA/MA_181/IMG_7_181.jpg"",""SV_PolicingMSA/MA_181/IMG_10_181.jpg"",""SV_PolicingMSA/MA_181/IMG_6_181.jpg"",""SV_PolicingMSA/MA_181/IMG_4_181.jpg"",""SV_PolicingMSA/MA_181/IMG_2_181.jpg"",""SV_PolicingMSA/MA_181/IMG_3_181.jpg""]","3","","","","","","3","","4","[""./rc_img/cop_condGroup_15_CommunitySafety_autoscaled.png"",""./rc_img/cop_condGroup_15_SafeStreets_autoscaled.png""]","3","",""
"sliderTrial","html-slider-response","109","925125","0.0-109.0","","656776a7904ae00d6b91d1dd","6568ac0f9026038c0df229eb","15","","","","","","","","","","","","4191","[""SV_PolicingMSA/MA_181/IMG_5_181.jpg"",""SV_PolicingMSA/MA_181/IMG_8_181.jpg"",""SV_PolicingMSA/MA_181/IMG_7_181.jpg"",""SV_PolicingMSA/MA_181/IMG_10_181.jpg"",""SV_PolicingMSA/MA_181/IMG_6_181.jpg"",""SV_PolicingMSA/MA_181/IMG_4_181.jpg"",""SV_PolicingMSA/MA_181/IMG_2_181.jpg"",""SV_PolicingMSA/MA_181/IMG_3_181.jpg""]","3","","","","","","3","","4","[""./rc_img/cop_condGroup_5_CommunitySafety_autoscaled.png"",""./rc_img/cop_condGroup_5_SafeStreets_autoscaled.png""]","3","",""
"sliderTrial","html-slider-response","110","928030","0.0-110.0","","656776a7904ae00d6b91d1dd","6568ac0f9026038c0df229eb","15","","","","","","","","","","","","2903","[""SV_PolicingMSA/MA_181/IMG_5_181.jpg"",""SV_PolicingMSA/MA_181/IMG_8_181.jpg"",""SV_PolicingMSA/MA_181/IMG_7_181.jpg"",""SV_PolicingMSA/MA_181/IMG_10_181.jpg"",""SV_PolicingMSA/MA_181/IMG_6_181.jpg"",""SV_PolicingMSA/MA_181/IMG_4_181.jpg"",""SV_PolicingMSA/MA_181/IMG_2_181.jpg"",""SV_PolicingMSA/MA_181/IMG_3_181.jpg""]","3","","","","","","3","","4","[""./rc_img/cop_condGroup_14_CommunitySafety_autoscaled.png"",""./rc_img/cop_condGroup_14_SafeStreets_autoscaled.png""]","3","",""
"before_SVSlide_prompt","html-button-response","111","930531","0.0-111.0","","656776a7904ae00d6b91d1dd","6568ac0f9026038c0df229eb","15","","","","","","","","","","","","2501","Click [Next] to see the next neighborhood!","0","","","","","","","","","","","",""
"street view slide show","image-button-response","112","931533","0.0-112.0","","656776a7904ae00d6b91d1dd","6568ac0f9026038c0df229eb","15","","","","","","","","","","","","null","stimulus/SV_PolicingMSA/MA_659/IMG_12_659.jpg","null","","","","","","5","","","","","",""
"street view slide show","image-button-response","113","932540","0.0-113.0","","656776a7904ae00d6b91d1dd","6568ac0f9026038c0df229eb","15","","","","","","","","","","","","null","stimulus/SV_PolicingMSA/MA_659/IMG_4_659.jpg","null","","","","","","5","","","","","",""
"street view slide show","image-button-response","114","933544","0.0-114.0","","656776a7904ae00d6b91d1dd","6568ac0f9026038c0df229eb","15","","","","","","","","","","","","null","stimulus/SV_PolicingMSA/MA_659/IMG_11_659.jpg","null","","","","","","5","","","","","",""
"street view slide show","image-button-response","115","934553","0.0-115.0","","656776a7904ae00d6b91d1dd","6568ac0f9026038c0df229eb","15","","","","","","","","","","","","null","stimulus/SV_PolicingMSA/MA_659/IMG_3_659.jpg","null","","","","","","5","","","","","",""
"street view slide show","image-button-response","116","935557","0.0-116.0","","656776a7904ae00d6b91d1dd","6568ac0f9026038c0df229eb","15","","","","","","","","","","","","null","stimulus/SV_PolicingMSA/MA_659/IMG_14_659.jpg","null","","","","","","5","","","","","",""
"street view slide show","image-button-response","117","936561","0.0-117.0","","656776a7904ae00d6b91d1dd","6568ac0f9026038c0df229eb","15","","","","","","","","","","","","null","stimulus/SV_PolicingMSA/MA_659/IMG_0_659.jpg","null","","","","","","5","","","","","",""
"street view slide show","image-button-response","118","937566","0.0-118.0","","656776a7904ae00d6b91d1dd","6568ac0f9026038c0df229eb","15","","","","","","","","","","","","null","stimulus/SV_PolicingMSA/MA_659/IMG_1_659.jpg","null","","","","","","5","","","","","",""
"street view slide show","image-button-response","119","938573","0.0-119.0","","656776a7904ae00d6b91d1dd","6568ac0f9026038c0df229eb","15","","","","","","","","","","","","null","stimulus/SV_PolicingMSA/MA_659/IMG_13_659.jpg","null","","","","","","5","","","","","",""
"dot matrix survey1","survey","120","972268","0.0-120.0","","656776a7904ae00d6b91d1dd","6568ac0f9026038c0df229eb","15","","","","","","","","","","","","33686","","{""P0_Q0"":null,""P0_Q1"":{""wealthy"":3,""safe"":4,""walkable"":2,""traditional"":3,""diverse"":1}}","","","","","","5","[]","","","","",""
"dot matrix survey2","survey","121","998214","0.0-121.0","","656776a7904ae00d6b91d1dd","6568ac0f9026038c0df229eb","15","","","","","","","","","","","","25941","","{""P0_Q0"":null,""P0_Q1"":{""violence"":0,""crime"":0,""drug"":3,""schools"":1,""opportunities"":3}}","","","","","","5","[]","","","","",""
"dot matrix survey3","survey","122","1023745","0.0-122.0","","656776a7904ae00d6b91d1dd","6568ac0f9026038c0df229eb","15","","","","","","","","","","","","25527","","{""P0_Q0"":null,""P0_Q1"":{""movein"":4,""moveout"":0,""shopping"":4,""walk"":0,""park"":4,""school"":4}}","","","","","","5","[]","","","","",""
"sliderTrial","html-slider-response","123","1030867","0.0-123.0","","656776a7904ae00d6b91d1dd","6568ac0f9026038c0df229eb","15","","","","","","","","","","","","7121","[""SV_PolicingMSA/MA_659/IMG_12_659.jpg"",""SV_PolicingMSA/MA_659/IMG_4_659.jpg"",""SV_PolicingMSA/MA_659/IMG_11_659.jpg"",""SV_PolicingMSA/MA_659/IMG_3_659.jpg"",""SV_PolicingMSA/MA_659/IMG_14_659.jpg"",""SV_PolicingMSA/MA_659/IMG_0_659.jpg"",""SV_PolicingMSA/MA_659/IMG_1_659.jpg"",""SV_PolicingMSA/MA_659/IMG_13_659.jpg""]","5","","","","","","5","","4","[""./rc_img/cop_condGroup_6_CommunitySafety_autoscaled.png"",""./rc_img/cop_condGroup_6_SafeStreets_autoscaled.png""]","5","",""
"sliderTrial","html-slider-response","124","1041520","0.0-124.0","","656776a7904ae00d6b91d1dd","6568ac0f9026038c0df229eb","15","","","","","","","","","","","","10651","[""SV_PolicingMSA/MA_659/IMG_12_659.jpg"",""SV_PolicingMSA/MA_659/IMG_4_659.jpg"",""SV_PolicingMSA/MA_659/IMG_11_659.jpg"",""SV_PolicingMSA/MA_659/IMG_3_659.jpg"",""SV_PolicingMSA/MA_659/IMG_14_659.jpg"",""SV_PolicingMSA/MA_659/IMG_0_659.jpg"",""SV_PolicingMSA/MA_659/IMG_1_659.jpg"",""SV_PolicingMSA/MA_659/IMG_13_659.jpg""]","5","","","","","","5","","4","[""./rc_img/cop_condGroup_12_CommunitySafety_autoscaled.png"",""./rc_img/cop_condGroup_12_SafeStreets_autoscaled.png""]","5","",""
"sliderTrial","html-slider-response","125","1045762","0.0-125.0","","656776a7904ae00d6b91d1dd","6568ac0f9026038c0df229eb","15","","","","","","","","","","","","4241","[""SV_PolicingMSA/MA_659/IMG_12_659.jpg"",""SV_PolicingMSA/MA_659/IMG_4_659.jpg"",""SV_PolicingMSA/MA_659/IMG_11_659.jpg"",""SV_PolicingMSA/MA_659/IMG_3_659.jpg"",""SV_PolicingMSA/MA_659/IMG_14_659.jpg"",""SV_PolicingMSA/MA_659/IMG_0_659.jpg"",""SV_PolicingMSA/MA_659/IMG_1_659.jpg"",""SV_PolicingMSA/MA_659/IMG_13_659.jpg""]","5","","","","","","5","","4","[""./rc_img/cop_condGroup_15_CommunitySafety_autoscaled.png"",""./rc_img/cop_condGroup_15_SafeStreets_autoscaled.png""]","5","",""
"sliderTrial","html-slider-response","126","1048378","0.0-126.0","","656776a7904ae00d6b91d1dd","6568ac0f9026038c0df229eb","15","","","","","","","","","","","","2615","[""SV_PolicingMSA/MA_659/IMG_12_659.jpg"",""SV_PolicingMSA/MA_659/IMG_4_659.jpg"",""SV_PolicingMSA/MA_659/IMG_11_659.jpg"",""SV_PolicingMSA/MA_659/IMG_3_659.jpg"",""SV_PolicingMSA/MA_659/IMG_14_659.jpg"",""SV_PolicingMSA/MA_659/IMG_0_659.jpg"",""SV_PolicingMSA/MA_659/IMG_1_659.jpg"",""SV_PolicingMSA/MA_659/IMG_13_659.jpg""]","5","","","","","","5","","4","[""./rc_img/cop_condGroup_5_CommunitySafety_autoscaled.png"",""./rc_img/cop_condGroup_5_SafeStreets_autoscaled.png""]","5","",""
"sliderTrial","html-slider-response","127","1052580","0.0-127.0","","656776a7904ae00d6b91d1dd","6568ac0f9026038c0df229eb","15","","","","","","","","","","","","4200","[""SV_PolicingMSA/MA_659/IMG_12_659.jpg"",""SV_PolicingMSA/MA_659/IMG_4_659.jpg"",""SV_PolicingMSA/MA_659/IMG_11_659.jpg"",""SV_PolicingMSA/MA_659/IMG_3_659.jpg"",""SV_PolicingMSA/MA_659/IMG_14_659.jpg"",""SV_PolicingMSA/MA_659/IMG_0_659.jpg"",""SV_PolicingMSA/MA_659/IMG_1_659.jpg"",""SV_PolicingMSA/MA_659/IMG_13_659.jpg""]","5","","","","","","5","","4","[""./rc_img/cop_condGroup_14_CommunitySafety_autoscaled.png"",""./rc_img/cop_condGroup_14_SafeStreets_autoscaled.png""]","5","",""
"before_SVSlide_prompt","html-button-response","128","1054234","0.0-128.0","","656776a7904ae00d6b91d1dd","6568ac0f9026038c0df229eb","15","","","","","","","","","","","","1653","Click [Next] to see the next neighborhood!","0","","","","","","","","","","","",""
"street view slide show","image-button-response","129","1055235","0.0-129.0","","656776a7904ae00d6b91d1dd","6568ac0f9026038c0df229eb","15","","","","","","","","","","","","null","stimulus/SV_PolicingMSA/MA_855/IMG_11_855.jpg","null","","","","","","2","","","","","",""
"street view slide show","image-button-response","130","1056240","0.0-130.0","","656776a7904ae00d6b91d1dd","6568ac0f9026038c0df229eb","15","","","","","","","","","","","","null","stimulus/SV_PolicingMSA/MA_855/IMG_14_855.jpg","null","","","","","","2","","","","","",""
"street view slide show","image-button-response","131","1057245","0.0-131.0","","656776a7904ae00d6b91d1dd","6568ac0f9026038c0df229eb","15","","","","","","","","","","","","null","stimulus/SV_PolicingMSA/MA_855/IMG_12_855.jpg","null","","","","","","2","","","","","",""
"street view slide show","image-button-response","132","1058251","0.0-132.0","","656776a7904ae00d6b91d1dd","6568ac0f9026038c0df229eb","15","","","","","","","","","","","","null","stimulus/SV_PolicingMSA/MA_855/IMG_9_855.jpg","null","","","","","","2","","","","","",""
"street view slide show","image-button-response","133","1059255","0.0-133.0","","656776a7904ae00d6b91d1dd","6568ac0f9026038c0df229eb","15","","","","","","","","","","","","null","stimulus/SV_PolicingMSA/MA_855/IMG_1_855.jpg","null","","","","","","2","","","","","",""
"street view slide show","image-button-response","134","1060259","0.0-134.0","","656776a7904ae00d6b91d1dd","6568ac0f9026038c0df229eb","15","","","","","","","","","","","","null","stimulus/SV_PolicingMSA/MA_855/IMG_5_855.jpg","null","","","","","","2","","","","","",""
"street view slide show","image-button-response","135","1061264","0.0-135.0","","656776a7904ae00d6b91d1dd","6568ac0f9026038c0df229eb","15","","","","","","","","","","","","null","stimulus/SV_PolicingMSA/MA_855/IMG_0_855.jpg","null","","","","","","2","","","","","",""
"street view slide show","image-button-response","136","1062268","0.0-136.0","","656776a7904ae00d6b91d1dd","6568ac0f9026038c0df229eb","15","","","","","","","","","","","","null","stimulus/SV_PolicingMSA/MA_855/IMG_8_855.jpg","null","","","","","","2","","","","","",""
"dot matrix survey1","survey","137","1083028","0.0-137.0","","656776a7904ae00d6b91d1dd","6568ac0f9026038c0df229eb","15","","","","","","","","","","","","20750","","{""P0_Q0"":null,""P0_Q1"":{""wealthy"":1,""safe"":2,""walkable"":2,""traditional"":3,""diverse"":3}}","","","","","","2","[]","","","","",""
"dot matrix survey2","survey","138","1105941","0.0-138.0","","656776a7904ae00d6b91d1dd","6568ac0f9026038c0df229eb","15","","","","","","","","","","","","22909","","{""P0_Q0"":null,""P0_Q1"":{""violence"":1,""crime"":1,""drug"":2,""schools"":2,""opportunities"":2}}","","","","","","2","[]","","","","",""
"dot matrix survey3","survey","139","1143332","0.0-139.0","","656776a7904ae00d6b91d1dd","6568ac0f9026038c0df229eb","15","","","","","","","","","","","","37388","","{""P0_Q0"":null,""P0_Q1"":{""movein"":3,""moveout"":1,""shopping"":4,""walk"":0,""park"":4,""school"":3}}","","","","","","2","[]","","","","",""
"sliderTrial","html-slider-response","140","1155044","0.0-140.0","","656776a7904ae00d6b91d1dd","6568ac0f9026038c0df229eb","15","","","","","","","","","","","","11711","[""SV_PolicingMSA/MA_855/IMG_11_855.jpg"",""SV_PolicingMSA/MA_855/IMG_14_855.jpg"",""SV_PolicingMSA/MA_855/IMG_12_855.jpg"",""SV_PolicingMSA/MA_855/IMG_9_855.jpg"",""SV_PolicingMSA/MA_855/IMG_1_855.jpg"",""SV_PolicingMSA/MA_855/IMG_5_855.jpg"",""SV_PolicingMSA/MA_855/IMG_0_855.jpg"",""SV_PolicingMSA/MA_855/IMG_8_855.jpg""]","3","","","","","","2","","4","[""./rc_img/cop_condGroup_19_CommunitySafety_autoscaled.png"",""./rc_img/cop_condGroup_19_SafeStreets_autoscaled.png""]","3","",""
"sliderTrial","html-slider-response","141","1158542","0.0-141.0","","656776a7904ae00d6b91d1dd","6568ac0f9026038c0df229eb","15","","","","","","","","","","","","3497","[""SV_PolicingMSA/MA_855/IMG_11_855.jpg"",""SV_PolicingMSA/MA_855/IMG_14_855.jpg"",""SV_PolicingMSA/MA_855/IMG_12_855.jpg"",""SV_PolicingMSA/MA_855/IMG_9_855.jpg"",""SV_PolicingMSA/MA_855/IMG_1_855.jpg"",""SV_PolicingMSA/MA_855/IMG_5_855.jpg"",""SV_PolicingMSA/MA_855/IMG_0_855.jpg"",""SV_PolicingMSA/MA_855/IMG_8_855.jpg""]","5","","","","","","2","","4","[""./rc_img/cop_condGroup_8_SafeStreets_autoscaled.png"",""./rc_img/cop_condGroup_8_CommunitySafety_autoscaled.png""]","3","",""
"sliderTrial","html-slider-response","142","1161227","0.0-142.0","","656776a7904ae00d6b91d1dd","6568ac0f9026038c0df229eb","15","","","","","","","","","","","","2684","[""SV_PolicingMSA/MA_855/IMG_11_855.jpg"",""SV_PolicingMSA/MA_855/IMG_14_855.jpg"",""SV_PolicingMSA/MA_855/IMG_12_855.jpg"",""SV_PolicingMSA/MA_855/IMG_9_855.jpg"",""SV_PolicingMSA/MA_855/IMG_1_855.jpg"",""SV_PolicingMSA/MA_855/IMG_5_855.jpg"",""SV_PolicingMSA/MA_855/IMG_0_855.jpg"",""SV_PolicingMSA/MA_855/IMG_8_855.jpg""]","5","","","","","","2","","4","[""./rc_img/cop_condGroup_13_SafeStreets_autoscaled.png"",""./rc_img/cop_condGroup_13_CommunitySafety_autoscaled.png""]","3","",""
"sliderTrial","html-slider-response","143","1165256","0.0-143.0","","656776a7904ae00d6b91d1dd","6568ac0f9026038c0df229eb","15","","","","","","","","","","","","4028","[""SV_PolicingMSA/MA_855/IMG_11_855.jpg"",""SV_PolicingMSA/MA_855/IMG_14_855.jpg"",""SV_PolicingMSA/MA_855/IMG_12_855.jpg"",""SV_PolicingMSA/MA_855/IMG_9_855.jpg"",""SV_PolicingMSA/MA_855/IMG_1_855.jpg"",""SV_PolicingMSA/MA_855/IMG_5_855.jpg"",""SV_PolicingMSA/MA_855/IMG_0_855.jpg"",""SV_PolicingMSA/MA_855/IMG_8_855.jpg""]","5","","","","","","2","","4","[""./rc_img/cop_condGroup_11_SafeStreets_autoscaled.png"",""./rc_img/cop_condGroup_11_CommunitySafety_autoscaled.png""]","3","",""
"sliderTrial","html-slider-response","144","1170548","0.0-144.0","","656776a7904ae00d6b91d1dd","6568ac0f9026038c0df229eb","15","","","","","","","","","","","","5290","[""SV_PolicingMSA/MA_855/IMG_11_855.jpg"",""SV_PolicingMSA/MA_855/IMG_14_855.jpg"",""SV_PolicingMSA/MA_855/IMG_12_855.jpg"",""SV_PolicingMSA/MA_855/IMG_9_855.jpg"",""SV_PolicingMSA/MA_855/IMG_1_855.jpg"",""SV_PolicingMSA/MA_855/IMG_5_855.jpg"",""SV_PolicingMSA/MA_855/IMG_0_855.jpg"",""SV_PolicingMSA/MA_855/IMG_8_855.jpg""]","5","","","","","","2","","4","[""./rc_img/cop_condGroup_3_SafeStreets_autoscaled.png"",""./rc_img/cop_condGroup_3_CommunitySafety_autoscaled.png""]","3","",""
"demographics","survey-html-form","145","1189007","0.0-145.0","","656776a7904ae00d6b91d1dd","6568ac0f9026038c0df229eb","15","","","","","","","","","","","","18458","","{""age"":""63"",""sex"":""female"",""gender"":""woman"",""gender-self-describe"":"""",""zipcode"":""85390""}","","","","","","","","","","","",""
"demographics-list","survey","146","1233433","0.0-146.0","","656776a7904ae00d6b91d1dd","6568ac0f9026038c0df229eb","15","","","","","","","","","","","","44410","","{""P0_Q0"":null,""race-ethnicity"":[""White or of European ancestry""],""education"":""High school diploma or equivalent"",""P1_Q0"":null,""ideology"":""Liberal"",""P2_Q0"":null,""num-moves"":2,""P3_Q0"":null,""social-ladder"":3}","","","","","","","[]","","","","",""
"end-survey","survey-text","147","1236574","0.0-147.0","","656776a7904ae00d6b91d1dd","6568ac0f9026038c0df229eb","15","","","","","","","","","","","","3136","","{""Q0"":""""}","","","","","","","","","","","","2"
"end-survey","html-button-response","148","1244794","0.0-148.0","","656776a7904ae00d6b91d1dd","6568ac0f9026038c0df229eb","15","","","","","","","","","","","","8219","
    You've reached the end of the survey. <br><br> 
    <b>Do not close or refresh this window.</b><br>
    On the next page, you will be automatically redirected to Prolific. <br><br>

    <div class=""alert alert-warning""><b>
    </div>
","0","","","","","","","","","","","",""
