"task","trial_type","trial_index","time_elapsed","internal_node_id","subject_id","study_id","session_id","section","width","height","webaudio","browser","browser_version","mobile","os","fullscreen","vsync_rate","webcam","microphone","rt","stimulus","response","success","timeout","failed_images","failed_audio","failed_video","block","accuracy","slider_start","choices","correct","standardized_response","num_attention_checks_correct"
"pavlovia-init","pavlovia","0","2142","0.0-0.0","","656776a7904ae00d6b91d1dd","6568b3cbc252fd9132981d88","2","","","","","","","","","","","","","","","","","","","","","","","","","",""
"browser-check","browser-check","1","3141","0.0-1.0","","656776a7904ae00d6b91d1dd","6568b3cbc252fd9132981d88","2","1366","651","true","chrome","119.0.0","false","Windows 10","true","60.79","true","true","","","","","","","","","","","","","","",""
"consent","html-button-response","2","35265","0.0-2.0","","656776a7904ae00d6b91d1dd","6568b3cbc252fd9132981d88","2","","","","","","","","","","","","32122","
        <div style=""font-size: 80%; max-width:700px"">
            <h2>CONSENT FORM</h2>
        
            <div style=""text-align: left"">
            <h4>DESCRIPTION</h4>
            <p>
            You will complete a short task where you give your impressions of various neighborhoods and assign individuals to those spaces, and answer some questions about your thoughts and opinions.<br>
            The University of Michigan Institutional Review Board Health Sciences and Behavioral Sciences has determined that this study is exempt from IRB oversight.
            </p>

            <h4>TIME INVOLVEMENT</h4>
            <p>Your participation will take approximately 15 minutes. You will receive $3.15 upon completion of the study.</p>
        
            <h4>RISKS AND BENEFITS</h4>
            <p>
            The risks associated with this study are minimal. The benefits which may reasonably be expected to result from this study are none. We cannot and do not guarantee or promise that you will receive any benefits from this study.
            </p>
          
            <h4>SUBJECT'S RIGHTS</h4>
            <p>
            If you have read this form and have decided to participate in this project, please understand your participation is voluntary and you have the right to withdraw your consent or discontinue participation at any time without penalty or loss of benefits to which you are otherwise entitled. The alternative is not to participate. You have the right to refuse to answer particular questions. Your individual privacy will be maintained in all published and written data resulting from the study.
            </p>

            <h4>HUMAN SUBJECT APPROVAL</h4>
            <p>
            This study is exempt from ongoing IRB review.
            </p>

            <h4>CONTACT INFORMATION</h4>
            If you have any questions, concerns or complaints about this research, its procedures, risks and benefits, contact the Protocol Director, Nicholas Camp, npcamp@umich.edu, (443) 851-6783. <br>

            If you have questions about your rights as a research participant, or wish to obtain information, ask questions or discuss any concerns about this study with someone other than the researcher(s), please contact the following:<br><br>
            University of Michigan<br>
            Health Sciences and Behavioral Sciences Institutional Review Board (IRB-HSBS)<br>
            2800 Plymouth Road<br>
            Building 520, Room 1169Ann Arbor, MI 48109-2800<br>
            Telephone: 734-936-0933 or toll free (866) 936-0933<br>
            Fax: 734-936-1852<br>
            E-mail: irbhsbs@umich.edu<br><br>

            You can also contact the University of Michigan Compliance Hotline at 1-866-990-0111. You may also print this consent form to keep.
            <br><br>
            <div class=""alert alert-warning""><b>
            Do you consent to participate in this study? If you consent to participate in this study, please click “Accept and Continue”. If you select ""Decline and Exit"", you will be exited from the survey. <br>
            </b></div>
            </div>
        </div>
    ","1","","","","","","","","","","","",""
"","preload","3","38316","0.0-3.0","","656776a7904ae00d6b91d1dd","6568b3cbc252fd9132981d88","2","","","","","","","","","","","","","","","true","false","[]","[]","[]","","","","","","",""
"instructions","html-button-response","4","59649","0.0-4.0","","656776a7904ae00d6b91d1dd","6568b3cbc252fd9132981d88","2","","","","","","","","","","","","21331","
        <div class=""text-container"">
        <h1>Welcome to the study!</h1>
        
        <div class=""text-left"">
            <p>
                In this study, we are interested in what people can tell about spaces from Google Street View images. <br> Google Street View takes pictures of streets used for Google Earth and Google Maps. <br>You’ll see Google Street View images of different places and answer some questions about each one.<br>
            </p>
        </div>
        <img src = ""assets/img/example.png"" width = 500px, height = auto>
        <br>
    <br>
    ","0","","","","","","","","","","","",""
"instructions","html-button-response","5","62393","0.0-5.0","","656776a7904ae00d6b91d1dd","6568b3cbc252fd9132981d88","2","","","","","","","","","","","","2743","
    <div class=""text-container"">
        <div class=""text-center"">
            <p>Please remember that your answers are completely anonymous.<br>Go with your gut response- there are no right or wrong answers!</p>
        </div>
    <br>
","0","","","","","","","","","","","",""
"before_SVSlide_prompt","html-button-response","6","63945","0.0-6.0","","656776a7904ae00d6b91d1dd","6568b3cbc252fd9132981d88","2","","","","","","","","","","","","1551","Click [Next] to see the next neighborhood!","0","","","","","","","","","","","",""
"street view slide show","image-button-response","7","64949","0.0-7.0","","656776a7904ae00d6b91d1dd","6568b3cbc252fd9132981d88","2","","","","","","","","","","","","null","stimulus/SV_PolicingMSA/LA_546/IMG_11_546.jpg","null","","","","","","1","","","","","",""
"street view slide show","image-button-response","8","65963","0.0-8.0","","656776a7904ae00d6b91d1dd","6568b3cbc252fd9132981d88","2","","","","","","","","","","","","null","stimulus/SV_PolicingMSA/LA_546/IMG_9_546.jpg","null","","","","","","1","","","","","",""
"street view slide show","image-button-response","9","66976","0.0-9.0","","656776a7904ae00d6b91d1dd","6568b3cbc252fd9132981d88","2","","","","","","","","","","","","null","stimulus/SV_PolicingMSA/LA_546/IMG_2_546.jpg","null","","","","","","1","","","","","",""
"street view slide show","image-button-response","10","67979","0.0-10.0","","656776a7904ae00d6b91d1dd","6568b3cbc252fd9132981d88","2","","","","","","","","","","","","null","stimulus/SV_PolicingMSA/LA_546/IMG_3_546.jpg","null","","","","","","1","","","","","",""
"street view slide show","image-button-response","11","68992","0.0-11.0","","656776a7904ae00d6b91d1dd","6568b3cbc252fd9132981d88","2","","","","","","","","","","","","null","stimulus/SV_PolicingMSA/LA_546/IMG_6_546.jpg","null","","","","","","1","","","","","",""
"street view slide show","image-button-response","12","69997","0.0-12.0","","656776a7904ae00d6b91d1dd","6568b3cbc252fd9132981d88","2","","","","","","","","","","","","null","stimulus/SV_PolicingMSA/LA_546/IMG_13_546.jpg","null","","","","","","1","","","","","",""
"street view slide show","image-button-response","13","71006","0.0-13.0","","656776a7904ae00d6b91d1dd","6568b3cbc252fd9132981d88","2","","","","","","","","","","","","null","stimulus/SV_PolicingMSA/LA_546/IMG_1_546.jpg","null","","","","","","1","","","","","",""
"street view slide show","image-button-response","14","72019","0.0-14.0","","656776a7904ae00d6b91d1dd","6568b3cbc252fd9132981d88","2","","","","","","","","","","","","null","stimulus/SV_PolicingMSA/LA_546/IMG_14_546.jpg","null","","","","","","1","","","","","",""
"dot matrix survey1","survey","15","105296","0.0-15.0","","656776a7904ae00d6b91d1dd","6568b3cbc252fd9132981d88","2","","","","","","","","","","","","33189","","{""P0_Q0"":null,""P0_Q1"":{""wealthy"":1,""safe"":2,""walkable"":2,""traditional"":2,""diverse"":2}}","","","","","","1","[]","","","","",""
"dot matrix survey2","survey","16","125846","0.0-16.0","","656776a7904ae00d6b91d1dd","6568b3cbc252fd9132981d88","2","","","","","","","","","","","","20531","","{""P0_Q0"":null,""P0_Q1"":{""violence"":2,""crime"":2,""drug"":2,""schools"":1,""opportunities"":0}}","","","","","","1","[]","","","","",""
"dot matrix survey3","survey","17","167282","0.0-17.0","","656776a7904ae00d6b91d1dd","6568b3cbc252fd9132981d88","2","","","","","","","","","","","","41428","","{""P0_Q0"":null,""P0_Q1"":{""movein"":0,""moveout"":4,""shopping"":2,""walk"":0,""park"":1,""school"":0}}","","","","","","1","[]","","","","",""
"sliderTrial_attention","html-slider-response","18","177291","0.0-18.0","","656776a7904ae00d6b91d1dd","6568b3cbc252fd9132981d88","2","","","","","","","","","","","","null","[""SV_PolicingMSA/LA_546/IMG_11_546.jpg"",""SV_PolicingMSA/LA_546/IMG_9_546.jpg"",""SV_PolicingMSA/LA_546/IMG_2_546.jpg"",""SV_PolicingMSA/LA_546/IMG_3_546.jpg"",""SV_PolicingMSA/LA_546/IMG_6_546.jpg"",""SV_PolicingMSA/LA_546/IMG_13_546.jpg"",""SV_PolicingMSA/LA_546/IMG_1_546.jpg"",""SV_PolicingMSA/LA_546/IMG_14_546.jpg""]","null","","","","","","1","","4","[""./assets/img/attnchk.png"",""./assets/img/attnchk.png""]","true","",""
"sliderTrial","html-slider-response","19","193745","0.0-19.0","","656776a7904ae00d6b91d1dd","6568b3cbc252fd9132981d88","2","","","","","","","","","","","","16449","[""SV_PolicingMSA/LA_546/IMG_11_546.jpg"",""SV_PolicingMSA/LA_546/IMG_9_546.jpg"",""SV_PolicingMSA/LA_546/IMG_2_546.jpg"",""SV_PolicingMSA/LA_546/IMG_3_546.jpg"",""SV_PolicingMSA/LA_546/IMG_6_546.jpg"",""SV_PolicingMSA/LA_546/IMG_13_546.jpg"",""SV_PolicingMSA/LA_546/IMG_1_546.jpg"",""SV_PolicingMSA/LA_546/IMG_14_546.jpg""]","4","","","","","","1","","4","[""./rc_img/cop_condGroup_12_CommunitySafety_autoscaled.png"",""./rc_img/cop_condGroup_12_SafeStreets_autoscaled.png""]","","4",""
"sliderTrial","html-slider-response","20","213265","0.0-20.0","","656776a7904ae00d6b91d1dd","6568b3cbc252fd9132981d88","2","","","","","","","","","","","","19518","[""SV_PolicingMSA/LA_546/IMG_11_546.jpg"",""SV_PolicingMSA/LA_546/IMG_9_546.jpg"",""SV_PolicingMSA/LA_546/IMG_2_546.jpg"",""SV_PolicingMSA/LA_546/IMG_3_546.jpg"",""SV_PolicingMSA/LA_546/IMG_6_546.jpg"",""SV_PolicingMSA/LA_546/IMG_13_546.jpg"",""SV_PolicingMSA/LA_546/IMG_1_546.jpg"",""SV_PolicingMSA/LA_546/IMG_14_546.jpg""]","4","","","","","","1","","4","[""./rc_img/cop_condGroup_15_CommunitySafety_autoscaled.png"",""./rc_img/cop_condGroup_15_SafeStreets_autoscaled.png""]","","4",""
"sliderTrial","html-slider-response","21","224617","0.0-21.0","","656776a7904ae00d6b91d1dd","6568b3cbc252fd9132981d88","2","","","","","","","","","","","","11350","[""SV_PolicingMSA/LA_546/IMG_11_546.jpg"",""SV_PolicingMSA/LA_546/IMG_9_546.jpg"",""SV_PolicingMSA/LA_546/IMG_2_546.jpg"",""SV_PolicingMSA/LA_546/IMG_3_546.jpg"",""SV_PolicingMSA/LA_546/IMG_6_546.jpg"",""SV_PolicingMSA/LA_546/IMG_13_546.jpg"",""SV_PolicingMSA/LA_546/IMG_1_546.jpg"",""SV_PolicingMSA/LA_546/IMG_14_546.jpg""]","4","","","","","","1","","4","[""./rc_img/cop_condGroup_14_SafeStreets_autoscaled.png"",""./rc_img/cop_condGroup_14_CommunitySafety_autoscaled.png""]","","4",""
"sliderTrial","html-slider-response","22","232273","0.0-22.0","","656776a7904ae00d6b91d1dd","6568b3cbc252fd9132981d88","2","","","","","","","","","","","","7654","[""SV_PolicingMSA/LA_546/IMG_11_546.jpg"",""SV_PolicingMSA/LA_546/IMG_9_546.jpg"",""SV_PolicingMSA/LA_546/IMG_2_546.jpg"",""SV_PolicingMSA/LA_546/IMG_3_546.jpg"",""SV_PolicingMSA/LA_546/IMG_6_546.jpg"",""SV_PolicingMSA/LA_546/IMG_13_546.jpg"",""SV_PolicingMSA/LA_546/IMG_1_546.jpg"",""SV_PolicingMSA/LA_546/IMG_14_546.jpg""]","3","","","","","","1","","4","[""./rc_img/cop_condGroup_2_SafeStreets_autoscaled.png"",""./rc_img/cop_condGroup_2_CommunitySafety_autoscaled.png""]","","5",""
"sliderTrial","html-slider-response","23","242977","0.0-23.0","","656776a7904ae00d6b91d1dd","6568b3cbc252fd9132981d88","2","","","","","","","","","","","","10702","[""SV_PolicingMSA/LA_546/IMG_11_546.jpg"",""SV_PolicingMSA/LA_546/IMG_9_546.jpg"",""SV_PolicingMSA/LA_546/IMG_2_546.jpg"",""SV_PolicingMSA/LA_546/IMG_3_546.jpg"",""SV_PolicingMSA/LA_546/IMG_6_546.jpg"",""SV_PolicingMSA/LA_546/IMG_13_546.jpg"",""SV_PolicingMSA/LA_546/IMG_1_546.jpg"",""SV_PolicingMSA/LA_546/IMG_14_546.jpg""]","4","","","","","","1","","4","[""./rc_img/cop_condGroup_11_CommunitySafety_autoscaled.png"",""./rc_img/cop_condGroup_11_SafeStreets_autoscaled.png""]","","4",""
"before_SVSlide_prompt","html-button-response","24","244697","0.0-24.0","","656776a7904ae00d6b91d1dd","6568b3cbc252fd9132981d88","2","","","","","","","","","","","","1719","Click [Next] to see the next neighborhood!","0","","","","","","","","","","","",""
"street view slide show","image-button-response","25","245706","0.0-25.0","","656776a7904ae00d6b91d1dd","6568b3cbc252fd9132981d88","2","","","","","","","","","","","","null","stimulus/SV_PolicingMSA/LA_447/IMG_2_447.jpg","null","","","","","","3","","","","","",""
"street view slide show","image-button-response","26","246711","0.0-26.0","","656776a7904ae00d6b91d1dd","6568b3cbc252fd9132981d88","2","","","","","","","","","","","","null","stimulus/SV_PolicingMSA/LA_447/IMG_7_447.jpg","null","","","","","","3","","","","","",""
"street view slide show","image-button-response","27","247725","0.0-27.0","","656776a7904ae00d6b91d1dd","6568b3cbc252fd9132981d88","2","","","","","","","","","","","","null","stimulus/SV_PolicingMSA/LA_447/IMG_3_447.jpg","null","","","","","","3","","","","","",""
"street view slide show","image-button-response","28","248740","0.0-28.0","","656776a7904ae00d6b91d1dd","6568b3cbc252fd9132981d88","2","","","","","","","","","","","","null","stimulus/SV_PolicingMSA/LA_447/IMG_10_447.jpg","null","","","","","","3","","","","","",""
"street view slide show","image-button-response","29","249756","0.0-29.0","","656776a7904ae00d6b91d1dd","6568b3cbc252fd9132981d88","2","","","","","","","","","","","","null","stimulus/SV_PolicingMSA/LA_447/IMG_0_447.jpg","null","","","","","","3","","","","","",""
"street view slide show","image-button-response","30","250771","0.0-30.0","","656776a7904ae00d6b91d1dd","6568b3cbc252fd9132981d88","2","","","","","","","","","","","","null","stimulus/SV_PolicingMSA/LA_447/IMG_14_447.jpg","null","","","","","","3","","","","","",""
"street view slide show","image-button-response","31","251788","0.0-31.0","","656776a7904ae00d6b91d1dd","6568b3cbc252fd9132981d88","2","","","","","","","","","","","","null","stimulus/SV_PolicingMSA/LA_447/IMG_5_447.jpg","null","","","","","","3","","","","","",""
"street view slide show","image-button-response","32","252802","0.0-32.0","","656776a7904ae00d6b91d1dd","6568b3cbc252fd9132981d88","2","","","","","","","","","","","","null","stimulus/SV_PolicingMSA/LA_447/IMG_9_447.jpg","null","","","","","","3","","","","","",""
"dot matrix survey1","survey","33","274441","0.0-33.0","","656776a7904ae00d6b91d1dd","6568b3cbc252fd9132981d88","2","","","","","","","","","","","","21602","","{""P0_Q0"":null,""P0_Q1"":{""wealthy"":2,""safe"":3,""walkable"":3,""traditional"":4,""diverse"":4}}","","","","","","3","[]","","","","",""
"dot matrix survey2","survey","34","297079","0.0-34.0","","656776a7904ae00d6b91d1dd","6568b3cbc252fd9132981d88","2","","","","","","","","","","","","22629","","{""P0_Q0"":null,""P0_Q1"":{""violence"":1,""crime"":1,""drug"":1,""schools"":2,""opportunities"":2}}","","","","","","3","[]","","","","",""
"dot matrix survey3","survey","35","319056","0.0-35.0","","656776a7904ae00d6b91d1dd","6568b3cbc252fd9132981d88","2","","","","","","","","","","","","21968","","{""P0_Q0"":null,""P0_Q1"":{""movein"":2,""moveout"":1,""shopping"":4,""walk"":1,""park"":4,""school"":3}}","","","","","","3","[]","","","","",""
"sliderTrial","html-slider-response","36","328785","0.0-36.0","","656776a7904ae00d6b91d1dd","6568b3cbc252fd9132981d88","2","","","","","","","","","","","","9727","[""SV_PolicingMSA/LA_447/IMG_2_447.jpg"",""SV_PolicingMSA/LA_447/IMG_7_447.jpg"",""SV_PolicingMSA/LA_447/IMG_3_447.jpg"",""SV_PolicingMSA/LA_447/IMG_10_447.jpg"",""SV_PolicingMSA/LA_447/IMG_0_447.jpg"",""SV_PolicingMSA/LA_447/IMG_14_447.jpg"",""SV_PolicingMSA/LA_447/IMG_5_447.jpg"",""SV_PolicingMSA/LA_447/IMG_9_447.jpg""]","4","","","","","","3","","4","[""./rc_img/cop_condGroup_12_CommunitySafety_autoscaled.png"",""./rc_img/cop_condGroup_12_SafeStreets_autoscaled.png""]","","4",""
"sliderTrial","html-slider-response","37","332993","0.0-37.0","","656776a7904ae00d6b91d1dd","6568b3cbc252fd9132981d88","2","","","","","","","","","","","","4206","[""SV_PolicingMSA/LA_447/IMG_2_447.jpg"",""SV_PolicingMSA/LA_447/IMG_7_447.jpg"",""SV_PolicingMSA/LA_447/IMG_3_447.jpg"",""SV_PolicingMSA/LA_447/IMG_10_447.jpg"",""SV_PolicingMSA/LA_447/IMG_0_447.jpg"",""SV_PolicingMSA/LA_447/IMG_14_447.jpg"",""SV_PolicingMSA/LA_447/IMG_5_447.jpg"",""SV_PolicingMSA/LA_447/IMG_9_447.jpg""]","4","","","","","","3","","4","[""./rc_img/cop_condGroup_15_CommunitySafety_autoscaled.png"",""./rc_img/cop_condGroup_15_SafeStreets_autoscaled.png""]","","4",""
"sliderTrial","html-slider-response","38","340177","0.0-38.0","","656776a7904ae00d6b91d1dd","6568b3cbc252fd9132981d88","2","","","","","","","","","","","","7182","[""SV_PolicingMSA/LA_447/IMG_2_447.jpg"",""SV_PolicingMSA/LA_447/IMG_7_447.jpg"",""SV_PolicingMSA/LA_447/IMG_3_447.jpg"",""SV_PolicingMSA/LA_447/IMG_10_447.jpg"",""SV_PolicingMSA/LA_447/IMG_0_447.jpg"",""SV_PolicingMSA/LA_447/IMG_14_447.jpg"",""SV_PolicingMSA/LA_447/IMG_5_447.jpg"",""SV_PolicingMSA/LA_447/IMG_9_447.jpg""]","4","","","","","","3","","4","[""./rc_img/cop_condGroup_14_SafeStreets_autoscaled.png"",""./rc_img/cop_condGroup_14_CommunitySafety_autoscaled.png""]","","4",""
"sliderTrial","html-slider-response","39","346289","0.0-39.0","","656776a7904ae00d6b91d1dd","6568b3cbc252fd9132981d88","2","","","","","","","","","","","","6110","[""SV_PolicingMSA/LA_447/IMG_2_447.jpg"",""SV_PolicingMSA/LA_447/IMG_7_447.jpg"",""SV_PolicingMSA/LA_447/IMG_3_447.jpg"",""SV_PolicingMSA/LA_447/IMG_10_447.jpg"",""SV_PolicingMSA/LA_447/IMG_0_447.jpg"",""SV_PolicingMSA/LA_447/IMG_14_447.jpg"",""SV_PolicingMSA/LA_447/IMG_5_447.jpg"",""SV_PolicingMSA/LA_447/IMG_9_447.jpg""]","4","","","","","","3","","4","[""./rc_img/cop_condGroup_2_SafeStreets_autoscaled.png"",""./rc_img/cop_condGroup_2_CommunitySafety_autoscaled.png""]","","4",""
"sliderTrial","html-slider-response","40","352865","0.0-40.0","","656776a7904ae00d6b91d1dd","6568b3cbc252fd9132981d88","2","","","","","","","","","","","","6574","[""SV_PolicingMSA/LA_447/IMG_2_447.jpg"",""SV_PolicingMSA/LA_447/IMG_7_447.jpg"",""SV_PolicingMSA/LA_447/IMG_3_447.jpg"",""SV_PolicingMSA/LA_447/IMG_10_447.jpg"",""SV_PolicingMSA/LA_447/IMG_0_447.jpg"",""SV_PolicingMSA/LA_447/IMG_14_447.jpg"",""SV_PolicingMSA/LA_447/IMG_5_447.jpg"",""SV_PolicingMSA/LA_447/IMG_9_447.jpg""]","4","","","","","","3","","4","[""./rc_img/cop_condGroup_11_CommunitySafety_autoscaled.png"",""./rc_img/cop_condGroup_11_SafeStreets_autoscaled.png""]","","4",""
"before_SVSlide_prompt","html-button-response","41","354513","0.0-41.0","","656776a7904ae00d6b91d1dd","6568b3cbc252fd9132981d88","2","","","","","","","","","","","","1647","Click [Next] to see the next neighborhood!","0","","","","","","","","","","","",""
"street view slide show","image-button-response","42","355520","0.0-42.0","","656776a7904ae00d6b91d1dd","6568b3cbc252fd9132981d88","2","","","","","","","","","","","","null","stimulus/SV_PolicingMSA/LA_547/IMG_13_547.jpg","null","","","","","","2","","","","","",""
"street view slide show","image-button-response","43","356533","0.0-43.0","","656776a7904ae00d6b91d1dd","6568b3cbc252fd9132981d88","2","","","","","","","","","","","","null","stimulus/SV_PolicingMSA/LA_547/IMG_6_547.jpg","null","","","","","","2","","","","","",""
"street view slide show","image-button-response","44","357549","0.0-44.0","","656776a7904ae00d6b91d1dd","6568b3cbc252fd9132981d88","2","","","","","","","","","","","","null","stimulus/SV_PolicingMSA/LA_547/IMG_2_547.jpg","null","","","","","","2","","","","","",""
"street view slide show","image-button-response","45","358565","0.0-45.0","","656776a7904ae00d6b91d1dd","6568b3cbc252fd9132981d88","2","","","","","","","","","","","","null","stimulus/SV_PolicingMSA/LA_547/IMG_3_547.jpg","null","","","","","","2","","","","","",""
"street view slide show","image-button-response","46","359579","0.0-46.0","","656776a7904ae00d6b91d1dd","6568b3cbc252fd9132981d88","2","","","","","","","","","","","","null","stimulus/SV_PolicingMSA/LA_547/IMG_12_547.jpg","null","","","","","","2","","","","","",""
"street view slide show","image-button-response","47","360595","0.0-47.0","","656776a7904ae00d6b91d1dd","6568b3cbc252fd9132981d88","2","","","","","","","","","","","","null","stimulus/SV_PolicingMSA/LA_547/IMG_1_547.jpg","null","","","","","","2","","","","","",""
"street view slide show","image-button-response","48","361611","0.0-48.0","","656776a7904ae00d6b91d1dd","6568b3cbc252fd9132981d88","2","","","","","","","","","","","","null","stimulus/SV_PolicingMSA/LA_547/IMG_14_547.jpg","null","","","","","","2","","","","","",""
"street view slide show","image-button-response","49","362626","0.0-49.0","","656776a7904ae00d6b91d1dd","6568b3cbc252fd9132981d88","2","","","","","","","","","","","","null","stimulus/SV_PolicingMSA/LA_547/IMG_10_547.jpg","null","","","","","","2","","","","","",""
"dot matrix survey1","survey","50","380386","0.0-50.0","","656776a7904ae00d6b91d1dd","6568b3cbc252fd9132981d88","2","","","","","","","","","","","","17715","","{""P0_Q0"":null,""P0_Q1"":{""wealthy"":0,""safe"":1,""walkable"":1,""traditional"":2,""diverse"":3}}","","","","","","2","[]","","","","",""
"dot matrix survey2","survey","51","399383","0.0-51.0","","656776a7904ae00d6b91d1dd","6568b3cbc252fd9132981d88","2","","","","","","","","","","","","18989","","{""P0_Q0"":null,""P0_Q1"":{""violence"":2,""crime"":2,""drug"":2,""schools"":1,""opportunities"":1}}","","","","","","2","[]","","","","",""
"dot matrix survey3","survey","52","416992","0.0-52.0","","656776a7904ae00d6b91d1dd","6568b3cbc252fd9132981d88","2","","","","","","","","","","","","17600","","{""P0_Q0"":null,""P0_Q1"":{""movein"":0,""moveout"":4,""shopping"":1,""walk"":0,""park"":2,""school"":1}}","","","","","","2","[]","","","","",""
"sliderTrial","html-slider-response","53","421561","0.0-53.0","","656776a7904ae00d6b91d1dd","6568b3cbc252fd9132981d88","2","","","","","","","","","","","","4567","[""SV_PolicingMSA/LA_547/IMG_13_547.jpg"",""SV_PolicingMSA/LA_547/IMG_6_547.jpg"",""SV_PolicingMSA/LA_547/IMG_2_547.jpg"",""SV_PolicingMSA/LA_547/IMG_3_547.jpg"",""SV_PolicingMSA/LA_547/IMG_12_547.jpg"",""SV_PolicingMSA/LA_547/IMG_1_547.jpg"",""SV_PolicingMSA/LA_547/IMG_14_547.jpg"",""SV_PolicingMSA/LA_547/IMG_10_547.jpg""]","5","","","","","","2","","4","[""./rc_img/cop_condGroup_9_CommunitySafety_autoscaled.png"",""./rc_img/cop_condGroup_9_SafeStreets_autoscaled.png""]","","5",""
"sliderTrial","html-slider-response","54","427721","0.0-54.0","","656776a7904ae00d6b91d1dd","6568b3cbc252fd9132981d88","2","","","","","","","","","","","","6158","[""SV_PolicingMSA/LA_547/IMG_13_547.jpg"",""SV_PolicingMSA/LA_547/IMG_6_547.jpg"",""SV_PolicingMSA/LA_547/IMG_2_547.jpg"",""SV_PolicingMSA/LA_547/IMG_3_547.jpg"",""SV_PolicingMSA/LA_547/IMG_12_547.jpg"",""SV_PolicingMSA/LA_547/IMG_1_547.jpg"",""SV_PolicingMSA/LA_547/IMG_14_547.jpg"",""SV_PolicingMSA/LA_547/IMG_10_547.jpg""]","3","","","","","","2","","4","[""./rc_img/cop_condGroup_10_SafeStreets_autoscaled.png"",""./rc_img/cop_condGroup_10_CommunitySafety_autoscaled.png""]","","5",""
"sliderTrial","html-slider-response","55","430145","0.0-55.0","","656776a7904ae00d6b91d1dd","6568b3cbc252fd9132981d88","2","","","","","","","","","","","","2422","[""SV_PolicingMSA/LA_547/IMG_13_547.jpg"",""SV_PolicingMSA/LA_547/IMG_6_547.jpg"",""SV_PolicingMSA/LA_547/IMG_2_547.jpg"",""SV_PolicingMSA/LA_547/IMG_3_547.jpg"",""SV_PolicingMSA/LA_547/IMG_12_547.jpg"",""SV_PolicingMSA/LA_547/IMG_1_547.jpg"",""SV_PolicingMSA/LA_547/IMG_14_547.jpg"",""SV_PolicingMSA/LA_547/IMG_10_547.jpg""]","5","","","","","","2","","4","[""./rc_img/cop_condGroup_19_CommunitySafety_autoscaled.png"",""./rc_img/cop_condGroup_19_SafeStreets_autoscaled.png""]","","5",""
"sliderTrial","html-slider-response","56","433617","0.0-56.0","","656776a7904ae00d6b91d1dd","6568b3cbc252fd9132981d88","2","","","","","","","","","","","","3470","[""SV_PolicingMSA/LA_547/IMG_13_547.jpg"",""SV_PolicingMSA/LA_547/IMG_6_547.jpg"",""SV_PolicingMSA/LA_547/IMG_2_547.jpg"",""SV_PolicingMSA/LA_547/IMG_3_547.jpg"",""SV_PolicingMSA/LA_547/IMG_12_547.jpg"",""SV_PolicingMSA/LA_547/IMG_1_547.jpg"",""SV_PolicingMSA/LA_547/IMG_14_547.jpg"",""SV_PolicingMSA/LA_547/IMG_10_547.jpg""]","3","","","","","","2","","4","[""./rc_img/cop_condGroup_3_SafeStreets_autoscaled.png"",""./rc_img/cop_condGroup_3_CommunitySafety_autoscaled.png""]","","5",""
"sliderTrial","html-slider-response","57","436993","0.0-57.0","","656776a7904ae00d6b91d1dd","6568b3cbc252fd9132981d88","2","","","","","","","","","","","","3375","[""SV_PolicingMSA/LA_547/IMG_13_547.jpg"",""SV_PolicingMSA/LA_547/IMG_6_547.jpg"",""SV_PolicingMSA/LA_547/IMG_2_547.jpg"",""SV_PolicingMSA/LA_547/IMG_3_547.jpg"",""SV_PolicingMSA/LA_547/IMG_12_547.jpg"",""SV_PolicingMSA/LA_547/IMG_1_547.jpg"",""SV_PolicingMSA/LA_547/IMG_14_547.jpg"",""SV_PolicingMSA/LA_547/IMG_10_547.jpg""]","3","","","","","","2","","4","[""./rc_img/cop_condGroup_17_SafeStreets_autoscaled.png"",""./rc_img/cop_condGroup_17_CommunitySafety_autoscaled.png""]","","5",""
"before_SVSlide_prompt","html-button-response","58","438681","0.0-58.0","","656776a7904ae00d6b91d1dd","6568b3cbc252fd9132981d88","2","","","","","","","","","","","","1687","Click [Next] to see the next neighborhood!","0","","","","","","","","","","","",""
"street view slide show","image-button-response","59","439683","0.0-59.0","","656776a7904ae00d6b91d1dd","6568b3cbc252fd9132981d88","2","","","","","","","","","","","","null","stimulus/SV_PolicingMSA/LA_55/IMG_2_55.jpg","null","","","","","","0","","","","","",""
"street view slide show","image-button-response","60","440691","0.0-60.0","","656776a7904ae00d6b91d1dd","6568b3cbc252fd9132981d88","2","","","","","","","","","","","","null","stimulus/SV_PolicingMSA/LA_55/IMG_0_55.jpg","null","","","","","","0","","","","","",""
"street view slide show","image-button-response","61","441707","0.0-61.0","","656776a7904ae00d6b91d1dd","6568b3cbc252fd9132981d88","2","","","","","","","","","","","","null","stimulus/SV_PolicingMSA/LA_55/IMG_14_55.jpg","null","","","","","","0","","","","","",""
"street view slide show","image-button-response","62","442721","0.0-62.0","","656776a7904ae00d6b91d1dd","6568b3cbc252fd9132981d88","2","","","","","","","","","","","","null","stimulus/SV_PolicingMSA/LA_55/IMG_3_55.jpg","null","","","","","","0","","","","","",""
"street view slide show","image-button-response","63","443736","0.0-63.0","","656776a7904ae00d6b91d1dd","6568b3cbc252fd9132981d88","2","","","","","","","","","","","","null","stimulus/SV_PolicingMSA/LA_55/IMG_8_55.jpg","null","","","","","","0","","","","","",""
"street view slide show","image-button-response","64","444752","0.0-64.0","","656776a7904ae00d6b91d1dd","6568b3cbc252fd9132981d88","2","","","","","","","","","","","","null","stimulus/SV_PolicingMSA/LA_55/IMG_10_55.jpg","null","","","","","","0","","","","","",""
"street view slide show","image-button-response","65","445768","0.0-65.0","","656776a7904ae00d6b91d1dd","6568b3cbc252fd9132981d88","2","","","","","","","","","","","","null","stimulus/SV_PolicingMSA/LA_55/IMG_9_55.jpg","null","","","","","","0","","","","","",""
"street view slide show","image-button-response","66","446783","0.0-66.0","","656776a7904ae00d6b91d1dd","6568b3cbc252fd9132981d88","2","","","","","","","","","","","","null","stimulus/SV_PolicingMSA/LA_55/IMG_4_55.jpg","null","","","","","","0","","","","","",""
"dot matrix survey1","survey","67","463169","0.0-67.0","","656776a7904ae00d6b91d1dd","6568b3cbc252fd9132981d88","2","","","","","","","","","","","","16360","","{""P0_Q0"":null,""P0_Q1"":{""wealthy"":1,""safe"":4,""walkable"":4,""traditional"":4,""diverse"":3}}","","","","","","0","[]","","","","",""
"dot matrix survey2","survey","68","476735","0.0-68.0","","656776a7904ae00d6b91d1dd","6568b3cbc252fd9132981d88","2","","","","","","","","","","","","13558","","{""P0_Q0"":null,""P0_Q1"":{""violence"":1,""crime"":1,""drug"":1,""schools"":2,""opportunities"":2}}","","","","","","0","[]","","","","",""
"dot matrix survey3","survey","69","504192","0.0-69.0","","656776a7904ae00d6b91d1dd","6568b3cbc252fd9132981d88","2","","","","","","","","","","","","27449","","{""P0_Q0"":null,""P0_Q1"":{""movein"":2,""moveout"":2,""shopping"":4,""walk"":1,""park"":4,""school"":2}}","","","","","","0","[]","","","","",""
"sliderTrial","html-slider-response","70","512465","0.0-70.0","","656776a7904ae00d6b91d1dd","6568b3cbc252fd9132981d88","2","","","","","","","","","","","","8271","[""SV_PolicingMSA/LA_55/IMG_2_55.jpg"",""SV_PolicingMSA/LA_55/IMG_0_55.jpg"",""SV_PolicingMSA/LA_55/IMG_14_55.jpg"",""SV_PolicingMSA/LA_55/IMG_3_55.jpg"",""SV_PolicingMSA/LA_55/IMG_8_55.jpg"",""SV_PolicingMSA/LA_55/IMG_10_55.jpg"",""SV_PolicingMSA/LA_55/IMG_9_55.jpg"",""SV_PolicingMSA/LA_55/IMG_4_55.jpg""]","4","","","","","","0","","4","[""./rc_img/cop_condGroup_13_CommunitySafety_autoscaled.png"",""./rc_img/cop_condGroup_13_SafeStreets_autoscaled.png""]","","4",""
"sliderTrial_attention","html-slider-response","71","522473","0.0-71.0","","656776a7904ae00d6b91d1dd","6568b3cbc252fd9132981d88","2","","","","","","","","","","","","null","[""SV_PolicingMSA/LA_55/IMG_2_55.jpg"",""SV_PolicingMSA/LA_55/IMG_0_55.jpg"",""SV_PolicingMSA/LA_55/IMG_14_55.jpg"",""SV_PolicingMSA/LA_55/IMG_3_55.jpg"",""SV_PolicingMSA/LA_55/IMG_8_55.jpg"",""SV_PolicingMSA/LA_55/IMG_10_55.jpg"",""SV_PolicingMSA/LA_55/IMG_9_55.jpg"",""SV_PolicingMSA/LA_55/IMG_4_55.jpg""]","null","","","","","","0","","4","[""./assets/img/attnchk.png"",""./assets/img/attnchk.png""]","true","",""
"sliderTrial","html-slider-response","72","527321","0.0-72.0","","656776a7904ae00d6b91d1dd","6568b3cbc252fd9132981d88","2","","","","","","","","","","","","4843","[""SV_PolicingMSA/LA_55/IMG_2_55.jpg"",""SV_PolicingMSA/LA_55/IMG_0_55.jpg"",""SV_PolicingMSA/LA_55/IMG_14_55.jpg"",""SV_PolicingMSA/LA_55/IMG_3_55.jpg"",""SV_PolicingMSA/LA_55/IMG_8_55.jpg"",""SV_PolicingMSA/LA_55/IMG_10_55.jpg"",""SV_PolicingMSA/LA_55/IMG_9_55.jpg"",""SV_PolicingMSA/LA_55/IMG_4_55.jpg""]","4","","","","","","0","","4","[""./rc_img/cop_condGroup_4_SafeStreets_autoscaled.png"",""./rc_img/cop_condGroup_4_CommunitySafety_autoscaled.png""]","","4",""
"sliderTrial","html-slider-response","73","531185","0.0-73.0","","656776a7904ae00d6b91d1dd","6568b3cbc252fd9132981d88","2","","","","","","","","","","","","3863","[""SV_PolicingMSA/LA_55/IMG_2_55.jpg"",""SV_PolicingMSA/LA_55/IMG_0_55.jpg"",""SV_PolicingMSA/LA_55/IMG_14_55.jpg"",""SV_PolicingMSA/LA_55/IMG_3_55.jpg"",""SV_PolicingMSA/LA_55/IMG_8_55.jpg"",""SV_PolicingMSA/LA_55/IMG_10_55.jpg"",""SV_PolicingMSA/LA_55/IMG_9_55.jpg"",""SV_PolicingMSA/LA_55/IMG_4_55.jpg""]","4","","","","","","0","","4","[""./rc_img/cop_condGroup_1_CommunitySafety_autoscaled.png"",""./rc_img/cop_condGroup_1_SafeStreets_autoscaled.png""]","","4",""
"sliderTrial","html-slider-response","74","535345","0.0-74.0","","656776a7904ae00d6b91d1dd","6568b3cbc252fd9132981d88","2","","","","","","","","","","","","4158","[""SV_PolicingMSA/LA_55/IMG_2_55.jpg"",""SV_PolicingMSA/LA_55/IMG_0_55.jpg"",""SV_PolicingMSA/LA_55/IMG_14_55.jpg"",""SV_PolicingMSA/LA_55/IMG_3_55.jpg"",""SV_PolicingMSA/LA_55/IMG_8_55.jpg"",""SV_PolicingMSA/LA_55/IMG_10_55.jpg"",""SV_PolicingMSA/LA_55/IMG_9_55.jpg"",""SV_PolicingMSA/LA_55/IMG_4_55.jpg""]","4","","","","","","0","","4","[""./rc_img/cop_condGroup_5_SafeStreets_autoscaled.png"",""./rc_img/cop_condGroup_5_CommunitySafety_autoscaled.png""]","","4",""
"sliderTrial","html-slider-response","75","539689","0.0-75.0","","656776a7904ae00d6b91d1dd","6568b3cbc252fd9132981d88","2","","","","","","","","","","","","4342","[""SV_PolicingMSA/LA_55/IMG_2_55.jpg"",""SV_PolicingMSA/LA_55/IMG_0_55.jpg"",""SV_PolicingMSA/LA_55/IMG_14_55.jpg"",""SV_PolicingMSA/LA_55/IMG_3_55.jpg"",""SV_PolicingMSA/LA_55/IMG_8_55.jpg"",""SV_PolicingMSA/LA_55/IMG_10_55.jpg"",""SV_PolicingMSA/LA_55/IMG_9_55.jpg"",""SV_PolicingMSA/LA_55/IMG_4_55.jpg""]","3","","","","","","0","","4","[""./rc_img/cop_condGroup_6_CommunitySafety_autoscaled.png"",""./rc_img/cop_condGroup_6_SafeStreets_autoscaled.png""]","","3",""
"half-way","html-button-response","76","555443","0.0-76.0","","656776a7904ae00d6b91d1dd","6568b3cbc252fd9132981d88","2","","","","","","","","","","","","null","
    <h3>You are now half way through the study.</h3>
    <p>Please take a quick, 15-second break before you continue.</p>
    <img src='assets/img/countdown-15.gif'>
    <p>The study will automatically advance forward after the countdown is complete. <br> However, you may click ""Next"" to advance forward now if you wish.</p>
    ","null","","","","","","","","","","","",""
"before_SVSlide_prompt","html-button-response","77","559049","0.0-77.0","","656776a7904ae00d6b91d1dd","6568b3cbc252fd9132981d88","2","","","","","","","","","","","","3604","Click [Next] to see the next neighborhood!","0","","","","","","","","","","","",""
"street view slide show","image-button-response","78","560050","0.0-78.0","","656776a7904ae00d6b91d1dd","6568b3cbc252fd9132981d88","2","","","","","","","","","","","","null","stimulus/SV_PolicingMSA/LA_42/IMG_0_42.jpg","null","","","","","","2","","","","","",""
"street view slide show","image-button-response","79","561060","0.0-79.0","","656776a7904ae00d6b91d1dd","6568b3cbc252fd9132981d88","2","","","","","","","","","","","","null","stimulus/SV_PolicingMSA/LA_42/IMG_5_42.jpg","null","","","","","","2","","","","","",""
"street view slide show","image-button-response","80","562067","0.0-80.0","","656776a7904ae00d6b91d1dd","6568b3cbc252fd9132981d88","2","","","","","","","","","","","","null","stimulus/SV_PolicingMSA/LA_42/IMG_2_42.jpg","null","","","","","","2","","","","","",""
"street view slide show","image-button-response","81","563081","0.0-81.0","","656776a7904ae00d6b91d1dd","6568b3cbc252fd9132981d88","2","","","","","","","","","","","","null","stimulus/SV_PolicingMSA/LA_42/IMG_1_42.jpg","null","","","","","","2","","","","","",""
"street view slide show","image-button-response","82","564096","0.0-82.0","","656776a7904ae00d6b91d1dd","6568b3cbc252fd9132981d88","2","","","","","","","","","","","","null","stimulus/SV_PolicingMSA/LA_42/IMG_10_42.jpg","null","","","","","","2","","","","","",""
"street view slide show","image-button-response","83","565112","0.0-83.0","","656776a7904ae00d6b91d1dd","6568b3cbc252fd9132981d88","2","","","","","","","","","","","","null","stimulus/SV_PolicingMSA/LA_42/IMG_7_42.jpg","null","","","","","","2","","","","","",""
"street view slide show","image-button-response","84","566128","0.0-84.0","","656776a7904ae00d6b91d1dd","6568b3cbc252fd9132981d88","2","","","","","","","","","","","","null","stimulus/SV_PolicingMSA/LA_42/IMG_13_42.jpg","null","","","","","","2","","","","","",""
"street view slide show","image-button-response","85","567143","0.0-85.0","","656776a7904ae00d6b91d1dd","6568b3cbc252fd9132981d88","2","","","","","","","","","","","","null","stimulus/SV_PolicingMSA/LA_42/IMG_14_42.jpg","null","","","","","","2","","","","","",""
"dot matrix survey1","survey","86","588319","0.0-86.0","","656776a7904ae00d6b91d1dd","6568b3cbc252fd9132981d88","2","","","","","","","","","","","","21142","","{""P0_Q0"":null,""P0_Q1"":{""wealthy"":3,""safe"":3,""walkable"":3,""traditional"":4,""diverse"":3}}","","","","","","2","[]","","","","",""
"dot matrix survey2","survey","87","606287","0.0-87.0","","656776a7904ae00d6b91d1dd","6568b3cbc252fd9132981d88","2","","","","","","","","","","","","17960","","{""P0_Q0"":null,""P0_Q1"":{""violence"":1,""crime"":1,""drug"":1,""schools"":3,""opportunities"":3}}","","","","","","2","[]","","","","",""
"dot matrix survey3","survey","88","622078","0.0-88.0","","656776a7904ae00d6b91d1dd","6568b3cbc252fd9132981d88","2","","","","","","","","","","","","15786","","{""P0_Q0"":null,""P0_Q1"":{""movein"":4,""moveout"":1,""shopping"":4,""walk"":1,""park"":4,""school"":4}}","","","","","","2","[]","","","","",""
"sliderTrial","html-slider-response","89","627919","0.0-89.0","","656776a7904ae00d6b91d1dd","6568b3cbc252fd9132981d88","2","","","","","","","","","","","","5839","[""SV_PolicingMSA/LA_42/IMG_0_42.jpg"",""SV_PolicingMSA/LA_42/IMG_5_42.jpg"",""SV_PolicingMSA/LA_42/IMG_2_42.jpg"",""SV_PolicingMSA/LA_42/IMG_1_42.jpg"",""SV_PolicingMSA/LA_42/IMG_10_42.jpg"",""SV_PolicingMSA/LA_42/IMG_7_42.jpg"",""SV_PolicingMSA/LA_42/IMG_13_42.jpg"",""SV_PolicingMSA/LA_42/IMG_14_42.jpg""]","4","","","","","","2","","4","[""./rc_img/cop_condGroup_13_CommunitySafety_autoscaled.png"",""./rc_img/cop_condGroup_13_SafeStreets_autoscaled.png""]","","4",""
"sliderTrial","html-slider-response","90","632023","0.0-90.0","","656776a7904ae00d6b91d1dd","6568b3cbc252fd9132981d88","2","","","","","","","","","","","","4102","[""SV_PolicingMSA/LA_42/IMG_0_42.jpg"",""SV_PolicingMSA/LA_42/IMG_5_42.jpg"",""SV_PolicingMSA/LA_42/IMG_2_42.jpg"",""SV_PolicingMSA/LA_42/IMG_1_42.jpg"",""SV_PolicingMSA/LA_42/IMG_10_42.jpg"",""SV_PolicingMSA/LA_42/IMG_7_42.jpg"",""SV_PolicingMSA/LA_42/IMG_13_42.jpg"",""SV_PolicingMSA/LA_42/IMG_14_42.jpg""]","4","","","","","","2","","4","[""./rc_img/cop_condGroup_4_SafeStreets_autoscaled.png"",""./rc_img/cop_condGroup_4_CommunitySafety_autoscaled.png""]","","4",""
"sliderTrial","html-slider-response","91","636327","0.0-91.0","","656776a7904ae00d6b91d1dd","6568b3cbc252fd9132981d88","2","","","","","","","","","","","","4303","[""SV_PolicingMSA/LA_42/IMG_0_42.jpg"",""SV_PolicingMSA/LA_42/IMG_5_42.jpg"",""SV_PolicingMSA/LA_42/IMG_2_42.jpg"",""SV_PolicingMSA/LA_42/IMG_1_42.jpg"",""SV_PolicingMSA/LA_42/IMG_10_42.jpg"",""SV_PolicingMSA/LA_42/IMG_7_42.jpg"",""SV_PolicingMSA/LA_42/IMG_13_42.jpg"",""SV_PolicingMSA/LA_42/IMG_14_42.jpg""]","5","","","","","","2","","4","[""./rc_img/cop_condGroup_1_CommunitySafety_autoscaled.png"",""./rc_img/cop_condGroup_1_SafeStreets_autoscaled.png""]","","5",""
"sliderTrial","html-slider-response","92","638727","0.0-92.0","","656776a7904ae00d6b91d1dd","6568b3cbc252fd9132981d88","2","","","","","","","","","","","","2399","[""SV_PolicingMSA/LA_42/IMG_0_42.jpg"",""SV_PolicingMSA/LA_42/IMG_5_42.jpg"",""SV_PolicingMSA/LA_42/IMG_2_42.jpg"",""SV_PolicingMSA/LA_42/IMG_1_42.jpg"",""SV_PolicingMSA/LA_42/IMG_10_42.jpg"",""SV_PolicingMSA/LA_42/IMG_7_42.jpg"",""SV_PolicingMSA/LA_42/IMG_13_42.jpg"",""SV_PolicingMSA/LA_42/IMG_14_42.jpg""]","5","","","","","","2","","4","[""./rc_img/cop_condGroup_5_SafeStreets_autoscaled.png"",""./rc_img/cop_condGroup_5_CommunitySafety_autoscaled.png""]","","3",""
"sliderTrial","html-slider-response","93","641967","0.0-93.0","","656776a7904ae00d6b91d1dd","6568b3cbc252fd9132981d88","2","","","","","","","","","","","","3238","[""SV_PolicingMSA/LA_42/IMG_0_42.jpg"",""SV_PolicingMSA/LA_42/IMG_5_42.jpg"",""SV_PolicingMSA/LA_42/IMG_2_42.jpg"",""SV_PolicingMSA/LA_42/IMG_1_42.jpg"",""SV_PolicingMSA/LA_42/IMG_10_42.jpg"",""SV_PolicingMSA/LA_42/IMG_7_42.jpg"",""SV_PolicingMSA/LA_42/IMG_13_42.jpg"",""SV_PolicingMSA/LA_42/IMG_14_42.jpg""]","5","","","","","","2","","4","[""./rc_img/cop_condGroup_6_CommunitySafety_autoscaled.png"",""./rc_img/cop_condGroup_6_SafeStreets_autoscaled.png""]","","5",""
"before_SVSlide_prompt","html-button-response","94","643343","0.0-94.0","","656776a7904ae00d6b91d1dd","6568b3cbc252fd9132981d88","2","","","","","","","","","","","","1375","Click [Next] to see the next neighborhood!","0","","","","","","","","","","","",""
"street view slide show","image-button-response","95","644347","0.0-95.0","","656776a7904ae00d6b91d1dd","6568b3cbc252fd9132981d88","2","","","","","","","","","","","","null","stimulus/SV_PolicingMSA/LA_599/IMG_2_599.jpg","null","","","","","","3","","","","","",""
"street view slide show","image-button-response","96","645362","0.0-96.0","","656776a7904ae00d6b91d1dd","6568b3cbc252fd9132981d88","2","","","","","","","","","","","","null","stimulus/SV_PolicingMSA/LA_599/IMG_4_599.jpg","null","","","","","","3","","","","","",""
"street view slide show","image-button-response","97","646371","0.0-97.0","","656776a7904ae00d6b91d1dd","6568b3cbc252fd9132981d88","2","","","","","","","","","","","","null","stimulus/SV_PolicingMSA/LA_599/IMG_1_599.jpg","null","","","","","","3","","","","","",""
"street view slide show","image-button-response","98","647374","0.0-98.0","","656776a7904ae00d6b91d1dd","6568b3cbc252fd9132981d88","2","","","","","","","","","","","","null","stimulus/SV_PolicingMSA/LA_599/IMG_9_599.jpg","null","","","","","","3","","","","","",""
"street view slide show","image-button-response","99","648386","0.0-99.0","","656776a7904ae00d6b91d1dd","6568b3cbc252fd9132981d88","2","","","","","","","","","","","","null","stimulus/SV_PolicingMSA/LA_599/IMG_11_599.jpg","null","","","","","","3","","","","","",""
"street view slide show","image-button-response","100","649401","0.0-100.0","","656776a7904ae00d6b91d1dd","6568b3cbc252fd9132981d88","2","","","","","","","","","","","","null","stimulus/SV_PolicingMSA/LA_599/IMG_3_599.jpg","null","","","","","","3","","","","","",""
"street view slide show","image-button-response","101","650419","0.0-101.0","","656776a7904ae00d6b91d1dd","6568b3cbc252fd9132981d88","2","","","","","","","","","","","","null","stimulus/SV_PolicingMSA/LA_599/IMG_5_599.jpg","null","","","","","","3","","","","","",""
"street view slide show","image-button-response","102","651432","0.0-102.0","","656776a7904ae00d6b91d1dd","6568b3cbc252fd9132981d88","2","","","","","","","","","","","","null","stimulus/SV_PolicingMSA/LA_599/IMG_8_599.jpg","null","","","","","","3","","","","","",""
"dot matrix survey1","survey","103","668543","0.0-103.0","","656776a7904ae00d6b91d1dd","6568b3cbc252fd9132981d88","2","","","","","","","","","","","","17085","","{""P0_Q0"":null,""P0_Q1"":{""wealthy"":1,""safe"":3,""walkable"":3,""traditional"":3,""diverse"":3}}","","","","","","3","[]","","","","",""
"dot matrix survey2","survey","104","683174","0.0-104.0","","656776a7904ae00d6b91d1dd","6568b3cbc252fd9132981d88","2","","","","","","","","","","","","14625","","{""P0_Q0"":null,""P0_Q1"":{""violence"":1,""crime"":1,""drug"":2,""schools"":3,""opportunities"":2}}","","","","","","3","[]","","","","",""
"dot matrix survey3","survey","105","704031","0.0-105.0","","656776a7904ae00d6b91d1dd","6568b3cbc252fd9132981d88","2","","","","","","","","","","","","20851","","{""P0_Q0"":null,""P0_Q1"":{""movein"":3,""moveout"":1,""shopping"":3,""walk"":1,""park"":4,""school"":4}}","","","","","","3","[]","","","","",""
"sliderTrial","html-slider-response","106","709480","0.0-106.0","","656776a7904ae00d6b91d1dd","6568b3cbc252fd9132981d88","2","","","","","","","","","","","","5447","[""SV_PolicingMSA/LA_599/IMG_2_599.jpg"",""SV_PolicingMSA/LA_599/IMG_4_599.jpg"",""SV_PolicingMSA/LA_599/IMG_1_599.jpg"",""SV_PolicingMSA/LA_599/IMG_9_599.jpg"",""SV_PolicingMSA/LA_599/IMG_11_599.jpg"",""SV_PolicingMSA/LA_599/IMG_3_599.jpg"",""SV_PolicingMSA/LA_599/IMG_5_599.jpg"",""SV_PolicingMSA/LA_599/IMG_8_599.jpg""]","5","","","","","","3","","4","[""./rc_img/cop_condGroup_20_SafeStreets_autoscaled.png"",""./rc_img/cop_condGroup_20_CommunitySafety_autoscaled.png""]","","3",""
"sliderTrial","html-slider-response","107","712320","0.0-107.0","","656776a7904ae00d6b91d1dd","6568b3cbc252fd9132981d88","2","","","","","","","","","","","","2838","[""SV_PolicingMSA/LA_599/IMG_2_599.jpg"",""SV_PolicingMSA/LA_599/IMG_4_599.jpg"",""SV_PolicingMSA/LA_599/IMG_1_599.jpg"",""SV_PolicingMSA/LA_599/IMG_9_599.jpg"",""SV_PolicingMSA/LA_599/IMG_11_599.jpg"",""SV_PolicingMSA/LA_599/IMG_3_599.jpg"",""SV_PolicingMSA/LA_599/IMG_5_599.jpg"",""SV_PolicingMSA/LA_599/IMG_8_599.jpg""]","5","","","","","","3","","4","[""./rc_img/cop_condGroup_8_SafeStreets_autoscaled.png"",""./rc_img/cop_condGroup_8_CommunitySafety_autoscaled.png""]","","3",""
"sliderTrial","html-slider-response","108","715064","0.0-108.0","","656776a7904ae00d6b91d1dd","6568b3cbc252fd9132981d88","2","","","","","","","","","","","","2743","[""SV_PolicingMSA/LA_599/IMG_2_599.jpg"",""SV_PolicingMSA/LA_599/IMG_4_599.jpg"",""SV_PolicingMSA/LA_599/IMG_1_599.jpg"",""SV_PolicingMSA/LA_599/IMG_9_599.jpg"",""SV_PolicingMSA/LA_599/IMG_11_599.jpg"",""SV_PolicingMSA/LA_599/IMG_3_599.jpg"",""SV_PolicingMSA/LA_599/IMG_5_599.jpg"",""SV_PolicingMSA/LA_599/IMG_8_599.jpg""]","3","","","","","","3","","4","[""./rc_img/cop_condGroup_18_CommunitySafety_autoscaled.png"",""./rc_img/cop_condGroup_18_SafeStreets_autoscaled.png""]","","3",""
"sliderTrial","html-slider-response","109","717448","0.0-109.0","","656776a7904ae00d6b91d1dd","6568b3cbc252fd9132981d88","2","","","","","","","","","","","","2382","[""SV_PolicingMSA/LA_599/IMG_2_599.jpg"",""SV_PolicingMSA/LA_599/IMG_4_599.jpg"",""SV_PolicingMSA/LA_599/IMG_1_599.jpg"",""SV_PolicingMSA/LA_599/IMG_9_599.jpg"",""SV_PolicingMSA/LA_599/IMG_11_599.jpg"",""SV_PolicingMSA/LA_599/IMG_3_599.jpg"",""SV_PolicingMSA/LA_599/IMG_5_599.jpg"",""SV_PolicingMSA/LA_599/IMG_8_599.jpg""]","3","","","","","","3","","4","[""./rc_img/cop_condGroup_16_CommunitySafety_autoscaled.png"",""./rc_img/cop_condGroup_16_SafeStreets_autoscaled.png""]","","3",""
"sliderTrial","html-slider-response","110","720432","0.0-110.0","","656776a7904ae00d6b91d1dd","6568b3cbc252fd9132981d88","2","","","","","","","","","","","","2983","[""SV_PolicingMSA/LA_599/IMG_2_599.jpg"",""SV_PolicingMSA/LA_599/IMG_4_599.jpg"",""SV_PolicingMSA/LA_599/IMG_1_599.jpg"",""SV_PolicingMSA/LA_599/IMG_9_599.jpg"",""SV_PolicingMSA/LA_599/IMG_11_599.jpg"",""SV_PolicingMSA/LA_599/IMG_3_599.jpg"",""SV_PolicingMSA/LA_599/IMG_5_599.jpg"",""SV_PolicingMSA/LA_599/IMG_8_599.jpg""]","3","","","","","","3","","4","[""./rc_img/cop_condGroup_7_CommunitySafety_autoscaled.png"",""./rc_img/cop_condGroup_7_SafeStreets_autoscaled.png""]","","3",""
"before_SVSlide_prompt","html-button-response","111","721848","0.0-111.0","","656776a7904ae00d6b91d1dd","6568b3cbc252fd9132981d88","2","","","","","","","","","","","","1416","Click [Next] to see the next neighborhood!","0","","","","","","","","","","","",""
"street view slide show","image-button-response","112","722858","0.0-112.0","","656776a7904ae00d6b91d1dd","6568b3cbc252fd9132981d88","2","","","","","","","","","","","","null","stimulus/SV_PolicingMSA/LA_438/IMG_10_438.jpg","null","","","","","","4","","","","","",""
"street view slide show","image-button-response","113","723861","0.0-113.0","","656776a7904ae00d6b91d1dd","6568b3cbc252fd9132981d88","2","","","","","","","","","","","","null","stimulus/SV_PolicingMSA/LA_438/IMG_11_438.jpg","null","","","","","","4","","","","","",""
"street view slide show","image-button-response","114","724871","0.0-114.0","","656776a7904ae00d6b91d1dd","6568b3cbc252fd9132981d88","2","","","","","","","","","","","","null","stimulus/SV_PolicingMSA/LA_438/IMG_14_438.jpg","null","","","","","","4","","","","","",""
"street view slide show","image-button-response","115","725886","0.0-115.0","","656776a7904ae00d6b91d1dd","6568b3cbc252fd9132981d88","2","","","","","","","","","","","","null","stimulus/SV_PolicingMSA/LA_438/IMG_9_438.jpg","null","","","","","","4","","","","","",""
"street view slide show","image-button-response","116","726901","0.0-116.0","","656776a7904ae00d6b91d1dd","6568b3cbc252fd9132981d88","2","","","","","","","","","","","","null","stimulus/SV_PolicingMSA/LA_438/IMG_8_438.jpg","null","","","","","","4","","","","","",""
"street view slide show","image-button-response","117","727916","0.0-117.0","","656776a7904ae00d6b91d1dd","6568b3cbc252fd9132981d88","2","","","","","","","","","","","","null","stimulus/SV_PolicingMSA/LA_438/IMG_0_438.jpg","null","","","","","","4","","","","","",""
"street view slide show","image-button-response","118","728931","0.0-118.0","","656776a7904ae00d6b91d1dd","6568b3cbc252fd9132981d88","2","","","","","","","","","","","","null","stimulus/SV_PolicingMSA/LA_438/IMG_6_438.jpg","null","","","","","","4","","","","","",""
"street view slide show","image-button-response","119","729947","0.0-119.0","","656776a7904ae00d6b91d1dd","6568b3cbc252fd9132981d88","2","","","","","","","","","","","","null","stimulus/SV_PolicingMSA/LA_438/IMG_3_438.jpg","null","","","","","","4","","","","","",""
"dot matrix survey1","survey","120","741790","0.0-120.0","","656776a7904ae00d6b91d1dd","6568b3cbc252fd9132981d88","2","","","","","","","","","","","","11817","","{""P0_Q0"":null,""P0_Q1"":{""wealthy"":3,""safe"":4,""walkable"":4,""traditional"":4,""diverse"":2}}","","","","","","4","[]","","","","",""
"dot matrix survey2","survey","121","768790","0.0-121.0","","656776a7904ae00d6b91d1dd","6568b3cbc252fd9132981d88","2","","","","","","","","","","","","26991","","{""P0_Q0"":null,""P0_Q1"":{""violence"":1,""drug"":0,""crime"":1,""schools"":3,""opportunities"":4}}","","","","","","4","[]","","","","",""
"dot matrix survey3","survey","122","781127","0.0-122.0","","656776a7904ae00d6b91d1dd","6568b3cbc252fd9132981d88","2","","","","","","","","","","","","12330","","{""P0_Q0"":null,""P0_Q1"":{""movein"":4,""moveout"":0,""shopping"":4,""walk"":1,""park"":4,""school"":4}}","","","","","","4","[]","","","","",""
"sliderTrial","html-slider-response","123","784720","0.0-123.0","","656776a7904ae00d6b91d1dd","6568b3cbc252fd9132981d88","2","","","","","","","","","","","","3591","[""SV_PolicingMSA/LA_438/IMG_10_438.jpg"",""SV_PolicingMSA/LA_438/IMG_11_438.jpg"",""SV_PolicingMSA/LA_438/IMG_14_438.jpg"",""SV_PolicingMSA/LA_438/IMG_9_438.jpg"",""SV_PolicingMSA/LA_438/IMG_8_438.jpg"",""SV_PolicingMSA/LA_438/IMG_0_438.jpg"",""SV_PolicingMSA/LA_438/IMG_6_438.jpg"",""SV_PolicingMSA/LA_438/IMG_3_438.jpg""]","3","","","","","","4","","4","[""./rc_img/cop_condGroup_9_CommunitySafety_autoscaled.png"",""./rc_img/cop_condGroup_9_SafeStreets_autoscaled.png""]","","3",""
"sliderTrial","html-slider-response","124","787080","0.0-124.0","","656776a7904ae00d6b91d1dd","6568b3cbc252fd9132981d88","2","","","","","","","","","","","","2358","[""SV_PolicingMSA/LA_438/IMG_10_438.jpg"",""SV_PolicingMSA/LA_438/IMG_11_438.jpg"",""SV_PolicingMSA/LA_438/IMG_14_438.jpg"",""SV_PolicingMSA/LA_438/IMG_9_438.jpg"",""SV_PolicingMSA/LA_438/IMG_8_438.jpg"",""SV_PolicingMSA/LA_438/IMG_0_438.jpg"",""SV_PolicingMSA/LA_438/IMG_6_438.jpg"",""SV_PolicingMSA/LA_438/IMG_3_438.jpg""]","5","","","","","","4","","4","[""./rc_img/cop_condGroup_10_SafeStreets_autoscaled.png"",""./rc_img/cop_condGroup_10_CommunitySafety_autoscaled.png""]","","3",""
"sliderTrial","html-slider-response","125","791857","0.0-125.0","","656776a7904ae00d6b91d1dd","6568b3cbc252fd9132981d88","2","","","","","","","","","","","","4775","[""SV_PolicingMSA/LA_438/IMG_10_438.jpg"",""SV_PolicingMSA/LA_438/IMG_11_438.jpg"",""SV_PolicingMSA/LA_438/IMG_14_438.jpg"",""SV_PolicingMSA/LA_438/IMG_9_438.jpg"",""SV_PolicingMSA/LA_438/IMG_8_438.jpg"",""SV_PolicingMSA/LA_438/IMG_0_438.jpg"",""SV_PolicingMSA/LA_438/IMG_6_438.jpg"",""SV_PolicingMSA/LA_438/IMG_3_438.jpg""]","3","","","","","","4","","4","[""./rc_img/cop_condGroup_19_CommunitySafety_autoscaled.png"",""./rc_img/cop_condGroup_19_SafeStreets_autoscaled.png""]","","3",""
"sliderTrial","html-slider-response","126","794856","0.0-126.0","","656776a7904ae00d6b91d1dd","6568b3cbc252fd9132981d88","2","","","","","","","","","","","","2998","[""SV_PolicingMSA/LA_438/IMG_10_438.jpg"",""SV_PolicingMSA/LA_438/IMG_11_438.jpg"",""SV_PolicingMSA/LA_438/IMG_14_438.jpg"",""SV_PolicingMSA/LA_438/IMG_9_438.jpg"",""SV_PolicingMSA/LA_438/IMG_8_438.jpg"",""SV_PolicingMSA/LA_438/IMG_0_438.jpg"",""SV_PolicingMSA/LA_438/IMG_6_438.jpg"",""SV_PolicingMSA/LA_438/IMG_3_438.jpg""]","5","","","","","","4","","4","[""./rc_img/cop_condGroup_3_SafeStreets_autoscaled.png"",""./rc_img/cop_condGroup_3_CommunitySafety_autoscaled.png""]","","3",""
"sliderTrial","html-slider-response","127","800216","0.0-127.0","","656776a7904ae00d6b91d1dd","6568b3cbc252fd9132981d88","2","","","","","","","","","","","","5358","[""SV_PolicingMSA/LA_438/IMG_10_438.jpg"",""SV_PolicingMSA/LA_438/IMG_11_438.jpg"",""SV_PolicingMSA/LA_438/IMG_14_438.jpg"",""SV_PolicingMSA/LA_438/IMG_9_438.jpg"",""SV_PolicingMSA/LA_438/IMG_8_438.jpg"",""SV_PolicingMSA/LA_438/IMG_0_438.jpg"",""SV_PolicingMSA/LA_438/IMG_6_438.jpg"",""SV_PolicingMSA/LA_438/IMG_3_438.jpg""]","5","","","","","","4","","4","[""./rc_img/cop_condGroup_17_SafeStreets_autoscaled.png"",""./rc_img/cop_condGroup_17_CommunitySafety_autoscaled.png""]","","3",""
"before_SVSlide_prompt","html-button-response","128","803384","0.0-128.0","","656776a7904ae00d6b91d1dd","6568b3cbc252fd9132981d88","2","","","","","","","","","","","","3167","Click [Next] to see the next neighborhood!","0","","","","","","","","","","","",""
"street view slide show","image-button-response","129","804400","0.0-129.0","","656776a7904ae00d6b91d1dd","6568b3cbc252fd9132981d88","2","","","","","","","","","","","","null","stimulus/SV_PolicingMSA/LA_1076/IMG_5_1076.jpg","null","","","","","","5","","","","","",""
"street view slide show","image-button-response","130","805416","0.0-130.0","","656776a7904ae00d6b91d1dd","6568b3cbc252fd9132981d88","2","","","","","","","","","","","","null","stimulus/SV_PolicingMSA/LA_1076/IMG_8_1076.jpg","null","","","","","","5","","","","","",""
"street view slide show","image-button-response","131","806431","0.0-131.0","","656776a7904ae00d6b91d1dd","6568b3cbc252fd9132981d88","2","","","","","","","","","","","","null","stimulus/SV_PolicingMSA/LA_1076/IMG_14_1076.jpg","null","","","","","","5","","","","","",""
"street view slide show","image-button-response","132","807446","0.0-132.0","","656776a7904ae00d6b91d1dd","6568b3cbc252fd9132981d88","2","","","","","","","","","","","","null","stimulus/SV_PolicingMSA/LA_1076/IMG_12_1076.jpg","null","","","","","","5","","","","","",""
"street view slide show","image-button-response","133","808461","0.0-133.0","","656776a7904ae00d6b91d1dd","6568b3cbc252fd9132981d88","2","","","","","","","","","","","","null","stimulus/SV_PolicingMSA/LA_1076/IMG_4_1076.jpg","null","","","","","","5","","","","","",""
"street view slide show","image-button-response","134","809463","0.0-134.0","","656776a7904ae00d6b91d1dd","6568b3cbc252fd9132981d88","2","","","","","","","","","","","","null","stimulus/SV_PolicingMSA/LA_1076/IMG_3_1076.jpg","null","","","","","","5","","","","","",""
"street view slide show","image-button-response","135","810476","0.0-135.0","","656776a7904ae00d6b91d1dd","6568b3cbc252fd9132981d88","2","","","","","","","","","","","","null","stimulus/SV_PolicingMSA/LA_1076/IMG_6_1076.jpg","null","","","","","","5","","","","","",""
"street view slide show","image-button-response","136","811491","0.0-136.0","","656776a7904ae00d6b91d1dd","6568b3cbc252fd9132981d88","2","","","","","","","","","","","","null","stimulus/SV_PolicingMSA/LA_1076/IMG_11_1076.jpg","null","","","","","","5","","","","","",""
"dot matrix survey1","survey","137","824055","0.0-137.0","","656776a7904ae00d6b91d1dd","6568b3cbc252fd9132981d88","2","","","","","","","","","","","","12539","","{""P0_Q0"":null,""P0_Q1"":{""wealthy"":1,""safe"":2,""walkable"":2,""traditional"":3,""diverse"":3}}","","","","","","5","[]","","","","",""
"dot matrix survey2","survey","138","840614","0.0-138.0","","656776a7904ae00d6b91d1dd","6568b3cbc252fd9132981d88","2","","","","","","","","","","","","16554","","{""P0_Q0"":null,""P0_Q1"":{""violence"":2,""crime"":1,""drug"":2,""schools"":2,""opportunities"":1}}","","","","","","5","[]","","","","",""
"dot matrix survey3","survey","139","859744","0.0-139.0","","656776a7904ae00d6b91d1dd","6568b3cbc252fd9132981d88","2","","","","","","","","","","","","19122","","{""P0_Q0"":null,""P0_Q1"":{""movein"":1,""moveout"":3,""shopping"":2,""walk"":0,""park"":1,""school"":1}}","","","","","","5","[]","","","","",""
"sliderTrial","html-slider-response","140","864088","0.0-140.0","","656776a7904ae00d6b91d1dd","6568b3cbc252fd9132981d88","2","","","","","","","","","","","","4343","[""SV_PolicingMSA/LA_1076/IMG_5_1076.jpg"",""SV_PolicingMSA/LA_1076/IMG_8_1076.jpg"",""SV_PolicingMSA/LA_1076/IMG_14_1076.jpg"",""SV_PolicingMSA/LA_1076/IMG_12_1076.jpg"",""SV_PolicingMSA/LA_1076/IMG_4_1076.jpg"",""SV_PolicingMSA/LA_1076/IMG_3_1076.jpg"",""SV_PolicingMSA/LA_1076/IMG_6_1076.jpg"",""SV_PolicingMSA/LA_1076/IMG_11_1076.jpg""]","5","","","","","","5","","4","[""./rc_img/cop_condGroup_20_SafeStreets_autoscaled.png"",""./rc_img/cop_condGroup_20_CommunitySafety_autoscaled.png""]","","3",""
"sliderTrial","html-slider-response","141","866664","0.0-141.0","","656776a7904ae00d6b91d1dd","6568b3cbc252fd9132981d88","2","","","","","","","","","","","","2574","[""SV_PolicingMSA/LA_1076/IMG_5_1076.jpg"",""SV_PolicingMSA/LA_1076/IMG_8_1076.jpg"",""SV_PolicingMSA/LA_1076/IMG_14_1076.jpg"",""SV_PolicingMSA/LA_1076/IMG_12_1076.jpg"",""SV_PolicingMSA/LA_1076/IMG_4_1076.jpg"",""SV_PolicingMSA/LA_1076/IMG_3_1076.jpg"",""SV_PolicingMSA/LA_1076/IMG_6_1076.jpg"",""SV_PolicingMSA/LA_1076/IMG_11_1076.jpg""]","5","","","","","","5","","4","[""./rc_img/cop_condGroup_8_SafeStreets_autoscaled.png"",""./rc_img/cop_condGroup_8_CommunitySafety_autoscaled.png""]","","3",""
"sliderTrial","html-slider-response","142","869104","0.0-142.0","","656776a7904ae00d6b91d1dd","6568b3cbc252fd9132981d88","2","","","","","","","","","","","","2438","[""SV_PolicingMSA/LA_1076/IMG_5_1076.jpg"",""SV_PolicingMSA/LA_1076/IMG_8_1076.jpg"",""SV_PolicingMSA/LA_1076/IMG_14_1076.jpg"",""SV_PolicingMSA/LA_1076/IMG_12_1076.jpg"",""SV_PolicingMSA/LA_1076/IMG_4_1076.jpg"",""SV_PolicingMSA/LA_1076/IMG_3_1076.jpg"",""SV_PolicingMSA/LA_1076/IMG_6_1076.jpg"",""SV_PolicingMSA/LA_1076/IMG_11_1076.jpg""]","3","","","","","","5","","4","[""./rc_img/cop_condGroup_18_CommunitySafety_autoscaled.png"",""./rc_img/cop_condGroup_18_SafeStreets_autoscaled.png""]","","3",""
"sliderTrial","html-slider-response","143","871632","0.0-143.0","","656776a7904ae00d6b91d1dd","6568b3cbc252fd9132981d88","2","","","","","","","","","","","","2527","[""SV_PolicingMSA/LA_1076/IMG_5_1076.jpg"",""SV_PolicingMSA/LA_1076/IMG_8_1076.jpg"",""SV_PolicingMSA/LA_1076/IMG_14_1076.jpg"",""SV_PolicingMSA/LA_1076/IMG_12_1076.jpg"",""SV_PolicingMSA/LA_1076/IMG_4_1076.jpg"",""SV_PolicingMSA/LA_1076/IMG_3_1076.jpg"",""SV_PolicingMSA/LA_1076/IMG_6_1076.jpg"",""SV_PolicingMSA/LA_1076/IMG_11_1076.jpg""]","3","","","","","","5","","4","[""./rc_img/cop_condGroup_16_CommunitySafety_autoscaled.png"",""./rc_img/cop_condGroup_16_SafeStreets_autoscaled.png""]","","3",""
"sliderTrial","html-slider-response","144","874760","0.0-144.0","","656776a7904ae00d6b91d1dd","6568b3cbc252fd9132981d88","2","","","","","","","","","","","","3126","[""SV_PolicingMSA/LA_1076/IMG_5_1076.jpg"",""SV_PolicingMSA/LA_1076/IMG_8_1076.jpg"",""SV_PolicingMSA/LA_1076/IMG_14_1076.jpg"",""SV_PolicingMSA/LA_1076/IMG_12_1076.jpg"",""SV_PolicingMSA/LA_1076/IMG_4_1076.jpg"",""SV_PolicingMSA/LA_1076/IMG_3_1076.jpg"",""SV_PolicingMSA/LA_1076/IMG_6_1076.jpg"",""SV_PolicingMSA/LA_1076/IMG_11_1076.jpg""]","5","","","","","","5","","4","[""./rc_img/cop_condGroup_7_CommunitySafety_autoscaled.png"",""./rc_img/cop_condGroup_7_SafeStreets_autoscaled.png""]","","5",""
"demographics","survey-html-form","145","893641","0.0-145.0","","656776a7904ae00d6b91d1dd","6568b3cbc252fd9132981d88","2","","","","","","","","","","","","18879","","{""age"":""56"",""sex"":""female"",""gender"":""woman"",""gender-self-describe"":"""",""zipcode"":""30052""}","","","","","","","","","","","",""
"demographics-list","survey","146","909160","0.0-146.0","","656776a7904ae00d6b91d1dd","6568b3cbc252fd9132981d88","2","","","","","","","","","","","","15490","","{""P0_Q0"":null,""race-ethnicity"":[""White or of European ancestry""],""education"":""Bachelor’s degree"",""P1_Q0"":null,""ideology"":""Conservative"",""P2_Q0"":null,""num-moves"":0,""P3_Q0"":null,""social-ladder"":7}","","","","","","","[]","","","","",""
"end-survey","survey-text","147","912600","0.0-147.0","","656776a7904ae00d6b91d1dd","6568b3cbc252fd9132981d88","2","","","","","","","","","","","","3366","","{""Q0"":""""}","","","","","","","","","","","","2"
"end-survey","html-button-response","148","914264","0.0-148.0","","656776a7904ae00d6b91d1dd","6568b3cbc252fd9132981d88","2","","","","","","","","","","","","1662","
    You've reached the end of the survey. <br><br> 
    <b>Do not close or refresh this window.</b><br>
    On the next page, you will be automatically redirected to Prolific. <br><br>

    <div class=""alert alert-warning""><b>
    </div>
","0","","","","","","","","","","","",""
