"task","trial_type","trial_index","time_elapsed","internal_node_id","subject_id","study_id","session_id","section","width","height","webaudio","browser","browser_version","mobile","os","fullscreen","vsync_rate","webcam","microphone","rt","stimulus","response","success","timeout","failed_images","failed_audio","failed_video","block","accuracy","slider_start","choices","standardized_response","correct","num_attention_checks_correct"
"pavlovia-init","pavlovia","0","760","0.0-0.0","","656776a7904ae00d6b91d1dd","6568add7902e315cc5b50278","12","","","","","","","","","","","","","","","","","","","","","","","","","",""
"browser-check","browser-check","1","1765","0.0-1.0","","656776a7904ae00d6b91d1dd","6568add7902e315cc5b50278","12","1745","839","true","chrome","119.0.0","false","Windows 10","true","60.04","false","true","","","","","","","","","","","","","","",""
"consent","html-button-response","2","7706","0.0-2.0","","656776a7904ae00d6b91d1dd","6568add7902e315cc5b50278","12","","","","","","","","","","","","5940","
        <div style=""font-size: 80%; max-width:700px"">
            <h2>CONSENT FORM</h2>
        
            <div style=""text-align: left"">
            <h4>DESCRIPTION</h4>
            <p>
            You will complete a short task where you give your impressions of various neighborhoods and assign individuals to those spaces, and answer some questions about your thoughts and opinions.<br>
            The University of Michigan Institutional Review Board Health Sciences and Behavioral Sciences has determined that this study is exempt from IRB oversight.
            </p>

            <h4>TIME INVOLVEMENT</h4>
            <p>Your participation will take approximately 15 minutes. You will receive $3.15 upon completion of the study.</p>
        
            <h4>RISKS AND BENEFITS</h4>
            <p>
            The risks associated with this study are minimal. The benefits which may reasonably be expected to result from this study are none. We cannot and do not guarantee or promise that you will receive any benefits from this study.
            </p>
          
            <h4>SUBJECT'S RIGHTS</h4>
            <p>
            If you have read this form and have decided to participate in this project, please understand your participation is voluntary and you have the right to withdraw your consent or discontinue participation at any time without penalty or loss of benefits to which you are otherwise entitled. The alternative is not to participate. You have the right to refuse to answer particular questions. Your individual privacy will be maintained in all published and written data resulting from the study.
            </p>

            <h4>HUMAN SUBJECT APPROVAL</h4>
            <p>
            This study is exempt from ongoing IRB review.
            </p>

            <h4>CONTACT INFORMATION</h4>
            If you have any questions, concerns or complaints about this research, its procedures, risks and benefits, contact the Protocol Director, Nicholas Camp, npcamp@umich.edu, (443) 851-6783. <br>

            If you have questions about your rights as a research participant, or wish to obtain information, ask questions or discuss any concerns about this study with someone other than the researcher(s), please contact the following:<br><br>
            University of Michigan<br>
            Health Sciences and Behavioral Sciences Institutional Review Board (IRB-HSBS)<br>
            2800 Plymouth Road<br>
            Building 520, Room 1169Ann Arbor, MI 48109-2800<br>
            Telephone: 734-936-0933 or toll free (866) 936-0933<br>
            Fax: 734-936-1852<br>
            E-mail: irbhsbs@umich.edu<br><br>

            You can also contact the University of Michigan Compliance Hotline at 1-866-990-0111. You may also print this consent form to keep.
            <br><br>
            <div class=""alert alert-warning""><b>
            Do you consent to participate in this study? If you consent to participate in this study, please click “Accept and Continue”. If you select ""Decline and Exit"", you will be exited from the survey. <br>
            </b></div>
            </div>
        </div>
    ","1","","","","","","","","","","","",""
"","preload","3","34374","0.0-3.0","","656776a7904ae00d6b91d1dd","6568add7902e315cc5b50278","12","","","","","","","","","","","","","","","true","false","[]","[]","[]","","","","","","",""
"instructions","html-button-response","4","42289","0.0-4.0","","656776a7904ae00d6b91d1dd","6568add7902e315cc5b50278","12","","","","","","","","","","","","7915","
        <div class=""text-container"">
        <h1>Welcome to the study!</h1>
        
        <div class=""text-left"">
            <p>
                In this study, we are interested in what people can tell about spaces from Google Street View images. <br> Google Street View takes pictures of streets used for Google Earth and Google Maps. <br>You’ll see Google Street View images of different places and answer some questions about each one.<br>
            </p>
        </div>
        <img src = ""assets/img/example.png"" width = 500px, height = auto>
        <br>
    <br>
    ","0","","","","","","","","","","","",""
"instructions","html-button-response","5","44722","0.0-5.0","","656776a7904ae00d6b91d1dd","6568add7902e315cc5b50278","12","","","","","","","","","","","","2432","
    <div class=""text-container"">
        <div class=""text-center"">
            <p>Please remember that your answers are completely anonymous.<br>Go with your gut response- there are no right or wrong answers!</p>
        </div>
    <br>
","0","","","","","","","","","","","",""
"before_SVSlide_prompt","html-button-response","6","46369","0.0-6.0","","656776a7904ae00d6b91d1dd","6568add7902e315cc5b50278","12","","","","","","","","","","","","1647","Click [Next] to see the next neighborhood!","0","","","","","","","","","","","",""
"street view slide show","image-button-response","7","47379","0.0-7.0","","656776a7904ae00d6b91d1dd","6568add7902e315cc5b50278","12","","","","","","","","","","","","null","stimulus/SV_PolicingMSA/NJ_21/IMG_5_21.jpg","null","","","","","","0","","","","","",""
"street view slide show","image-button-response","8","48394","0.0-8.0","","656776a7904ae00d6b91d1dd","6568add7902e315cc5b50278","12","","","","","","","","","","","","null","stimulus/SV_PolicingMSA/NJ_21/IMG_10_21.jpg","null","","","","","","0","","","","","",""
"street view slide show","image-button-response","9","49397","0.0-9.0","","656776a7904ae00d6b91d1dd","6568add7902e315cc5b50278","12","","","","","","","","","","","","null","stimulus/SV_PolicingMSA/NJ_21/IMG_2_21.jpg","null","","","","","","0","","","","","",""
"street view slide show","image-button-response","10","50406","0.0-10.0","","656776a7904ae00d6b91d1dd","6568add7902e315cc5b50278","12","","","","","","","","","","","","null","stimulus/SV_PolicingMSA/NJ_21/IMG_11_21.jpg","null","","","","","","0","","","","","",""
"street view slide show","image-button-response","11","51417","0.0-11.0","","656776a7904ae00d6b91d1dd","6568add7902e315cc5b50278","12","","","","","","","","","","","","null","stimulus/SV_PolicingMSA/NJ_21/IMG_1_21.jpg","null","","","","","","0","","","","","",""
"street view slide show","image-button-response","12","52426","0.0-12.0","","656776a7904ae00d6b91d1dd","6568add7902e315cc5b50278","12","","","","","","","","","","","","null","stimulus/SV_PolicingMSA/NJ_21/IMG_7_21.jpg","null","","","","","","0","","","","","",""
"street view slide show","image-button-response","13","53443","0.0-13.0","","656776a7904ae00d6b91d1dd","6568add7902e315cc5b50278","12","","","","","","","","","","","","null","stimulus/SV_PolicingMSA/NJ_21/IMG_0_21.jpg","null","","","","","","0","","","","","",""
"street view slide show","image-button-response","14","54456","0.0-14.0","","656776a7904ae00d6b91d1dd","6568add7902e315cc5b50278","12","","","","","","","","","","","","null","stimulus/SV_PolicingMSA/NJ_21/IMG_4_21.jpg","null","","","","","","0","","","","","",""
"dot matrix survey1","survey","15","81355","0.0-15.0","","656776a7904ae00d6b91d1dd","6568add7902e315cc5b50278","12","","","","","","","","","","","","26859","","{""P0_Q0"":null,""P0_Q1"":{""wealthy"":0,""safe"":1,""walkable"":2,""traditional"":2,""diverse"":2}}","","","","","","0","[]","","","","",""
"dot matrix survey2","survey","16","104646","0.0-16.0","","656776a7904ae00d6b91d1dd","6568add7902e315cc5b50278","12","","","","","","","","","","","","23281","","{""P0_Q0"":null,""P0_Q1"":{""violence"":2,""crime"":2,""drug"":3,""schools"":2,""opportunities"":1}}","","","","","","0","[]","","","","",""
"dot matrix survey3","survey","17","144418","0.0-17.0","","656776a7904ae00d6b91d1dd","6568add7902e315cc5b50278","12","","","","","","","","","","","","39766","","{""P0_Q0"":null,""P0_Q1"":{""movein"":1,""moveout"":2,""shopping"":2,""walk"":2,""park"":2,""school"":2}}","","","","","","0","[]","","","","",""
"sliderTrial","html-slider-response","18","154361","0.0-18.0","","656776a7904ae00d6b91d1dd","6568add7902e315cc5b50278","12","","","","","","","","","","","","9942","[""SV_PolicingMSA/NJ_21/IMG_5_21.jpg"",""SV_PolicingMSA/NJ_21/IMG_10_21.jpg"",""SV_PolicingMSA/NJ_21/IMG_2_21.jpg"",""SV_PolicingMSA/NJ_21/IMG_11_21.jpg"",""SV_PolicingMSA/NJ_21/IMG_1_21.jpg"",""SV_PolicingMSA/NJ_21/IMG_7_21.jpg"",""SV_PolicingMSA/NJ_21/IMG_0_21.jpg"",""SV_PolicingMSA/NJ_21/IMG_4_21.jpg""]","4","","","","","","0","","4","[""./rc_img/cop_condGroup_16_SafeStreets_autoscaled.png"",""./rc_img/cop_condGroup_16_CommunitySafety_autoscaled.png""]","4","",""
"sliderTrial","html-slider-response","19","164722","0.0-19.0","","656776a7904ae00d6b91d1dd","6568add7902e315cc5b50278","12","","","","","","","","","","","","10359","[""SV_PolicingMSA/NJ_21/IMG_5_21.jpg"",""SV_PolicingMSA/NJ_21/IMG_10_21.jpg"",""SV_PolicingMSA/NJ_21/IMG_2_21.jpg"",""SV_PolicingMSA/NJ_21/IMG_11_21.jpg"",""SV_PolicingMSA/NJ_21/IMG_1_21.jpg"",""SV_PolicingMSA/NJ_21/IMG_7_21.jpg"",""SV_PolicingMSA/NJ_21/IMG_0_21.jpg"",""SV_PolicingMSA/NJ_21/IMG_4_21.jpg""]","4","","","","","","0","","4","[""./rc_img/cop_condGroup_15_CommunitySafety_autoscaled.png"",""./rc_img/cop_condGroup_15_SafeStreets_autoscaled.png""]","4","",""
"sliderTrial_attention","html-slider-response","20","174736","0.0-20.0","","656776a7904ae00d6b91d1dd","6568add7902e315cc5b50278","12","","","","","","","","","","","","null","[""SV_PolicingMSA/NJ_21/IMG_5_21.jpg"",""SV_PolicingMSA/NJ_21/IMG_10_21.jpg"",""SV_PolicingMSA/NJ_21/IMG_2_21.jpg"",""SV_PolicingMSA/NJ_21/IMG_11_21.jpg"",""SV_PolicingMSA/NJ_21/IMG_1_21.jpg"",""SV_PolicingMSA/NJ_21/IMG_7_21.jpg"",""SV_PolicingMSA/NJ_21/IMG_0_21.jpg"",""SV_PolicingMSA/NJ_21/IMG_4_21.jpg""]","null","","","","","","0","","4","[""./assets/img/attnchk.png"",""./assets/img/attnchk.png""]","","true",""
"sliderTrial","html-slider-response","21","180608","0.0-21.0","","656776a7904ae00d6b91d1dd","6568add7902e315cc5b50278","12","","","","","","","","","","","","5871","[""SV_PolicingMSA/NJ_21/IMG_5_21.jpg"",""SV_PolicingMSA/NJ_21/IMG_10_21.jpg"",""SV_PolicingMSA/NJ_21/IMG_2_21.jpg"",""SV_PolicingMSA/NJ_21/IMG_11_21.jpg"",""SV_PolicingMSA/NJ_21/IMG_1_21.jpg"",""SV_PolicingMSA/NJ_21/IMG_7_21.jpg"",""SV_PolicingMSA/NJ_21/IMG_0_21.jpg"",""SV_PolicingMSA/NJ_21/IMG_4_21.jpg""]","5","","","","","","0","","4","[""./rc_img/cop_condGroup_5_SafeStreets_autoscaled.png"",""./rc_img/cop_condGroup_5_CommunitySafety_autoscaled.png""]","3","",""
"sliderTrial","html-slider-response","22","184529","0.0-22.0","","656776a7904ae00d6b91d1dd","6568add7902e315cc5b50278","12","","","","","","","","","","","","3919","[""SV_PolicingMSA/NJ_21/IMG_5_21.jpg"",""SV_PolicingMSA/NJ_21/IMG_10_21.jpg"",""SV_PolicingMSA/NJ_21/IMG_2_21.jpg"",""SV_PolicingMSA/NJ_21/IMG_11_21.jpg"",""SV_PolicingMSA/NJ_21/IMG_1_21.jpg"",""SV_PolicingMSA/NJ_21/IMG_7_21.jpg"",""SV_PolicingMSA/NJ_21/IMG_0_21.jpg"",""SV_PolicingMSA/NJ_21/IMG_4_21.jpg""]","5","","","","","","0","","4","[""./rc_img/cop_condGroup_19_SafeStreets_autoscaled.png"",""./rc_img/cop_condGroup_19_CommunitySafety_autoscaled.png""]","3","",""
"sliderTrial","html-slider-response","23","188329","0.0-23.0","","656776a7904ae00d6b91d1dd","6568add7902e315cc5b50278","12","","","","","","","","","","","","3799","[""SV_PolicingMSA/NJ_21/IMG_5_21.jpg"",""SV_PolicingMSA/NJ_21/IMG_10_21.jpg"",""SV_PolicingMSA/NJ_21/IMG_2_21.jpg"",""SV_PolicingMSA/NJ_21/IMG_11_21.jpg"",""SV_PolicingMSA/NJ_21/IMG_1_21.jpg"",""SV_PolicingMSA/NJ_21/IMG_7_21.jpg"",""SV_PolicingMSA/NJ_21/IMG_0_21.jpg"",""SV_PolicingMSA/NJ_21/IMG_4_21.jpg""]","5","","","","","","0","","4","[""./rc_img/cop_condGroup_20_SafeStreets_autoscaled.png"",""./rc_img/cop_condGroup_20_CommunitySafety_autoscaled.png""]","3","",""
"before_SVSlide_prompt","html-button-response","24","190361","0.0-24.0","","656776a7904ae00d6b91d1dd","6568add7902e315cc5b50278","12","","","","","","","","","","","","2031","Click [Next] to see the next neighborhood!","0","","","","","","","","","","","",""
"street view slide show","image-button-response","25","191364","0.0-25.0","","656776a7904ae00d6b91d1dd","6568add7902e315cc5b50278","12","","","","","","","","","","","","null","stimulus/SV_PolicingMSA/NJ_1050/IMG_9_1050.jpg","null","","","","","","1","","","","","",""
"street view slide show","image-button-response","26","192367","0.0-26.0","","656776a7904ae00d6b91d1dd","6568add7902e315cc5b50278","12","","","","","","","","","","","","null","stimulus/SV_PolicingMSA/NJ_1050/IMG_2_1050.jpg","null","","","","","","1","","","","","",""
"street view slide show","image-button-response","27","193376","0.0-27.0","","656776a7904ae00d6b91d1dd","6568add7902e315cc5b50278","12","","","","","","","","","","","","null","stimulus/SV_PolicingMSA/NJ_1050/IMG_10_1050.jpg","null","","","","","","1","","","","","",""
"street view slide show","image-button-response","28","194390","0.0-28.0","","656776a7904ae00d6b91d1dd","6568add7902e315cc5b50278","12","","","","","","","","","","","","null","stimulus/SV_PolicingMSA/NJ_1050/IMG_12_1050.jpg","null","","","","","","1","","","","","",""
"street view slide show","image-button-response","29","195406","0.0-29.0","","656776a7904ae00d6b91d1dd","6568add7902e315cc5b50278","12","","","","","","","","","","","","null","stimulus/SV_PolicingMSA/NJ_1050/IMG_14_1050.jpg","null","","","","","","1","","","","","",""
"street view slide show","image-button-response","30","196409","0.0-30.0","","656776a7904ae00d6b91d1dd","6568add7902e315cc5b50278","12","","","","","","","","","","","","null","stimulus/SV_PolicingMSA/NJ_1050/IMG_1_1050.jpg","null","","","","","","1","","","","","",""
"street view slide show","image-button-response","31","197422","0.0-31.0","","656776a7904ae00d6b91d1dd","6568add7902e315cc5b50278","12","","","","","","","","","","","","null","stimulus/SV_PolicingMSA/NJ_1050/IMG_3_1050.jpg","null","","","","","","1","","","","","",""
"street view slide show","image-button-response","32","198423","0.0-32.0","","656776a7904ae00d6b91d1dd","6568add7902e315cc5b50278","12","","","","","","","","","","","","null","stimulus/SV_PolicingMSA/NJ_1050/IMG_7_1050.jpg","null","","","","","","1","","","","","",""
"dot matrix survey1","survey","33","225856","0.0-33.0","","656776a7904ae00d6b91d1dd","6568add7902e315cc5b50278","12","","","","","","","","","","","","27425","","{""P0_Q0"":null,""P0_Q1"":{""wealthy"":1,""safe"":2,""walkable"":3,""traditional"":2,""diverse"":2}}","","","","","","1","[]","","","","",""
"dot matrix survey2","survey","34","250306","0.0-34.0","","656776a7904ae00d6b91d1dd","6568add7902e315cc5b50278","12","","","","","","","","","","","","24444","","{""P0_Q0"":null,""P0_Q1"":{""violence"":2,""crime"":2,""drug"":2,""schools"":2,""opportunities"":2}}","","","","","","1","[]","","","","",""
"dot matrix survey3","survey","35","280784","0.0-35.0","","656776a7904ae00d6b91d1dd","6568add7902e315cc5b50278","12","","","","","","","","","","","","30471","","{""P0_Q0"":null,""P0_Q1"":{""movein"":2,""moveout"":2,""shopping"":3,""walk"":2,""park"":2,""school"":3}}","","","","","","1","[]","","","","",""
"sliderTrial","html-slider-response","36","290297","0.0-36.0","","656776a7904ae00d6b91d1dd","6568add7902e315cc5b50278","12","","","","","","","","","","","","9511","[""SV_PolicingMSA/NJ_1050/IMG_9_1050.jpg"",""SV_PolicingMSA/NJ_1050/IMG_2_1050.jpg"",""SV_PolicingMSA/NJ_1050/IMG_10_1050.jpg"",""SV_PolicingMSA/NJ_1050/IMG_12_1050.jpg"",""SV_PolicingMSA/NJ_1050/IMG_14_1050.jpg"",""SV_PolicingMSA/NJ_1050/IMG_1_1050.jpg"",""SV_PolicingMSA/NJ_1050/IMG_3_1050.jpg"",""SV_PolicingMSA/NJ_1050/IMG_7_1050.jpg""]","4","","","","","","1","","4","[""./rc_img/cop_condGroup_18_SafeStreets_autoscaled.png"",""./rc_img/cop_condGroup_18_CommunitySafety_autoscaled.png""]","4","",""
"sliderTrial_attention","html-slider-response","37","300307","0.0-37.0","","656776a7904ae00d6b91d1dd","6568add7902e315cc5b50278","12","","","","","","","","","","","","null","[""SV_PolicingMSA/NJ_1050/IMG_9_1050.jpg"",""SV_PolicingMSA/NJ_1050/IMG_2_1050.jpg"",""SV_PolicingMSA/NJ_1050/IMG_10_1050.jpg"",""SV_PolicingMSA/NJ_1050/IMG_12_1050.jpg"",""SV_PolicingMSA/NJ_1050/IMG_14_1050.jpg"",""SV_PolicingMSA/NJ_1050/IMG_1_1050.jpg"",""SV_PolicingMSA/NJ_1050/IMG_3_1050.jpg"",""SV_PolicingMSA/NJ_1050/IMG_7_1050.jpg""]","null","","","","","","1","","4","[""./assets/img/attnchk.png"",""./assets/img/attnchk.png""]","","true",""
"sliderTrial","html-slider-response","38","304361","0.0-38.0","","656776a7904ae00d6b91d1dd","6568add7902e315cc5b50278","12","","","","","","","","","","","","4053","[""SV_PolicingMSA/NJ_1050/IMG_9_1050.jpg"",""SV_PolicingMSA/NJ_1050/IMG_2_1050.jpg"",""SV_PolicingMSA/NJ_1050/IMG_10_1050.jpg"",""SV_PolicingMSA/NJ_1050/IMG_12_1050.jpg"",""SV_PolicingMSA/NJ_1050/IMG_14_1050.jpg"",""SV_PolicingMSA/NJ_1050/IMG_1_1050.jpg"",""SV_PolicingMSA/NJ_1050/IMG_3_1050.jpg"",""SV_PolicingMSA/NJ_1050/IMG_7_1050.jpg""]","3","","","","","","1","","4","[""./rc_img/cop_condGroup_4_CommunitySafety_autoscaled.png"",""./rc_img/cop_condGroup_4_SafeStreets_autoscaled.png""]","3","",""
"sliderTrial","html-slider-response","39","310281","0.0-39.0","","656776a7904ae00d6b91d1dd","6568add7902e315cc5b50278","12","","","","","","","","","","","","5919","[""SV_PolicingMSA/NJ_1050/IMG_9_1050.jpg"",""SV_PolicingMSA/NJ_1050/IMG_2_1050.jpg"",""SV_PolicingMSA/NJ_1050/IMG_10_1050.jpg"",""SV_PolicingMSA/NJ_1050/IMG_12_1050.jpg"",""SV_PolicingMSA/NJ_1050/IMG_14_1050.jpg"",""SV_PolicingMSA/NJ_1050/IMG_1_1050.jpg"",""SV_PolicingMSA/NJ_1050/IMG_3_1050.jpg"",""SV_PolicingMSA/NJ_1050/IMG_7_1050.jpg""]","4","","","","","","1","","4","[""./rc_img/cop_condGroup_10_SafeStreets_autoscaled.png"",""./rc_img/cop_condGroup_10_CommunitySafety_autoscaled.png""]","4","",""
"sliderTrial","html-slider-response","40","313793","0.0-40.0","","656776a7904ae00d6b91d1dd","6568add7902e315cc5b50278","12","","","","","","","","","","","","3511","[""SV_PolicingMSA/NJ_1050/IMG_9_1050.jpg"",""SV_PolicingMSA/NJ_1050/IMG_2_1050.jpg"",""SV_PolicingMSA/NJ_1050/IMG_10_1050.jpg"",""SV_PolicingMSA/NJ_1050/IMG_12_1050.jpg"",""SV_PolicingMSA/NJ_1050/IMG_14_1050.jpg"",""SV_PolicingMSA/NJ_1050/IMG_1_1050.jpg"",""SV_PolicingMSA/NJ_1050/IMG_3_1050.jpg"",""SV_PolicingMSA/NJ_1050/IMG_7_1050.jpg""]","3","","","","","","1","","4","[""./rc_img/cop_condGroup_3_CommunitySafety_autoscaled.png"",""./rc_img/cop_condGroup_3_SafeStreets_autoscaled.png""]","3","",""
"sliderTrial","html-slider-response","41","319265","0.0-41.0","","656776a7904ae00d6b91d1dd","6568add7902e315cc5b50278","12","","","","","","","","","","","","5471","[""SV_PolicingMSA/NJ_1050/IMG_9_1050.jpg"",""SV_PolicingMSA/NJ_1050/IMG_2_1050.jpg"",""SV_PolicingMSA/NJ_1050/IMG_10_1050.jpg"",""SV_PolicingMSA/NJ_1050/IMG_12_1050.jpg"",""SV_PolicingMSA/NJ_1050/IMG_14_1050.jpg"",""SV_PolicingMSA/NJ_1050/IMG_1_1050.jpg"",""SV_PolicingMSA/NJ_1050/IMG_3_1050.jpg"",""SV_PolicingMSA/NJ_1050/IMG_7_1050.jpg""]","4","","","","","","1","","4","[""./rc_img/cop_condGroup_9_CommunitySafety_autoscaled.png"",""./rc_img/cop_condGroup_9_SafeStreets_autoscaled.png""]","4","",""
"before_SVSlide_prompt","html-button-response","42","322162","0.0-42.0","","656776a7904ae00d6b91d1dd","6568add7902e315cc5b50278","12","","","","","","","","","","","","2895","Click [Next] to see the next neighborhood!","0","","","","","","","","","","","",""
"street view slide show","image-button-response","43","323175","0.0-43.0","","656776a7904ae00d6b91d1dd","6568add7902e315cc5b50278","12","","","","","","","","","","","","null","stimulus/SV_PolicingMSA/NJ_500/IMG_8_500.jpg","null","","","","","","2","","","","","",""
"street view slide show","image-button-response","44","324178","0.0-44.0","","656776a7904ae00d6b91d1dd","6568add7902e315cc5b50278","12","","","","","","","","","","","","null","stimulus/SV_PolicingMSA/NJ_500/IMG_14_500.jpg","null","","","","","","2","","","","","",""
"street view slide show","image-button-response","45","325186","0.0-45.0","","656776a7904ae00d6b91d1dd","6568add7902e315cc5b50278","12","","","","","","","","","","","","null","stimulus/SV_PolicingMSA/NJ_500/IMG_4_500.jpg","null","","","","","","2","","","","","",""
"street view slide show","image-button-response","46","326202","0.0-46.0","","656776a7904ae00d6b91d1dd","6568add7902e315cc5b50278","12","","","","","","","","","","","","null","stimulus/SV_PolicingMSA/NJ_500/IMG_10_500.jpg","null","","","","","","2","","","","","",""
"street view slide show","image-button-response","47","327209","0.0-47.0","","656776a7904ae00d6b91d1dd","6568add7902e315cc5b50278","12","","","","","","","","","","","","null","stimulus/SV_PolicingMSA/NJ_500/IMG_0_500.jpg","null","","","","","","2","","","","","",""
"street view slide show","image-button-response","48","328223","0.0-48.0","","656776a7904ae00d6b91d1dd","6568add7902e315cc5b50278","12","","","","","","","","","","","","null","stimulus/SV_PolicingMSA/NJ_500/IMG_12_500.jpg","null","","","","","","2","","","","","",""
"street view slide show","image-button-response","49","329239","0.0-49.0","","656776a7904ae00d6b91d1dd","6568add7902e315cc5b50278","12","","","","","","","","","","","","null","stimulus/SV_PolicingMSA/NJ_500/IMG_7_500.jpg","null","","","","","","2","","","","","",""
"street view slide show","image-button-response","50","330241","0.0-50.0","","656776a7904ae00d6b91d1dd","6568add7902e315cc5b50278","12","","","","","","","","","","","","null","stimulus/SV_PolicingMSA/NJ_500/IMG_11_500.jpg","null","","","","","","2","","","","","",""
"dot matrix survey1","survey","51","345952","0.0-51.0","","656776a7904ae00d6b91d1dd","6568add7902e315cc5b50278","12","","","","","","","","","","","","15701","","{""P0_Q0"":null,""P0_Q1"":{""wealthy"":1,""safe"":2,""walkable"":3,""traditional"":3,""diverse"":2}}","","","","","","2","[]","","","","",""
"dot matrix survey2","survey","52","367944","0.0-52.0","","656776a7904ae00d6b91d1dd","6568add7902e315cc5b50278","12","","","","","","","","","","","","21986","","{""P0_Q0"":null,""P0_Q1"":{""violence"":2,""crime"":2,""drug"":1,""schools"":2,""opportunities"":2}}","","","","","","2","[]","","","","",""
"dot matrix survey3","survey","53","387561","0.0-53.0","","656776a7904ae00d6b91d1dd","6568add7902e315cc5b50278","12","","","","","","","","","","","","19608","","{""P0_Q0"":null,""P0_Q1"":{""movein"":2,""moveout"":2,""shopping"":3,""walk"":3,""park"":2,""school"":3}}","","","","","","2","[]","","","","",""
"sliderTrial","html-slider-response","54","392769","0.0-54.0","","656776a7904ae00d6b91d1dd","6568add7902e315cc5b50278","12","","","","","","","","","","","","5208","[""SV_PolicingMSA/NJ_500/IMG_8_500.jpg"",""SV_PolicingMSA/NJ_500/IMG_14_500.jpg"",""SV_PolicingMSA/NJ_500/IMG_4_500.jpg"",""SV_PolicingMSA/NJ_500/IMG_10_500.jpg"",""SV_PolicingMSA/NJ_500/IMG_0_500.jpg"",""SV_PolicingMSA/NJ_500/IMG_12_500.jpg"",""SV_PolicingMSA/NJ_500/IMG_7_500.jpg"",""SV_PolicingMSA/NJ_500/IMG_11_500.jpg""]","4","","","","","","2","","4","[""./rc_img/cop_condGroup_13_CommunitySafety_autoscaled.png"",""./rc_img/cop_condGroup_13_SafeStreets_autoscaled.png""]","4","",""
"sliderTrial","html-slider-response","55","396289","0.0-55.0","","656776a7904ae00d6b91d1dd","6568add7902e315cc5b50278","12","","","","","","","","","","","","3519","[""SV_PolicingMSA/NJ_500/IMG_8_500.jpg"",""SV_PolicingMSA/NJ_500/IMG_14_500.jpg"",""SV_PolicingMSA/NJ_500/IMG_4_500.jpg"",""SV_PolicingMSA/NJ_500/IMG_10_500.jpg"",""SV_PolicingMSA/NJ_500/IMG_0_500.jpg"",""SV_PolicingMSA/NJ_500/IMG_12_500.jpg"",""SV_PolicingMSA/NJ_500/IMG_7_500.jpg"",""SV_PolicingMSA/NJ_500/IMG_11_500.jpg""]","4","","","","","","2","","4","[""./rc_img/cop_condGroup_12_SafeStreets_autoscaled.png"",""./rc_img/cop_condGroup_12_CommunitySafety_autoscaled.png""]","4","",""
"sliderTrial","html-slider-response","56","400569","0.0-56.0","","656776a7904ae00d6b91d1dd","6568add7902e315cc5b50278","12","","","","","","","","","","","","4279","[""SV_PolicingMSA/NJ_500/IMG_8_500.jpg"",""SV_PolicingMSA/NJ_500/IMG_14_500.jpg"",""SV_PolicingMSA/NJ_500/IMG_4_500.jpg"",""SV_PolicingMSA/NJ_500/IMG_10_500.jpg"",""SV_PolicingMSA/NJ_500/IMG_0_500.jpg"",""SV_PolicingMSA/NJ_500/IMG_12_500.jpg"",""SV_PolicingMSA/NJ_500/IMG_7_500.jpg"",""SV_PolicingMSA/NJ_500/IMG_11_500.jpg""]","4","","","","","","2","","4","[""./rc_img/cop_condGroup_6_SafeStreets_autoscaled.png"",""./rc_img/cop_condGroup_6_CommunitySafety_autoscaled.png""]","4","",""
"sliderTrial","html-slider-response","57","404617","0.0-57.0","","656776a7904ae00d6b91d1dd","6568add7902e315cc5b50278","12","","","","","","","","","","","","4047","[""SV_PolicingMSA/NJ_500/IMG_8_500.jpg"",""SV_PolicingMSA/NJ_500/IMG_14_500.jpg"",""SV_PolicingMSA/NJ_500/IMG_4_500.jpg"",""SV_PolicingMSA/NJ_500/IMG_10_500.jpg"",""SV_PolicingMSA/NJ_500/IMG_0_500.jpg"",""SV_PolicingMSA/NJ_500/IMG_12_500.jpg"",""SV_PolicingMSA/NJ_500/IMG_7_500.jpg"",""SV_PolicingMSA/NJ_500/IMG_11_500.jpg""]","4","","","","","","2","","4","[""./rc_img/cop_condGroup_11_CommunitySafety_autoscaled.png"",""./rc_img/cop_condGroup_11_SafeStreets_autoscaled.png""]","4","",""
"sliderTrial","html-slider-response","58","408809","0.0-58.0","","656776a7904ae00d6b91d1dd","6568add7902e315cc5b50278","12","","","","","","","","","","","","4190","[""SV_PolicingMSA/NJ_500/IMG_8_500.jpg"",""SV_PolicingMSA/NJ_500/IMG_14_500.jpg"",""SV_PolicingMSA/NJ_500/IMG_4_500.jpg"",""SV_PolicingMSA/NJ_500/IMG_10_500.jpg"",""SV_PolicingMSA/NJ_500/IMG_0_500.jpg"",""SV_PolicingMSA/NJ_500/IMG_12_500.jpg"",""SV_PolicingMSA/NJ_500/IMG_7_500.jpg"",""SV_PolicingMSA/NJ_500/IMG_11_500.jpg""]","4","","","","","","2","","4","[""./rc_img/cop_condGroup_14_SafeStreets_autoscaled.png"",""./rc_img/cop_condGroup_14_CommunitySafety_autoscaled.png""]","4","",""
"before_SVSlide_prompt","html-button-response","59","415217","0.0-59.0","","656776a7904ae00d6b91d1dd","6568add7902e315cc5b50278","12","","","","","","","","","","","","6407","Click [Next] to see the next neighborhood!","0","","","","","","","","","","","",""
"street view slide show","image-button-response","60","416224","0.0-60.0","","656776a7904ae00d6b91d1dd","6568add7902e315cc5b50278","12","","","","","","","","","","","","null","stimulus/SV_PolicingMSA/NJ_358/IMG_4_358.jpg","null","","","","","","3","","","","","",""
"street view slide show","image-button-response","61","417230","0.0-61.0","","656776a7904ae00d6b91d1dd","6568add7902e315cc5b50278","12","","","","","","","","","","","","null","stimulus/SV_PolicingMSA/NJ_358/IMG_6_358.jpg","null","","","","","","3","","","","","",""
"street view slide show","image-button-response","62","418240","0.0-62.0","","656776a7904ae00d6b91d1dd","6568add7902e315cc5b50278","12","","","","","","","","","","","","null","stimulus/SV_PolicingMSA/NJ_358/IMG_2_358.jpg","null","","","","","","3","","","","","",""
"street view slide show","image-button-response","63","419253","0.0-63.0","","656776a7904ae00d6b91d1dd","6568add7902e315cc5b50278","12","","","","","","","","","","","","null","stimulus/SV_PolicingMSA/NJ_358/IMG_8_358.jpg","null","","","","","","3","","","","","",""
"street view slide show","image-button-response","64","420269","0.0-64.0","","656776a7904ae00d6b91d1dd","6568add7902e315cc5b50278","12","","","","","","","","","","","","null","stimulus/SV_PolicingMSA/NJ_358/IMG_13_358.jpg","null","","","","","","3","","","","","",""
"street view slide show","image-button-response","65","421272","0.0-65.0","","656776a7904ae00d6b91d1dd","6568add7902e315cc5b50278","12","","","","","","","","","","","","null","stimulus/SV_PolicingMSA/NJ_358/IMG_5_358.jpg","null","","","","","","3","","","","","",""
"street view slide show","image-button-response","66","422288","0.0-66.0","","656776a7904ae00d6b91d1dd","6568add7902e315cc5b50278","12","","","","","","","","","","","","null","stimulus/SV_PolicingMSA/NJ_358/IMG_12_358.jpg","null","","","","","","3","","","","","",""
"street view slide show","image-button-response","67","423300","0.0-67.0","","656776a7904ae00d6b91d1dd","6568add7902e315cc5b50278","12","","","","","","","","","","","","null","stimulus/SV_PolicingMSA/NJ_358/IMG_9_358.jpg","null","","","","","","3","","","","","",""
"dot matrix survey1","survey","68","447650","0.0-68.0","","656776a7904ae00d6b91d1dd","6568add7902e315cc5b50278","12","","","","","","","","","","","","24343","","{""P0_Q0"":null,""P0_Q1"":{""wealthy"":3,""safe"":3,""walkable"":1,""traditional"":3}}","","","","","","3","[]","","","","",""
"dot matrix survey2","survey","69","461712","0.0-69.0","","656776a7904ae00d6b91d1dd","6568add7902e315cc5b50278","12","","","","","","","","","","","","14059","","{""P0_Q0"":null,""P0_Q1"":{""violence"":1,""crime"":1,""drug"":2,""schools"":3,""opportunities"":2}}","","","","","","3","[]","","","","",""
"dot matrix survey3","survey","70","481201","0.0-70.0","","656776a7904ae00d6b91d1dd","6568add7902e315cc5b50278","12","","","","","","","","","","","","19484","","{""P0_Q0"":null,""P0_Q1"":{""movein"":2,""moveout"":1,""shopping"":3,""walk"":3,""park"":2,""school"":3}}","","","","","","3","[]","","","","",""
"sliderTrial","html-slider-response","71","485066","0.0-71.0","","656776a7904ae00d6b91d1dd","6568add7902e315cc5b50278","12","","","","","","","","","","","","3863","[""SV_PolicingMSA/NJ_358/IMG_4_358.jpg"",""SV_PolicingMSA/NJ_358/IMG_6_358.jpg"",""SV_PolicingMSA/NJ_358/IMG_2_358.jpg"",""SV_PolicingMSA/NJ_358/IMG_8_358.jpg"",""SV_PolicingMSA/NJ_358/IMG_13_358.jpg"",""SV_PolicingMSA/NJ_358/IMG_5_358.jpg"",""SV_PolicingMSA/NJ_358/IMG_12_358.jpg"",""SV_PolicingMSA/NJ_358/IMG_9_358.jpg""]","4","","","","","","3","","4","[""./rc_img/cop_condGroup_18_SafeStreets_autoscaled.png"",""./rc_img/cop_condGroup_18_CommunitySafety_autoscaled.png""]","4","",""
"sliderTrial","html-slider-response","72","488617","0.0-72.0","","656776a7904ae00d6b91d1dd","6568add7902e315cc5b50278","12","","","","","","","","","","","","3551","[""SV_PolicingMSA/NJ_358/IMG_4_358.jpg"",""SV_PolicingMSA/NJ_358/IMG_6_358.jpg"",""SV_PolicingMSA/NJ_358/IMG_2_358.jpg"",""SV_PolicingMSA/NJ_358/IMG_8_358.jpg"",""SV_PolicingMSA/NJ_358/IMG_13_358.jpg"",""SV_PolicingMSA/NJ_358/IMG_5_358.jpg"",""SV_PolicingMSA/NJ_358/IMG_12_358.jpg"",""SV_PolicingMSA/NJ_358/IMG_9_358.jpg""]","4","","","","","","3","","4","[""./rc_img/cop_condGroup_4_CommunitySafety_autoscaled.png"",""./rc_img/cop_condGroup_4_SafeStreets_autoscaled.png""]","4","",""
"sliderTrial","html-slider-response","73","492314","0.0-73.0","","656776a7904ae00d6b91d1dd","6568add7902e315cc5b50278","12","","","","","","","","","","","","3695","[""SV_PolicingMSA/NJ_358/IMG_4_358.jpg"",""SV_PolicingMSA/NJ_358/IMG_6_358.jpg"",""SV_PolicingMSA/NJ_358/IMG_2_358.jpg"",""SV_PolicingMSA/NJ_358/IMG_8_358.jpg"",""SV_PolicingMSA/NJ_358/IMG_13_358.jpg"",""SV_PolicingMSA/NJ_358/IMG_5_358.jpg"",""SV_PolicingMSA/NJ_358/IMG_12_358.jpg"",""SV_PolicingMSA/NJ_358/IMG_9_358.jpg""]","4","","","","","","3","","4","[""./rc_img/cop_condGroup_10_SafeStreets_autoscaled.png"",""./rc_img/cop_condGroup_10_CommunitySafety_autoscaled.png""]","4","",""
"sliderTrial","html-slider-response","74","496026","0.0-74.0","","656776a7904ae00d6b91d1dd","6568add7902e315cc5b50278","12","","","","","","","","","","","","3711","[""SV_PolicingMSA/NJ_358/IMG_4_358.jpg"",""SV_PolicingMSA/NJ_358/IMG_6_358.jpg"",""SV_PolicingMSA/NJ_358/IMG_2_358.jpg"",""SV_PolicingMSA/NJ_358/IMG_8_358.jpg"",""SV_PolicingMSA/NJ_358/IMG_13_358.jpg"",""SV_PolicingMSA/NJ_358/IMG_5_358.jpg"",""SV_PolicingMSA/NJ_358/IMG_12_358.jpg"",""SV_PolicingMSA/NJ_358/IMG_9_358.jpg""]","4","","","","","","3","","4","[""./rc_img/cop_condGroup_3_CommunitySafety_autoscaled.png"",""./rc_img/cop_condGroup_3_SafeStreets_autoscaled.png""]","4","",""
"sliderTrial","html-slider-response","75","499122","0.0-75.0","","656776a7904ae00d6b91d1dd","6568add7902e315cc5b50278","12","","","","","","","","","","","","3095","[""SV_PolicingMSA/NJ_358/IMG_4_358.jpg"",""SV_PolicingMSA/NJ_358/IMG_6_358.jpg"",""SV_PolicingMSA/NJ_358/IMG_2_358.jpg"",""SV_PolicingMSA/NJ_358/IMG_8_358.jpg"",""SV_PolicingMSA/NJ_358/IMG_13_358.jpg"",""SV_PolicingMSA/NJ_358/IMG_5_358.jpg"",""SV_PolicingMSA/NJ_358/IMG_12_358.jpg"",""SV_PolicingMSA/NJ_358/IMG_9_358.jpg""]","4","","","","","","3","","4","[""./rc_img/cop_condGroup_9_CommunitySafety_autoscaled.png"",""./rc_img/cop_condGroup_9_SafeStreets_autoscaled.png""]","4","",""
"half-way","html-button-response","76","510811","0.0-76.0","","656776a7904ae00d6b91d1dd","6568add7902e315cc5b50278","12","","","","","","","","","","","","11688","
    <h3>You are now half way through the study.</h3>
    <p>Please take a quick, 15-second break before you continue.</p>
    <img src='assets/img/countdown-15.gif'>
    <p>The study will automatically advance forward after the countdown is complete. <br> However, you may click ""Next"" to advance forward now if you wish.</p>
    ","0","","","","","","","","","","","",""
"before_SVSlide_prompt","html-button-response","77","512418","0.0-77.0","","656776a7904ae00d6b91d1dd","6568add7902e315cc5b50278","12","","","","","","","","","","","","1606","Click [Next] to see the next neighborhood!","0","","","","","","","","","","","",""
"street view slide show","image-button-response","78","513427","0.0-78.0","","656776a7904ae00d6b91d1dd","6568add7902e315cc5b50278","12","","","","","","","","","","","","null","stimulus/SV_PolicingMSA/NJ_880/IMG_14_880.jpg","null","","","","","","2","","","","","",""
"street view slide show","image-button-response","79","514443","0.0-79.0","","656776a7904ae00d6b91d1dd","6568add7902e315cc5b50278","12","","","","","","","","","","","","null","stimulus/SV_PolicingMSA/NJ_880/IMG_11_880.jpg","null","","","","","","2","","","","","",""
"street view slide show","image-button-response","80","515454","0.0-80.0","","656776a7904ae00d6b91d1dd","6568add7902e315cc5b50278","12","","","","","","","","","","","","null","stimulus/SV_PolicingMSA/NJ_880/IMG_12_880.jpg","null","","","","","","2","","","","","",""
"street view slide show","image-button-response","81","516468","0.0-81.0","","656776a7904ae00d6b91d1dd","6568add7902e315cc5b50278","12","","","","","","","","","","","","null","stimulus/SV_PolicingMSA/NJ_880/IMG_7_880.jpg","null","","","","","","2","","","","","",""
"street view slide show","image-button-response","82","517478","0.0-82.0","","656776a7904ae00d6b91d1dd","6568add7902e315cc5b50278","12","","","","","","","","","","","","null","stimulus/SV_PolicingMSA/NJ_880/IMG_9_880.jpg","null","","","","","","2","","","","","",""
"street view slide show","image-button-response","83","518487","0.0-83.0","","656776a7904ae00d6b91d1dd","6568add7902e315cc5b50278","12","","","","","","","","","","","","null","stimulus/SV_PolicingMSA/NJ_880/IMG_13_880.jpg","null","","","","","","2","","","","","",""
"street view slide show","image-button-response","84","519491","0.0-84.0","","656776a7904ae00d6b91d1dd","6568add7902e315cc5b50278","12","","","","","","","","","","","","null","stimulus/SV_PolicingMSA/NJ_880/IMG_1_880.jpg","null","","","","","","2","","","","","",""
"street view slide show","image-button-response","85","520505","0.0-85.0","","656776a7904ae00d6b91d1dd","6568add7902e315cc5b50278","12","","","","","","","","","","","","null","stimulus/SV_PolicingMSA/NJ_880/IMG_6_880.jpg","null","","","","","","2","","","","","",""
"dot matrix survey1","survey","86","544329","0.0-86.0","","656776a7904ae00d6b91d1dd","6568add7902e315cc5b50278","12","","","","","","","","","","","","23815","","{""P0_Q0"":null,""P0_Q1"":{""wealthy"":3,""safe"":4,""walkable"":1,""traditional"":3,""diverse"":1}}","","","","","","2","[]","","","","",""
"dot matrix survey2","survey","87","564015","0.0-87.0","","656776a7904ae00d6b91d1dd","6568add7902e315cc5b50278","12","","","","","","","","","","","","19682","","{""P0_Q0"":null,""P0_Q1"":{""violence"":1,""crime"":1,""drug"":1,""schools"":3,""opportunities"":3}}","","","","","","2","[]","","","","",""
"dot matrix survey3","survey","88","580457","0.0-88.0","","656776a7904ae00d6b91d1dd","6568add7902e315cc5b50278","12","","","","","","","","","","","","16435","","{""P0_Q0"":null,""P0_Q1"":{""movein"":3,""moveout"":0,""shopping"":4,""walk"":3,""park"":2,""school"":4}}","","","","","","2","[]","","","","",""
"sliderTrial","html-slider-response","89","585282","0.0-89.0","","656776a7904ae00d6b91d1dd","6568add7902e315cc5b50278","12","","","","","","","","","","","","4823","[""SV_PolicingMSA/NJ_880/IMG_14_880.jpg"",""SV_PolicingMSA/NJ_880/IMG_11_880.jpg"",""SV_PolicingMSA/NJ_880/IMG_12_880.jpg"",""SV_PolicingMSA/NJ_880/IMG_7_880.jpg"",""SV_PolicingMSA/NJ_880/IMG_9_880.jpg"",""SV_PolicingMSA/NJ_880/IMG_13_880.jpg"",""SV_PolicingMSA/NJ_880/IMG_1_880.jpg"",""SV_PolicingMSA/NJ_880/IMG_6_880.jpg""]","4","","","","","","2","","4","[""./rc_img/cop_condGroup_16_SafeStreets_autoscaled.png"",""./rc_img/cop_condGroup_16_CommunitySafety_autoscaled.png""]","4","",""
"sliderTrial","html-slider-response","90","588434","0.0-90.0","","656776a7904ae00d6b91d1dd","6568add7902e315cc5b50278","12","","","","","","","","","","","","3151","[""SV_PolicingMSA/NJ_880/IMG_14_880.jpg"",""SV_PolicingMSA/NJ_880/IMG_11_880.jpg"",""SV_PolicingMSA/NJ_880/IMG_12_880.jpg"",""SV_PolicingMSA/NJ_880/IMG_7_880.jpg"",""SV_PolicingMSA/NJ_880/IMG_9_880.jpg"",""SV_PolicingMSA/NJ_880/IMG_13_880.jpg"",""SV_PolicingMSA/NJ_880/IMG_1_880.jpg"",""SV_PolicingMSA/NJ_880/IMG_6_880.jpg""]","4","","","","","","2","","4","[""./rc_img/cop_condGroup_15_CommunitySafety_autoscaled.png"",""./rc_img/cop_condGroup_15_SafeStreets_autoscaled.png""]","4","",""
"sliderTrial","html-slider-response","91","592882","0.0-91.0","","656776a7904ae00d6b91d1dd","6568add7902e315cc5b50278","12","","","","","","","","","","","","4447","[""SV_PolicingMSA/NJ_880/IMG_14_880.jpg"",""SV_PolicingMSA/NJ_880/IMG_11_880.jpg"",""SV_PolicingMSA/NJ_880/IMG_12_880.jpg"",""SV_PolicingMSA/NJ_880/IMG_7_880.jpg"",""SV_PolicingMSA/NJ_880/IMG_9_880.jpg"",""SV_PolicingMSA/NJ_880/IMG_13_880.jpg"",""SV_PolicingMSA/NJ_880/IMG_1_880.jpg"",""SV_PolicingMSA/NJ_880/IMG_6_880.jpg""]","4","","","","","","2","","4","[""./rc_img/cop_condGroup_5_SafeStreets_autoscaled.png"",""./rc_img/cop_condGroup_5_CommunitySafety_autoscaled.png""]","4","",""
"sliderTrial","html-slider-response","92","596010","0.0-92.0","","656776a7904ae00d6b91d1dd","6568add7902e315cc5b50278","12","","","","","","","","","","","","3127","[""SV_PolicingMSA/NJ_880/IMG_14_880.jpg"",""SV_PolicingMSA/NJ_880/IMG_11_880.jpg"",""SV_PolicingMSA/NJ_880/IMG_12_880.jpg"",""SV_PolicingMSA/NJ_880/IMG_7_880.jpg"",""SV_PolicingMSA/NJ_880/IMG_9_880.jpg"",""SV_PolicingMSA/NJ_880/IMG_13_880.jpg"",""SV_PolicingMSA/NJ_880/IMG_1_880.jpg"",""SV_PolicingMSA/NJ_880/IMG_6_880.jpg""]","4","","","","","","2","","4","[""./rc_img/cop_condGroup_19_SafeStreets_autoscaled.png"",""./rc_img/cop_condGroup_19_CommunitySafety_autoscaled.png""]","4","",""
"sliderTrial","html-slider-response","93","600793","0.0-93.0","","656776a7904ae00d6b91d1dd","6568add7902e315cc5b50278","12","","","","","","","","","","","","4783","[""SV_PolicingMSA/NJ_880/IMG_14_880.jpg"",""SV_PolicingMSA/NJ_880/IMG_11_880.jpg"",""SV_PolicingMSA/NJ_880/IMG_12_880.jpg"",""SV_PolicingMSA/NJ_880/IMG_7_880.jpg"",""SV_PolicingMSA/NJ_880/IMG_9_880.jpg"",""SV_PolicingMSA/NJ_880/IMG_13_880.jpg"",""SV_PolicingMSA/NJ_880/IMG_1_880.jpg"",""SV_PolicingMSA/NJ_880/IMG_6_880.jpg""]","4","","","","","","2","","4","[""./rc_img/cop_condGroup_20_SafeStreets_autoscaled.png"",""./rc_img/cop_condGroup_20_CommunitySafety_autoscaled.png""]","4","",""
"before_SVSlide_prompt","html-button-response","94","602625","0.0-94.0","","656776a7904ae00d6b91d1dd","6568add7902e315cc5b50278","12","","","","","","","","","","","","1831","Click [Next] to see the next neighborhood!","0","","","","","","","","","","","",""
"street view slide show","image-button-response","95","603628","0.0-95.0","","656776a7904ae00d6b91d1dd","6568add7902e315cc5b50278","12","","","","","","","","","","","","null","stimulus/SV_PolicingMSA/NJ_1936/IMG_7_1936.jpg","null","","","","","","4","","","","","",""
"street view slide show","image-button-response","96","604631","0.0-96.0","","656776a7904ae00d6b91d1dd","6568add7902e315cc5b50278","12","","","","","","","","","","","","null","stimulus/SV_PolicingMSA/NJ_1936/IMG_8_1936.jpg","null","","","","","","4","","","","","",""
"street view slide show","image-button-response","97","605634","0.0-97.0","","656776a7904ae00d6b91d1dd","6568add7902e315cc5b50278","12","","","","","","","","","","","","null","stimulus/SV_PolicingMSA/NJ_1936/IMG_2_1936.jpg","null","","","","","","4","","","","","",""
"street view slide show","image-button-response","98","606639","0.0-98.0","","656776a7904ae00d6b91d1dd","6568add7902e315cc5b50278","12","","","","","","","","","","","","null","stimulus/SV_PolicingMSA/NJ_1936/IMG_3_1936.jpg","null","","","","","","4","","","","","",""
"street view slide show","image-button-response","99","607643","0.0-99.0","","656776a7904ae00d6b91d1dd","6568add7902e315cc5b50278","12","","","","","","","","","","","","null","stimulus/SV_PolicingMSA/NJ_1936/IMG_13_1936.jpg","null","","","","","","4","","","","","",""
"street view slide show","image-button-response","100","608649","0.0-100.0","","656776a7904ae00d6b91d1dd","6568add7902e315cc5b50278","12","","","","","","","","","","","","null","stimulus/SV_PolicingMSA/NJ_1936/IMG_4_1936.jpg","null","","","","","","4","","","","","",""
"street view slide show","image-button-response","101","609652","0.0-101.0","","656776a7904ae00d6b91d1dd","6568add7902e315cc5b50278","12","","","","","","","","","","","","null","stimulus/SV_PolicingMSA/NJ_1936/IMG_10_1936.jpg","null","","","","","","4","","","","","",""
"street view slide show","image-button-response","102","610654","0.0-102.0","","656776a7904ae00d6b91d1dd","6568add7902e315cc5b50278","12","","","","","","","","","","","","null","stimulus/SV_PolicingMSA/NJ_1936/IMG_1_1936.jpg","null","","","","","","4","","","","","",""
"dot matrix survey1","survey","103","627025","0.0-103.0","","656776a7904ae00d6b91d1dd","6568add7902e315cc5b50278","12","","","","","","","","","","","","16365","","{""P0_Q0"":null,""P0_Q1"":{""wealthy"":4,""safe"":4,""walkable"":0,""traditional"":2,""diverse"":1}}","","","","","","4","[]","","","","",""
"dot matrix survey2","survey","104","643952","0.0-104.0","","656776a7904ae00d6b91d1dd","6568add7902e315cc5b50278","12","","","","","","","","","","","","16923","","{""P0_Q0"":null,""P0_Q1"":{""violence"":1,""crime"":1,""drug"":2,""schools"":4,""opportunities"":3}}","","","","","","4","[]","","","","",""
"dot matrix survey3","survey","105","660633","0.0-105.0","","656776a7904ae00d6b91d1dd","6568add7902e315cc5b50278","12","","","","","","","","","","","","16676","","{""P0_Q0"":null,""P0_Q1"":{""movein"":3,""moveout"":0,""shopping"":3,""walk"":3,""park"":2,""school"":4}}","","","","","","4","[]","","","","",""
"sliderTrial","html-slider-response","106","664753","0.0-106.0","","656776a7904ae00d6b91d1dd","6568add7902e315cc5b50278","12","","","","","","","","","","","","4119","[""SV_PolicingMSA/NJ_1936/IMG_7_1936.jpg"",""SV_PolicingMSA/NJ_1936/IMG_8_1936.jpg"",""SV_PolicingMSA/NJ_1936/IMG_2_1936.jpg"",""SV_PolicingMSA/NJ_1936/IMG_3_1936.jpg"",""SV_PolicingMSA/NJ_1936/IMG_13_1936.jpg"",""SV_PolicingMSA/NJ_1936/IMG_4_1936.jpg"",""SV_PolicingMSA/NJ_1936/IMG_10_1936.jpg"",""SV_PolicingMSA/NJ_1936/IMG_1_1936.jpg""]","4","","","","","","4","","4","[""./rc_img/cop_condGroup_13_CommunitySafety_autoscaled.png"",""./rc_img/cop_condGroup_13_SafeStreets_autoscaled.png""]","4","",""
"sliderTrial","html-slider-response","107","669561","0.0-107.0","","656776a7904ae00d6b91d1dd","6568add7902e315cc5b50278","12","","","","","","","","","","","","4807","[""SV_PolicingMSA/NJ_1936/IMG_7_1936.jpg"",""SV_PolicingMSA/NJ_1936/IMG_8_1936.jpg"",""SV_PolicingMSA/NJ_1936/IMG_2_1936.jpg"",""SV_PolicingMSA/NJ_1936/IMG_3_1936.jpg"",""SV_PolicingMSA/NJ_1936/IMG_13_1936.jpg"",""SV_PolicingMSA/NJ_1936/IMG_4_1936.jpg"",""SV_PolicingMSA/NJ_1936/IMG_10_1936.jpg"",""SV_PolicingMSA/NJ_1936/IMG_1_1936.jpg""]","4","","","","","","4","","4","[""./rc_img/cop_condGroup_12_SafeStreets_autoscaled.png"",""./rc_img/cop_condGroup_12_CommunitySafety_autoscaled.png""]","4","",""
"sliderTrial","html-slider-response","108","672762","0.0-108.0","","656776a7904ae00d6b91d1dd","6568add7902e315cc5b50278","12","","","","","","","","","","","","3199","[""SV_PolicingMSA/NJ_1936/IMG_7_1936.jpg"",""SV_PolicingMSA/NJ_1936/IMG_8_1936.jpg"",""SV_PolicingMSA/NJ_1936/IMG_2_1936.jpg"",""SV_PolicingMSA/NJ_1936/IMG_3_1936.jpg"",""SV_PolicingMSA/NJ_1936/IMG_13_1936.jpg"",""SV_PolicingMSA/NJ_1936/IMG_4_1936.jpg"",""SV_PolicingMSA/NJ_1936/IMG_10_1936.jpg"",""SV_PolicingMSA/NJ_1936/IMG_1_1936.jpg""]","4","","","","","","4","","4","[""./rc_img/cop_condGroup_6_SafeStreets_autoscaled.png"",""./rc_img/cop_condGroup_6_CommunitySafety_autoscaled.png""]","4","",""
"sliderTrial","html-slider-response","109","675697","0.0-109.0","","656776a7904ae00d6b91d1dd","6568add7902e315cc5b50278","12","","","","","","","","","","","","2934","[""SV_PolicingMSA/NJ_1936/IMG_7_1936.jpg"",""SV_PolicingMSA/NJ_1936/IMG_8_1936.jpg"",""SV_PolicingMSA/NJ_1936/IMG_2_1936.jpg"",""SV_PolicingMSA/NJ_1936/IMG_3_1936.jpg"",""SV_PolicingMSA/NJ_1936/IMG_13_1936.jpg"",""SV_PolicingMSA/NJ_1936/IMG_4_1936.jpg"",""SV_PolicingMSA/NJ_1936/IMG_10_1936.jpg"",""SV_PolicingMSA/NJ_1936/IMG_1_1936.jpg""]","4","","","","","","4","","4","[""./rc_img/cop_condGroup_11_CommunitySafety_autoscaled.png"",""./rc_img/cop_condGroup_11_SafeStreets_autoscaled.png""]","4","",""
"sliderTrial","html-slider-response","110","679089","0.0-110.0","","656776a7904ae00d6b91d1dd","6568add7902e315cc5b50278","12","","","","","","","","","","","","3391","[""SV_PolicingMSA/NJ_1936/IMG_7_1936.jpg"",""SV_PolicingMSA/NJ_1936/IMG_8_1936.jpg"",""SV_PolicingMSA/NJ_1936/IMG_2_1936.jpg"",""SV_PolicingMSA/NJ_1936/IMG_3_1936.jpg"",""SV_PolicingMSA/NJ_1936/IMG_13_1936.jpg"",""SV_PolicingMSA/NJ_1936/IMG_4_1936.jpg"",""SV_PolicingMSA/NJ_1936/IMG_10_1936.jpg"",""SV_PolicingMSA/NJ_1936/IMG_1_1936.jpg""]","4","","","","","","4","","4","[""./rc_img/cop_condGroup_14_SafeStreets_autoscaled.png"",""./rc_img/cop_condGroup_14_CommunitySafety_autoscaled.png""]","4","",""
"before_SVSlide_prompt","html-button-response","111","694465","0.0-111.0","","656776a7904ae00d6b91d1dd","6568add7902e315cc5b50278","12","","","","","","","","","","","","15375","Click [Next] to see the next neighborhood!","0","","","","","","","","","","","",""
"street view slide show","image-button-response","112","695476","0.0-112.0","","656776a7904ae00d6b91d1dd","6568add7902e315cc5b50278","12","","","","","","","","","","","","null","stimulus/SV_PolicingMSA/NJ_545/IMG_8_545.jpg","null","","","","","","3","","","","","",""
"street view slide show","image-button-response","113","696478","0.0-113.0","","656776a7904ae00d6b91d1dd","6568add7902e315cc5b50278","12","","","","","","","","","","","","null","stimulus/SV_PolicingMSA/NJ_545/IMG_11_545.jpg","null","","","","","","3","","","","","",""
"street view slide show","image-button-response","114","697481","0.0-114.0","","656776a7904ae00d6b91d1dd","6568add7902e315cc5b50278","12","","","","","","","","","","","","null","stimulus/SV_PolicingMSA/NJ_545/IMG_7_545.jpg","null","","","","","","3","","","","","",""
"street view slide show","image-button-response","115","698489","0.0-115.0","","656776a7904ae00d6b91d1dd","6568add7902e315cc5b50278","12","","","","","","","","","","","","null","stimulus/SV_PolicingMSA/NJ_545/IMG_3_545.jpg","null","","","","","","3","","","","","",""
"street view slide show","image-button-response","116","699502","0.0-116.0","","656776a7904ae00d6b91d1dd","6568add7902e315cc5b50278","12","","","","","","","","","","","","null","stimulus/SV_PolicingMSA/NJ_545/IMG_4_545.jpg","null","","","","","","3","","","","","",""
"street view slide show","image-button-response","117","700506","0.0-117.0","","656776a7904ae00d6b91d1dd","6568add7902e315cc5b50278","12","","","","","","","","","","","","null","stimulus/SV_PolicingMSA/NJ_545/IMG_10_545.jpg","null","","","","","","3","","","","","",""
"street view slide show","image-button-response","118","701518","0.0-118.0","","656776a7904ae00d6b91d1dd","6568add7902e315cc5b50278","12","","","","","","","","","","","","null","stimulus/SV_PolicingMSA/NJ_545/IMG_6_545.jpg","null","","","","","","3","","","","","",""
"street view slide show","image-button-response","119","702535","0.0-119.0","","656776a7904ae00d6b91d1dd","6568add7902e315cc5b50278","12","","","","","","","","","","","","null","stimulus/SV_PolicingMSA/NJ_545/IMG_13_545.jpg","null","","","","","","3","","","","","",""
"dot matrix survey1","survey","120","721064","0.0-120.0","","656776a7904ae00d6b91d1dd","6568add7902e315cc5b50278","12","","","","","","","","","","","","18524","","{""P0_Q0"":null,""P0_Q1"":{""wealthy"":1,""safe"":2,""walkable"":3,""traditional"":3,""diverse"":2}}","","","","","","3","[]","","","","",""
"dot matrix survey2","survey","121","756353","0.0-121.0","","656776a7904ae00d6b91d1dd","6568add7902e315cc5b50278","12","","","","","","","","","","","","35284","","{""P0_Q0"":null,""P0_Q1"":{""violence"":2,""crime"":2,""drug"":2,""schools"":2,""opportunities"":1}}","","","","","","3","[]","","","","",""
"dot matrix survey3","survey","122","775217","0.0-122.0","","656776a7904ae00d6b91d1dd","6568add7902e315cc5b50278","12","","","","","","","","","","","","18860","","{""P0_Q0"":null,""P0_Q1"":{""movein"":2,""moveout"":3,""shopping"":3,""walk"":2,""park"":2,""school"":2}}","","","","","","3","[]","","","","",""
"sliderTrial","html-slider-response","123","779721","0.0-123.0","","656776a7904ae00d6b91d1dd","6568add7902e315cc5b50278","12","","","","","","","","","","","","4503","[""SV_PolicingMSA/NJ_545/IMG_8_545.jpg"",""SV_PolicingMSA/NJ_545/IMG_11_545.jpg"",""SV_PolicingMSA/NJ_545/IMG_7_545.jpg"",""SV_PolicingMSA/NJ_545/IMG_3_545.jpg"",""SV_PolicingMSA/NJ_545/IMG_4_545.jpg"",""SV_PolicingMSA/NJ_545/IMG_10_545.jpg"",""SV_PolicingMSA/NJ_545/IMG_6_545.jpg"",""SV_PolicingMSA/NJ_545/IMG_13_545.jpg""]","4","","","","","","3","","4","[""./rc_img/cop_condGroup_17_SafeStreets_autoscaled.png"",""./rc_img/cop_condGroup_17_CommunitySafety_autoscaled.png""]","4","",""
"sliderTrial","html-slider-response","124","782154","0.0-124.0","","656776a7904ae00d6b91d1dd","6568add7902e315cc5b50278","12","","","","","","","","","","","","2431","[""SV_PolicingMSA/NJ_545/IMG_8_545.jpg"",""SV_PolicingMSA/NJ_545/IMG_11_545.jpg"",""SV_PolicingMSA/NJ_545/IMG_7_545.jpg"",""SV_PolicingMSA/NJ_545/IMG_3_545.jpg"",""SV_PolicingMSA/NJ_545/IMG_4_545.jpg"",""SV_PolicingMSA/NJ_545/IMG_10_545.jpg"",""SV_PolicingMSA/NJ_545/IMG_6_545.jpg"",""SV_PolicingMSA/NJ_545/IMG_13_545.jpg""]","4","","","","","","3","","4","[""./rc_img/cop_condGroup_1_SafeStreets_autoscaled.png"",""./rc_img/cop_condGroup_1_CommunitySafety_autoscaled.png""]","4","",""
"sliderTrial","html-slider-response","125","785714","0.0-125.0","","656776a7904ae00d6b91d1dd","6568add7902e315cc5b50278","12","","","","","","","","","","","","3559","[""SV_PolicingMSA/NJ_545/IMG_8_545.jpg"",""SV_PolicingMSA/NJ_545/IMG_11_545.jpg"",""SV_PolicingMSA/NJ_545/IMG_7_545.jpg"",""SV_PolicingMSA/NJ_545/IMG_3_545.jpg"",""SV_PolicingMSA/NJ_545/IMG_4_545.jpg"",""SV_PolicingMSA/NJ_545/IMG_10_545.jpg"",""SV_PolicingMSA/NJ_545/IMG_6_545.jpg"",""SV_PolicingMSA/NJ_545/IMG_13_545.jpg""]","4","","","","","","3","","4","[""./rc_img/cop_condGroup_2_SafeStreets_autoscaled.png"",""./rc_img/cop_condGroup_2_CommunitySafety_autoscaled.png""]","4","",""
"sliderTrial","html-slider-response","126","789578","0.0-126.0","","656776a7904ae00d6b91d1dd","6568add7902e315cc5b50278","12","","","","","","","","","","","","3863","[""SV_PolicingMSA/NJ_545/IMG_8_545.jpg"",""SV_PolicingMSA/NJ_545/IMG_11_545.jpg"",""SV_PolicingMSA/NJ_545/IMG_7_545.jpg"",""SV_PolicingMSA/NJ_545/IMG_3_545.jpg"",""SV_PolicingMSA/NJ_545/IMG_4_545.jpg"",""SV_PolicingMSA/NJ_545/IMG_10_545.jpg"",""SV_PolicingMSA/NJ_545/IMG_6_545.jpg"",""SV_PolicingMSA/NJ_545/IMG_13_545.jpg""]","4","","","","","","3","","4","[""./rc_img/cop_condGroup_7_CommunitySafety_autoscaled.png"",""./rc_img/cop_condGroup_7_SafeStreets_autoscaled.png""]","4","",""
"sliderTrial","html-slider-response","127","793602","0.0-127.0","","656776a7904ae00d6b91d1dd","6568add7902e315cc5b50278","12","","","","","","","","","","","","4023","[""SV_PolicingMSA/NJ_545/IMG_8_545.jpg"",""SV_PolicingMSA/NJ_545/IMG_11_545.jpg"",""SV_PolicingMSA/NJ_545/IMG_7_545.jpg"",""SV_PolicingMSA/NJ_545/IMG_3_545.jpg"",""SV_PolicingMSA/NJ_545/IMG_4_545.jpg"",""SV_PolicingMSA/NJ_545/IMG_10_545.jpg"",""SV_PolicingMSA/NJ_545/IMG_6_545.jpg"",""SV_PolicingMSA/NJ_545/IMG_13_545.jpg""]","4","","","","","","3","","4","[""./rc_img/cop_condGroup_8_CommunitySafety_autoscaled.png"",""./rc_img/cop_condGroup_8_SafeStreets_autoscaled.png""]","4","",""
"before_SVSlide_prompt","html-button-response","128","795666","0.0-128.0","","656776a7904ae00d6b91d1dd","6568add7902e315cc5b50278","12","","","","","","","","","","","","2063","Click [Next] to see the next neighborhood!","0","","","","","","","","","","","",""
"street view slide show","image-button-response","129","796676","0.0-129.0","","656776a7904ae00d6b91d1dd","6568add7902e315cc5b50278","12","","","","","","","","","","","","null","stimulus/SV_PolicingMSA/NJ_1937/IMG_12_1937.jpg","null","","","","","","5","","","","","",""
"street view slide show","image-button-response","130","797686","0.0-130.0","","656776a7904ae00d6b91d1dd","6568add7902e315cc5b50278","12","","","","","","","","","","","","null","stimulus/SV_PolicingMSA/NJ_1937/IMG_11_1937.jpg","null","","","","","","5","","","","","",""
"street view slide show","image-button-response","131","798687","0.0-131.0","","656776a7904ae00d6b91d1dd","6568add7902e315cc5b50278","12","","","","","","","","","","","","null","stimulus/SV_PolicingMSA/NJ_1937/IMG_7_1937.jpg","null","","","","","","5","","","","","",""
"street view slide show","image-button-response","132","799694","0.0-132.0","","656776a7904ae00d6b91d1dd","6568add7902e315cc5b50278","12","","","","","","","","","","","","null","stimulus/SV_PolicingMSA/NJ_1937/IMG_4_1937.jpg","null","","","","","","5","","","","","",""
"street view slide show","image-button-response","133","800700","0.0-133.0","","656776a7904ae00d6b91d1dd","6568add7902e315cc5b50278","12","","","","","","","","","","","","null","stimulus/SV_PolicingMSA/NJ_1937/IMG_6_1937.jpg","null","","","","","","5","","","","","",""
"street view slide show","image-button-response","134","801701","0.0-134.0","","656776a7904ae00d6b91d1dd","6568add7902e315cc5b50278","12","","","","","","","","","","","","null","stimulus/SV_PolicingMSA/NJ_1937/IMG_14_1937.jpg","null","","","","","","5","","","","","",""
"street view slide show","image-button-response","135","802715","0.0-135.0","","656776a7904ae00d6b91d1dd","6568add7902e315cc5b50278","12","","","","","","","","","","","","null","stimulus/SV_PolicingMSA/NJ_1937/IMG_2_1937.jpg","null","","","","","","5","","","","","",""
"street view slide show","image-button-response","136","803724","0.0-136.0","","656776a7904ae00d6b91d1dd","6568add7902e315cc5b50278","12","","","","","","","","","","","","null","stimulus/SV_PolicingMSA/NJ_1937/IMG_5_1937.jpg","null","","","","","","5","","","","","",""
"dot matrix survey1","survey","137","823625","0.0-137.0","","656776a7904ae00d6b91d1dd","6568add7902e315cc5b50278","12","","","","","","","","","","","","19895","","{""P0_Q0"":null,""P0_Q1"":{""wealthy"":1,""safe"":2,""walkable"":3,""traditional"":3,""diverse"":2}}","","","","","","5","[]","","","","",""
"dot matrix survey2","survey","138","841391","0.0-138.0","","656776a7904ae00d6b91d1dd","6568add7902e315cc5b50278","12","","","","","","","","","","","","17763","","{""P0_Q0"":null,""P0_Q1"":{""violence"":2,""crime"":2,""drug"":2,""schools"":2,""opportunities"":2}}","","","","","","5","[]","","","","",""
"dot matrix survey3","survey","139","858856","0.0-139.0","","656776a7904ae00d6b91d1dd","6568add7902e315cc5b50278","12","","","","","","","","","","","","17461","","{""P0_Q0"":null,""P0_Q1"":{""movein"":2,""moveout"":2,""shopping"":3,""walk"":2,""park"":2,""school"":3}}","","","","","","5","[]","","","","",""
"sliderTrial","html-slider-response","140","863097","0.0-140.0","","656776a7904ae00d6b91d1dd","6568add7902e315cc5b50278","12","","","","","","","","","","","","4239","[""SV_PolicingMSA/NJ_1937/IMG_12_1937.jpg"",""SV_PolicingMSA/NJ_1937/IMG_11_1937.jpg"",""SV_PolicingMSA/NJ_1937/IMG_7_1937.jpg"",""SV_PolicingMSA/NJ_1937/IMG_4_1937.jpg"",""SV_PolicingMSA/NJ_1937/IMG_6_1937.jpg"",""SV_PolicingMSA/NJ_1937/IMG_14_1937.jpg"",""SV_PolicingMSA/NJ_1937/IMG_2_1937.jpg"",""SV_PolicingMSA/NJ_1937/IMG_5_1937.jpg""]","4","","","","","","5","","4","[""./rc_img/cop_condGroup_17_SafeStreets_autoscaled.png"",""./rc_img/cop_condGroup_17_CommunitySafety_autoscaled.png""]","4","",""
"sliderTrial","html-slider-response","141","866393","0.0-141.0","","656776a7904ae00d6b91d1dd","6568add7902e315cc5b50278","12","","","","","","","","","","","","3295","[""SV_PolicingMSA/NJ_1937/IMG_12_1937.jpg"",""SV_PolicingMSA/NJ_1937/IMG_11_1937.jpg"",""SV_PolicingMSA/NJ_1937/IMG_7_1937.jpg"",""SV_PolicingMSA/NJ_1937/IMG_4_1937.jpg"",""SV_PolicingMSA/NJ_1937/IMG_6_1937.jpg"",""SV_PolicingMSA/NJ_1937/IMG_14_1937.jpg"",""SV_PolicingMSA/NJ_1937/IMG_2_1937.jpg"",""SV_PolicingMSA/NJ_1937/IMG_5_1937.jpg""]","4","","","","","","5","","4","[""./rc_img/cop_condGroup_1_SafeStreets_autoscaled.png"",""./rc_img/cop_condGroup_1_CommunitySafety_autoscaled.png""]","4","",""
"sliderTrial","html-slider-response","142","869537","0.0-142.0","","656776a7904ae00d6b91d1dd","6568add7902e315cc5b50278","12","","","","","","","","","","","","3143","[""SV_PolicingMSA/NJ_1937/IMG_12_1937.jpg"",""SV_PolicingMSA/NJ_1937/IMG_11_1937.jpg"",""SV_PolicingMSA/NJ_1937/IMG_7_1937.jpg"",""SV_PolicingMSA/NJ_1937/IMG_4_1937.jpg"",""SV_PolicingMSA/NJ_1937/IMG_6_1937.jpg"",""SV_PolicingMSA/NJ_1937/IMG_14_1937.jpg"",""SV_PolicingMSA/NJ_1937/IMG_2_1937.jpg"",""SV_PolicingMSA/NJ_1937/IMG_5_1937.jpg""]","4","","","","","","5","","4","[""./rc_img/cop_condGroup_2_SafeStreets_autoscaled.png"",""./rc_img/cop_condGroup_2_CommunitySafety_autoscaled.png""]","4","",""
"sliderTrial","html-slider-response","143","872561","0.0-143.0","","656776a7904ae00d6b91d1dd","6568add7902e315cc5b50278","12","","","","","","","","","","","","3023","[""SV_PolicingMSA/NJ_1937/IMG_12_1937.jpg"",""SV_PolicingMSA/NJ_1937/IMG_11_1937.jpg"",""SV_PolicingMSA/NJ_1937/IMG_7_1937.jpg"",""SV_PolicingMSA/NJ_1937/IMG_4_1937.jpg"",""SV_PolicingMSA/NJ_1937/IMG_6_1937.jpg"",""SV_PolicingMSA/NJ_1937/IMG_14_1937.jpg"",""SV_PolicingMSA/NJ_1937/IMG_2_1937.jpg"",""SV_PolicingMSA/NJ_1937/IMG_5_1937.jpg""]","4","","","","","","5","","4","[""./rc_img/cop_condGroup_7_CommunitySafety_autoscaled.png"",""./rc_img/cop_condGroup_7_SafeStreets_autoscaled.png""]","4","",""
"sliderTrial","html-slider-response","144","876353","0.0-144.0","","656776a7904ae00d6b91d1dd","6568add7902e315cc5b50278","12","","","","","","","","","","","","3791","[""SV_PolicingMSA/NJ_1937/IMG_12_1937.jpg"",""SV_PolicingMSA/NJ_1937/IMG_11_1937.jpg"",""SV_PolicingMSA/NJ_1937/IMG_7_1937.jpg"",""SV_PolicingMSA/NJ_1937/IMG_4_1937.jpg"",""SV_PolicingMSA/NJ_1937/IMG_6_1937.jpg"",""SV_PolicingMSA/NJ_1937/IMG_14_1937.jpg"",""SV_PolicingMSA/NJ_1937/IMG_2_1937.jpg"",""SV_PolicingMSA/NJ_1937/IMG_5_1937.jpg""]","4","","","","","","5","","4","[""./rc_img/cop_condGroup_8_CommunitySafety_autoscaled.png"",""./rc_img/cop_condGroup_8_SafeStreets_autoscaled.png""]","4","",""
"demographics","survey-html-form","145","890435","0.0-145.0","","656776a7904ae00d6b91d1dd","6568add7902e315cc5b50278","12","","","","","","","","","","","","14081","","{""age"":""71"",""sex"":""female"",""gender"":""woman"",""gender-self-describe"":"""",""zipcode"":""40380""}","","","","","","","","","","","",""
"demographics-list","survey","146","918330","0.0-146.0","","656776a7904ae00d6b91d1dd","6568add7902e315cc5b50278","12","","","","","","","","","","","","27875","","{""P0_Q0"":null,""race-ethnicity"":[""White or of European ancestry""],""education"":""Bachelor’s degree"",""P1_Q0"":null,""ideology"":""Very Liberal"",""P2_Q0"":null,""num-moves"":2,""P3_Q0"":null,""social-ladder"":4}","","","","","","","[]","","","","",""
"end-survey","survey-text","147","924092","0.0-147.0","","656776a7904ae00d6b91d1dd","6568add7902e315cc5b50278","12","","","","","","","","","","","","5756","","{""Q0"":""""}","","","","","","","","","","","","2"
"end-survey","html-button-response","148","926953","0.0-148.0","","656776a7904ae00d6b91d1dd","6568add7902e315cc5b50278","12","","","","","","","","","","","","2860","
    You've reached the end of the survey. <br><br> 
    <b>Do not close or refresh this window.</b><br>
    On the next page, you will be automatically redirected to Prolific. <br><br>

    <div class=""alert alert-warning""><b>
    </div>
","0","","","","","","","","","","","",""
