"task","trial_type","trial_index","time_elapsed","internal_node_id","subject_id","study_id","session_id","section","width","height","webaudio","browser","browser_version","mobile","os","fullscreen","vsync_rate","webcam","microphone","rt","stimulus","response","success","timeout","failed_images","failed_audio","failed_video","block","accuracy","slider_start","choices","standardized_response","correct","num_attention_checks_correct"
"pavlovia-init","pavlovia","0","1480","0.0-0.0","","656776a7904ae00d6b91d1dd","6568ada07d6d1fdef115b01e","15","","","","","","","","","","","","","","","","","","","","","","","","","",""
"browser-check","browser-check","1","2476","0.0-1.0","","656776a7904ae00d6b91d1dd","6568ada07d6d1fdef115b01e","15","1920","955","true","chrome","119.0.0","false","Windows 10","true","60.72","true","true","","","","","","","","","","","","","","",""
"consent","html-button-response","2","6007","0.0-2.0","","656776a7904ae00d6b91d1dd","6568ada07d6d1fdef115b01e","15","","","","","","","","","","","","3529","
        <div style=""font-size: 80%; max-width:700px"">
            <h2>CONSENT FORM</h2>
        
            <div style=""text-align: left"">
            <h4>DESCRIPTION</h4>
            <p>
            You will complete a short task where you give your impressions of various neighborhoods and assign individuals to those spaces, and answer some questions about your thoughts and opinions.<br>
            The University of Michigan Institutional Review Board Health Sciences and Behavioral Sciences has determined that this study is exempt from IRB oversight.
            </p>

            <h4>TIME INVOLVEMENT</h4>
            <p>Your participation will take approximately 15 minutes. You will receive $3.15 upon completion of the study.</p>
        
            <h4>RISKS AND BENEFITS</h4>
            <p>
            The risks associated with this study are minimal. The benefits which may reasonably be expected to result from this study are none. We cannot and do not guarantee or promise that you will receive any benefits from this study.
            </p>
          
            <h4>SUBJECT'S RIGHTS</h4>
            <p>
            If you have read this form and have decided to participate in this project, please understand your participation is voluntary and you have the right to withdraw your consent or discontinue participation at any time without penalty or loss of benefits to which you are otherwise entitled. The alternative is not to participate. You have the right to refuse to answer particular questions. Your individual privacy will be maintained in all published and written data resulting from the study.
            </p>

            <h4>HUMAN SUBJECT APPROVAL</h4>
            <p>
            This study is exempt from ongoing IRB review.
            </p>

            <h4>CONTACT INFORMATION</h4>
            If you have any questions, concerns or complaints about this research, its procedures, risks and benefits, contact the Protocol Director, Nicholas Camp, npcamp@umich.edu, (443) 851-6783. <br>

            If you have questions about your rights as a research participant, or wish to obtain information, ask questions or discuss any concerns about this study with someone other than the researcher(s), please contact the following:<br><br>
            University of Michigan<br>
            Health Sciences and Behavioral Sciences Institutional Review Board (IRB-HSBS)<br>
            2800 Plymouth Road<br>
            Building 520, Room 1169Ann Arbor, MI 48109-2800<br>
            Telephone: 734-936-0933 or toll free (866) 936-0933<br>
            Fax: 734-936-1852<br>
            E-mail: irbhsbs@umich.edu<br><br>

            You can also contact the University of Michigan Compliance Hotline at 1-866-990-0111. You may also print this consent form to keep.
            <br><br>
            <div class=""alert alert-warning""><b>
            Do you consent to participate in this study? If you consent to participate in this study, please click “Accept and Continue”. If you select ""Decline and Exit"", you will be exited from the survey. <br>
            </b></div>
            </div>
        </div>
    ","1","","","","","","","","","","","",""
"","preload","3","20182","0.0-3.0","","656776a7904ae00d6b91d1dd","6568ada07d6d1fdef115b01e","15","","","","","","","","","","","","","","","true","false","[]","[]","[]","","","","","","",""
"instructions","html-button-response","4","26965","0.0-4.0","","656776a7904ae00d6b91d1dd","6568ada07d6d1fdef115b01e","15","","","","","","","","","","","","6780","
        <div class=""text-container"">
        <h1>Welcome to the study!</h1>
        
        <div class=""text-left"">
            <p>
                In this study, we are interested in what people can tell about spaces from Google Street View images. <br> Google Street View takes pictures of streets used for Google Earth and Google Maps. <br>You’ll see Google Street View images of different places and answer some questions about each one.<br>
            </p>
        </div>
        <img src = ""assets/img/example.png"" width = 500px, height = auto>
        <br>
    <br>
    ","0","","","","","","","","","","","",""
"instructions","html-button-response","5","28658","0.0-5.0","","656776a7904ae00d6b91d1dd","6568ada07d6d1fdef115b01e","15","","","","","","","","","","","","1692","
    <div class=""text-container"">
        <div class=""text-center"">
            <p>Please remember that your answers are completely anonymous.<br>Go with your gut response- there are no right or wrong answers!</p>
        </div>
    <br>
","0","","","","","","","","","","","",""
"before_SVSlide_prompt","html-button-response","6","29742","0.0-6.0","","656776a7904ae00d6b91d1dd","6568ada07d6d1fdef115b01e","15","","","","","","","","","","","","1082","Click [Next] to see the next neighborhood!","0","","","","","","","","","","","",""
"street view slide show","image-button-response","7","30751","0.0-7.0","","656776a7904ae00d6b91d1dd","6568ada07d6d1fdef115b01e","15","","","","","","","","","","","","null","stimulus/SV_PolicingMSA/MA_855/IMG_11_855.jpg","null","","","","","","2","","","","","",""
"street view slide show","image-button-response","8","31754","0.0-8.0","","656776a7904ae00d6b91d1dd","6568ada07d6d1fdef115b01e","15","","","","","","","","","","","","null","stimulus/SV_PolicingMSA/MA_855/IMG_14_855.jpg","null","","","","","","2","","","","","",""
"street view slide show","image-button-response","9","32757","0.0-9.0","","656776a7904ae00d6b91d1dd","6568ada07d6d1fdef115b01e","15","","","","","","","","","","","","null","stimulus/SV_PolicingMSA/MA_855/IMG_12_855.jpg","null","","","","","","2","","","","","",""
"street view slide show","image-button-response","10","33762","0.0-10.0","","656776a7904ae00d6b91d1dd","6568ada07d6d1fdef115b01e","15","","","","","","","","","","","","null","stimulus/SV_PolicingMSA/MA_855/IMG_9_855.jpg","null","","","","","","2","","","","","",""
"street view slide show","image-button-response","11","34776","0.0-11.0","","656776a7904ae00d6b91d1dd","6568ada07d6d1fdef115b01e","15","","","","","","","","","","","","null","stimulus/SV_PolicingMSA/MA_855/IMG_1_855.jpg","null","","","","","","2","","","","","",""
"street view slide show","image-button-response","12","35788","0.0-12.0","","656776a7904ae00d6b91d1dd","6568ada07d6d1fdef115b01e","15","","","","","","","","","","","","null","stimulus/SV_PolicingMSA/MA_855/IMG_5_855.jpg","null","","","","","","2","","","","","",""
"street view slide show","image-button-response","13","36793","0.0-13.0","","656776a7904ae00d6b91d1dd","6568ada07d6d1fdef115b01e","15","","","","","","","","","","","","null","stimulus/SV_PolicingMSA/MA_855/IMG_0_855.jpg","null","","","","","","2","","","","","",""
"street view slide show","image-button-response","14","37795","0.0-14.0","","656776a7904ae00d6b91d1dd","6568ada07d6d1fdef115b01e","15","","","","","","","","","","","","null","stimulus/SV_PolicingMSA/MA_855/IMG_8_855.jpg","null","","","","","","2","","","","","",""
"dot matrix survey1","survey","15","79548","0.0-15.0","","656776a7904ae00d6b91d1dd","6568ada07d6d1fdef115b01e","15","","","","","","","","","","","","41653","","{""P0_Q0"":null,""P0_Q1"":{""wealthy"":1,""safe"":2,""diverse"":1,""walkable"":4,""traditional"":2}}","","","","","","2","[]","","","","",""
"dot matrix survey2","survey","16","96317","0.0-16.0","","656776a7904ae00d6b91d1dd","6568ada07d6d1fdef115b01e","15","","","","","","","","","","","","16753","","{""P0_Q0"":null,""P0_Q1"":{""violence"":2,""crime"":2,""drug"":2,""schools"":1,""opportunities"":1}}","","","","","","2","[]","","","","",""
"dot matrix survey3","survey","17","112729","0.0-17.0","","656776a7904ae00d6b91d1dd","6568ada07d6d1fdef115b01e","15","","","","","","","","","","","","16397","","{""P0_Q0"":null,""P0_Q1"":{""movein"":3,""moveout"":2,""shopping"":2,""walk"":2,""park"":2,""school"":2}}","","","","","","2","[]","","","","",""
"sliderTrial","html-slider-response","18","120206","0.0-18.0","","656776a7904ae00d6b91d1dd","6568ada07d6d1fdef115b01e","15","","","","","","","","","","","","7472","[""SV_PolicingMSA/MA_855/IMG_11_855.jpg"",""SV_PolicingMSA/MA_855/IMG_14_855.jpg"",""SV_PolicingMSA/MA_855/IMG_12_855.jpg"",""SV_PolicingMSA/MA_855/IMG_9_855.jpg"",""SV_PolicingMSA/MA_855/IMG_1_855.jpg"",""SV_PolicingMSA/MA_855/IMG_5_855.jpg"",""SV_PolicingMSA/MA_855/IMG_0_855.jpg"",""SV_PolicingMSA/MA_855/IMG_8_855.jpg""]","4","","","","","","2","","4","[""./rc_img/cop_condGroup_15_CommunitySafety_autoscaled.png"",""./rc_img/cop_condGroup_15_SafeStreets_autoscaled.png""]","4","",""
"sliderTrial","html-slider-response","19","125292","0.0-19.0","","656776a7904ae00d6b91d1dd","6568ada07d6d1fdef115b01e","15","","","","","","","","","","","","5083","[""SV_PolicingMSA/MA_855/IMG_11_855.jpg"",""SV_PolicingMSA/MA_855/IMG_14_855.jpg"",""SV_PolicingMSA/MA_855/IMG_12_855.jpg"",""SV_PolicingMSA/MA_855/IMG_9_855.jpg"",""SV_PolicingMSA/MA_855/IMG_1_855.jpg"",""SV_PolicingMSA/MA_855/IMG_5_855.jpg"",""SV_PolicingMSA/MA_855/IMG_0_855.jpg"",""SV_PolicingMSA/MA_855/IMG_8_855.jpg""]","4","","","","","","2","","4","[""./rc_img/cop_condGroup_10_SafeStreets_autoscaled.png"",""./rc_img/cop_condGroup_10_CommunitySafety_autoscaled.png""]","4","",""
"sliderTrial","html-slider-response","20","128323","0.0-20.0","","656776a7904ae00d6b91d1dd","6568ada07d6d1fdef115b01e","15","","","","","","","","","","","","3028","[""SV_PolicingMSA/MA_855/IMG_11_855.jpg"",""SV_PolicingMSA/MA_855/IMG_14_855.jpg"",""SV_PolicingMSA/MA_855/IMG_12_855.jpg"",""SV_PolicingMSA/MA_855/IMG_9_855.jpg"",""SV_PolicingMSA/MA_855/IMG_1_855.jpg"",""SV_PolicingMSA/MA_855/IMG_5_855.jpg"",""SV_PolicingMSA/MA_855/IMG_0_855.jpg"",""SV_PolicingMSA/MA_855/IMG_8_855.jpg""]","4","","","","","","2","","4","[""./rc_img/cop_condGroup_9_CommunitySafety_autoscaled.png"",""./rc_img/cop_condGroup_9_SafeStreets_autoscaled.png""]","4","",""
"sliderTrial","html-slider-response","21","132411","0.0-21.0","","656776a7904ae00d6b91d1dd","6568ada07d6d1fdef115b01e","15","","","","","","","","","","","","4085","[""SV_PolicingMSA/MA_855/IMG_11_855.jpg"",""SV_PolicingMSA/MA_855/IMG_14_855.jpg"",""SV_PolicingMSA/MA_855/IMG_12_855.jpg"",""SV_PolicingMSA/MA_855/IMG_9_855.jpg"",""SV_PolicingMSA/MA_855/IMG_1_855.jpg"",""SV_PolicingMSA/MA_855/IMG_5_855.jpg"",""SV_PolicingMSA/MA_855/IMG_0_855.jpg"",""SV_PolicingMSA/MA_855/IMG_8_855.jpg""]","6","","","","","","2","","4","[""./rc_img/cop_condGroup_18_SafeStreets_autoscaled.png"",""./rc_img/cop_condGroup_18_CommunitySafety_autoscaled.png""]","2","",""
"sliderTrial","html-slider-response","22","135012","0.0-22.0","","656776a7904ae00d6b91d1dd","6568ada07d6d1fdef115b01e","15","","","","","","","","","","","","2597","[""SV_PolicingMSA/MA_855/IMG_11_855.jpg"",""SV_PolicingMSA/MA_855/IMG_14_855.jpg"",""SV_PolicingMSA/MA_855/IMG_12_855.jpg"",""SV_PolicingMSA/MA_855/IMG_9_855.jpg"",""SV_PolicingMSA/MA_855/IMG_1_855.jpg"",""SV_PolicingMSA/MA_855/IMG_5_855.jpg"",""SV_PolicingMSA/MA_855/IMG_0_855.jpg"",""SV_PolicingMSA/MA_855/IMG_8_855.jpg""]","5","","","","","","2","","4","[""./rc_img/cop_condGroup_2_SafeStreets_autoscaled.png"",""./rc_img/cop_condGroup_2_CommunitySafety_autoscaled.png""]","3","",""
"before_SVSlide_prompt","html-button-response","23","136088","0.0-23.0","","656776a7904ae00d6b91d1dd","6568ada07d6d1fdef115b01e","15","","","","","","","","","","","","1074","Click [Next] to see the next neighborhood!","0","","","","","","","","","","","",""
"street view slide show","image-button-response","24","137096","0.0-24.0","","656776a7904ae00d6b91d1dd","6568ada07d6d1fdef115b01e","15","","","","","","","","","","","","null","stimulus/SV_PolicingMSA/MA_157/IMG_0_157.jpg","null","","","","","","3","","","","","",""
"street view slide show","image-button-response","25","138112","0.0-25.0","","656776a7904ae00d6b91d1dd","6568ada07d6d1fdef115b01e","15","","","","","","","","","","","","null","stimulus/SV_PolicingMSA/MA_157/IMG_3_157.jpg","null","","","","","","3","","","","","",""
"street view slide show","image-button-response","26","139116","0.0-26.0","","656776a7904ae00d6b91d1dd","6568ada07d6d1fdef115b01e","15","","","","","","","","","","","","null","stimulus/SV_PolicingMSA/MA_157/IMG_13_157.jpg","null","","","","","","3","","","","","",""
"street view slide show","image-button-response","27","140123","0.0-27.0","","656776a7904ae00d6b91d1dd","6568ada07d6d1fdef115b01e","15","","","","","","","","","","","","null","stimulus/SV_PolicingMSA/MA_157/IMG_4_157.jpg","null","","","","","","3","","","","","",""
"street view slide show","image-button-response","28","141127","0.0-28.0","","656776a7904ae00d6b91d1dd","6568ada07d6d1fdef115b01e","15","","","","","","","","","","","","null","stimulus/SV_PolicingMSA/MA_157/IMG_1_157.jpg","null","","","","","","3","","","","","",""
"street view slide show","image-button-response","29","142130","0.0-29.0","","656776a7904ae00d6b91d1dd","6568ada07d6d1fdef115b01e","15","","","","","","","","","","","","null","stimulus/SV_PolicingMSA/MA_157/IMG_2_157.jpg","null","","","","","","3","","","","","",""
"street view slide show","image-button-response","30","143143","0.0-30.0","","656776a7904ae00d6b91d1dd","6568ada07d6d1fdef115b01e","15","","","","","","","","","","","","null","stimulus/SV_PolicingMSA/MA_157/IMG_5_157.jpg","null","","","","","","3","","","","","",""
"street view slide show","image-button-response","31","144152","0.0-31.0","","656776a7904ae00d6b91d1dd","6568ada07d6d1fdef115b01e","15","","","","","","","","","","","","null","stimulus/SV_PolicingMSA/MA_157/IMG_7_157.jpg","null","","","","","","3","","","","","",""
"dot matrix survey1","survey","32","158003","0.0-32.0","","656776a7904ae00d6b91d1dd","6568ada07d6d1fdef115b01e","15","","","","","","","","","","","","13821","","{""P0_Q0"":null,""P0_Q1"":{""wealthy"":1,""safe"":2,""walkable"":2,""traditional"":2,""diverse"":1}}","","","","","","3","[]","","","","",""
"dot matrix survey2","survey","33","164845","0.0-33.0","","656776a7904ae00d6b91d1dd","6568ada07d6d1fdef115b01e","15","","","","","","","","","","","","6828","","{""P0_Q0"":null,""P0_Q1"":{""violence"":2,""drug"":2,""crime"":2,""schools"":2,""opportunities"":1}}","","","","","","3","[]","","","","",""
"dot matrix survey3","survey","34","177948","0.0-34.0","","656776a7904ae00d6b91d1dd","6568ada07d6d1fdef115b01e","15","","","","","","","","","","","","13092","","{""P0_Q0"":null,""P0_Q1"":{""movein"":2,""moveout"":2,""shopping"":2,""walk"":2,""park"":2,""school"":2}}","","","","","","3","[]","","","","",""
"sliderTrial","html-slider-response","35","181526","0.0-35.0","","656776a7904ae00d6b91d1dd","6568ada07d6d1fdef115b01e","15","","","","","","","","","","","","3575","[""SV_PolicingMSA/MA_157/IMG_0_157.jpg"",""SV_PolicingMSA/MA_157/IMG_3_157.jpg"",""SV_PolicingMSA/MA_157/IMG_13_157.jpg"",""SV_PolicingMSA/MA_157/IMG_4_157.jpg"",""SV_PolicingMSA/MA_157/IMG_1_157.jpg"",""SV_PolicingMSA/MA_157/IMG_2_157.jpg"",""SV_PolicingMSA/MA_157/IMG_5_157.jpg"",""SV_PolicingMSA/MA_157/IMG_7_157.jpg""]","6","","","","","","3","","4","[""./rc_img/cop_condGroup_16_SafeStreets_autoscaled.png"",""./rc_img/cop_condGroup_16_CommunitySafety_autoscaled.png""]","2","",""
"sliderTrial","html-slider-response","36","183431","0.0-36.0","","656776a7904ae00d6b91d1dd","6568ada07d6d1fdef115b01e","15","","","","","","","","","","","","1902","[""SV_PolicingMSA/MA_157/IMG_0_157.jpg"",""SV_PolicingMSA/MA_157/IMG_3_157.jpg"",""SV_PolicingMSA/MA_157/IMG_13_157.jpg"",""SV_PolicingMSA/MA_157/IMG_4_157.jpg"",""SV_PolicingMSA/MA_157/IMG_1_157.jpg"",""SV_PolicingMSA/MA_157/IMG_2_157.jpg"",""SV_PolicingMSA/MA_157/IMG_5_157.jpg"",""SV_PolicingMSA/MA_157/IMG_7_157.jpg""]","5","","","","","","3","","4","[""./rc_img/cop_condGroup_12_SafeStreets_autoscaled.png"",""./rc_img/cop_condGroup_12_CommunitySafety_autoscaled.png""]","3","",""
"sliderTrial","html-slider-response","37","185233","0.0-37.0","","656776a7904ae00d6b91d1dd","6568ada07d6d1fdef115b01e","15","","","","","","","","","","","","1799","[""SV_PolicingMSA/MA_157/IMG_0_157.jpg"",""SV_PolicingMSA/MA_157/IMG_3_157.jpg"",""SV_PolicingMSA/MA_157/IMG_13_157.jpg"",""SV_PolicingMSA/MA_157/IMG_4_157.jpg"",""SV_PolicingMSA/MA_157/IMG_1_157.jpg"",""SV_PolicingMSA/MA_157/IMG_2_157.jpg"",""SV_PolicingMSA/MA_157/IMG_5_157.jpg"",""SV_PolicingMSA/MA_157/IMG_7_157.jpg""]","5","","","","","","3","","4","[""./rc_img/cop_condGroup_20_SafeStreets_autoscaled.png"",""./rc_img/cop_condGroup_20_CommunitySafety_autoscaled.png""]","3","",""
"sliderTrial","html-slider-response","38","187819","0.0-38.0","","656776a7904ae00d6b91d1dd","6568ada07d6d1fdef115b01e","15","","","","","","","","","","","","2583","[""SV_PolicingMSA/MA_157/IMG_0_157.jpg"",""SV_PolicingMSA/MA_157/IMG_3_157.jpg"",""SV_PolicingMSA/MA_157/IMG_13_157.jpg"",""SV_PolicingMSA/MA_157/IMG_4_157.jpg"",""SV_PolicingMSA/MA_157/IMG_1_157.jpg"",""SV_PolicingMSA/MA_157/IMG_2_157.jpg"",""SV_PolicingMSA/MA_157/IMG_5_157.jpg"",""SV_PolicingMSA/MA_157/IMG_7_157.jpg""]","6","","","","","","3","","4","[""./rc_img/cop_condGroup_3_SafeStreets_autoscaled.png"",""./rc_img/cop_condGroup_3_CommunitySafety_autoscaled.png""]","2","",""
"sliderTrial","html-slider-response","39","189568","0.0-39.0","","656776a7904ae00d6b91d1dd","6568ada07d6d1fdef115b01e","15","","","","","","","","","","","","1745","[""SV_PolicingMSA/MA_157/IMG_0_157.jpg"",""SV_PolicingMSA/MA_157/IMG_3_157.jpg"",""SV_PolicingMSA/MA_157/IMG_13_157.jpg"",""SV_PolicingMSA/MA_157/IMG_4_157.jpg"",""SV_PolicingMSA/MA_157/IMG_1_157.jpg"",""SV_PolicingMSA/MA_157/IMG_2_157.jpg"",""SV_PolicingMSA/MA_157/IMG_5_157.jpg"",""SV_PolicingMSA/MA_157/IMG_7_157.jpg""]","3","","","","","","3","","4","[""./rc_img/cop_condGroup_7_CommunitySafety_autoscaled.png"",""./rc_img/cop_condGroup_7_SafeStreets_autoscaled.png""]","3","",""
"before_SVSlide_prompt","html-button-response","40","190574","0.0-40.0","","656776a7904ae00d6b91d1dd","6568ada07d6d1fdef115b01e","15","","","","","","","","","","","","1004","Click [Next] to see the next neighborhood!","0","","","","","","","","","","","",""
"street view slide show","image-button-response","41","191587","0.0-41.0","","656776a7904ae00d6b91d1dd","6568ada07d6d1fdef115b01e","15","","","","","","","","","","","","null","stimulus/SV_PolicingMSA/MA_181/IMG_5_181.jpg","null","","","","","","3","","","","","",""
"street view slide show","image-button-response","42","192595","0.0-42.0","","656776a7904ae00d6b91d1dd","6568ada07d6d1fdef115b01e","15","","","","","","","","","","","","null","stimulus/SV_PolicingMSA/MA_181/IMG_8_181.jpg","null","","","","","","3","","","","","",""
"street view slide show","image-button-response","43","193607","0.0-43.0","","656776a7904ae00d6b91d1dd","6568ada07d6d1fdef115b01e","15","","","","","","","","","","","","null","stimulus/SV_PolicingMSA/MA_181/IMG_7_181.jpg","null","","","","","","3","","","","","",""
"street view slide show","image-button-response","44","194613","0.0-44.0","","656776a7904ae00d6b91d1dd","6568ada07d6d1fdef115b01e","15","","","","","","","","","","","","null","stimulus/SV_PolicingMSA/MA_181/IMG_10_181.jpg","null","","","","","","3","","","","","",""
"street view slide show","image-button-response","45","195626","0.0-45.0","","656776a7904ae00d6b91d1dd","6568ada07d6d1fdef115b01e","15","","","","","","","","","","","","null","stimulus/SV_PolicingMSA/MA_181/IMG_6_181.jpg","null","","","","","","3","","","","","",""
"street view slide show","image-button-response","46","196640","0.0-46.0","","656776a7904ae00d6b91d1dd","6568ada07d6d1fdef115b01e","15","","","","","","","","","","","","null","stimulus/SV_PolicingMSA/MA_181/IMG_4_181.jpg","null","","","","","","3","","","","","",""
"street view slide show","image-button-response","47","197650","0.0-47.0","","656776a7904ae00d6b91d1dd","6568ada07d6d1fdef115b01e","15","","","","","","","","","","","","null","stimulus/SV_PolicingMSA/MA_181/IMG_2_181.jpg","null","","","","","","3","","","","","",""
"street view slide show","image-button-response","48","198665","0.0-48.0","","656776a7904ae00d6b91d1dd","6568ada07d6d1fdef115b01e","15","","","","","","","","","","","","null","stimulus/SV_PolicingMSA/MA_181/IMG_3_181.jpg","null","","","","","","3","","","","","",""
"dot matrix survey1","survey","49","212618","0.0-49.0","","656776a7904ae00d6b91d1dd","6568ada07d6d1fdef115b01e","15","","","","","","","","","","","","13923","","{""P0_Q0"":null,""P0_Q1"":{""wealthy"":1,""safe"":2,""walkable"":2,""traditional"":2,""diverse"":1}}","","","","","","3","[]","","","","",""
"dot matrix survey2","survey","50","218555","0.0-50.0","","656776a7904ae00d6b91d1dd","6568ada07d6d1fdef115b01e","15","","","","","","","","","","","","5927","","{""P0_Q0"":null,""P0_Q1"":{""violence"":2,""crime"":2,""drug"":2,""schools"":2,""opportunities"":1}}","","","","","","3","[]","","","","",""
"dot matrix survey3","survey","51","228018","0.0-51.0","","656776a7904ae00d6b91d1dd","6568ada07d6d1fdef115b01e","15","","","","","","","","","","","","9451","","{""P0_Q0"":null,""P0_Q1"":{""movein"":2,""moveout"":2,""shopping"":2,""walk"":2,""park"":2,""school"":2}}","","","","","","3","[]","","","","",""
"sliderTrial","html-slider-response","52","231222","0.0-52.0","","656776a7904ae00d6b91d1dd","6568ada07d6d1fdef115b01e","15","","","","","","","","","","","","3202","[""SV_PolicingMSA/MA_181/IMG_5_181.jpg"",""SV_PolicingMSA/MA_181/IMG_8_181.jpg"",""SV_PolicingMSA/MA_181/IMG_7_181.jpg"",""SV_PolicingMSA/MA_181/IMG_10_181.jpg"",""SV_PolicingMSA/MA_181/IMG_6_181.jpg"",""SV_PolicingMSA/MA_181/IMG_4_181.jpg"",""SV_PolicingMSA/MA_181/IMG_2_181.jpg"",""SV_PolicingMSA/MA_181/IMG_3_181.jpg""]","2","","","","","","3","","4","[""./rc_img/cop_condGroup_8_CommunitySafety_autoscaled.png"",""./rc_img/cop_condGroup_8_SafeStreets_autoscaled.png""]","2","",""
"sliderTrial","html-slider-response","53","232918","0.0-53.0","","656776a7904ae00d6b91d1dd","6568ada07d6d1fdef115b01e","15","","","","","","","","","","","","1693","[""SV_PolicingMSA/MA_181/IMG_5_181.jpg"",""SV_PolicingMSA/MA_181/IMG_8_181.jpg"",""SV_PolicingMSA/MA_181/IMG_7_181.jpg"",""SV_PolicingMSA/MA_181/IMG_10_181.jpg"",""SV_PolicingMSA/MA_181/IMG_6_181.jpg"",""SV_PolicingMSA/MA_181/IMG_4_181.jpg"",""SV_PolicingMSA/MA_181/IMG_2_181.jpg"",""SV_PolicingMSA/MA_181/IMG_3_181.jpg""]","6","","","","","","3","","4","[""./rc_img/cop_condGroup_6_SafeStreets_autoscaled.png"",""./rc_img/cop_condGroup_6_CommunitySafety_autoscaled.png""]","2","",""
"sliderTrial","html-slider-response","54","235332","0.0-54.0","","656776a7904ae00d6b91d1dd","6568ada07d6d1fdef115b01e","15","","","","","","","","","","","","2411","[""SV_PolicingMSA/MA_181/IMG_5_181.jpg"",""SV_PolicingMSA/MA_181/IMG_8_181.jpg"",""SV_PolicingMSA/MA_181/IMG_7_181.jpg"",""SV_PolicingMSA/MA_181/IMG_10_181.jpg"",""SV_PolicingMSA/MA_181/IMG_6_181.jpg"",""SV_PolicingMSA/MA_181/IMG_4_181.jpg"",""SV_PolicingMSA/MA_181/IMG_2_181.jpg"",""SV_PolicingMSA/MA_181/IMG_3_181.jpg""]","5","","","","","","3","","4","[""./rc_img/cop_condGroup_17_SafeStreets_autoscaled.png"",""./rc_img/cop_condGroup_17_CommunitySafety_autoscaled.png""]","3","",""
"sliderTrial","html-slider-response","55","238011","0.0-55.0","","656776a7904ae00d6b91d1dd","6568ada07d6d1fdef115b01e","15","","","","","","","","","","","","2676","[""SV_PolicingMSA/MA_181/IMG_5_181.jpg"",""SV_PolicingMSA/MA_181/IMG_8_181.jpg"",""SV_PolicingMSA/MA_181/IMG_7_181.jpg"",""SV_PolicingMSA/MA_181/IMG_10_181.jpg"",""SV_PolicingMSA/MA_181/IMG_6_181.jpg"",""SV_PolicingMSA/MA_181/IMG_4_181.jpg"",""SV_PolicingMSA/MA_181/IMG_2_181.jpg"",""SV_PolicingMSA/MA_181/IMG_3_181.jpg""]","5","","","","","","3","","4","[""./rc_img/cop_condGroup_5_SafeStreets_autoscaled.png"",""./rc_img/cop_condGroup_5_CommunitySafety_autoscaled.png""]","3","",""
"sliderTrial","html-slider-response","56","239869","0.0-56.0","","656776a7904ae00d6b91d1dd","6568ada07d6d1fdef115b01e","15","","","","","","","","","","","","1855","[""SV_PolicingMSA/MA_181/IMG_5_181.jpg"",""SV_PolicingMSA/MA_181/IMG_8_181.jpg"",""SV_PolicingMSA/MA_181/IMG_7_181.jpg"",""SV_PolicingMSA/MA_181/IMG_10_181.jpg"",""SV_PolicingMSA/MA_181/IMG_6_181.jpg"",""SV_PolicingMSA/MA_181/IMG_4_181.jpg"",""SV_PolicingMSA/MA_181/IMG_2_181.jpg"",""SV_PolicingMSA/MA_181/IMG_3_181.jpg""]","3","","","","","","3","","4","[""./rc_img/cop_condGroup_1_CommunitySafety_autoscaled.png"",""./rc_img/cop_condGroup_1_SafeStreets_autoscaled.png""]","3","",""
"before_SVSlide_prompt","html-button-response","57","241029","0.0-57.0","","656776a7904ae00d6b91d1dd","6568ada07d6d1fdef115b01e","15","","","","","","","","","","","","1158","Click [Next] to see the next neighborhood!","0","","","","","","","","","","","",""
"street view slide show","image-button-response","58","242033","0.0-58.0","","656776a7904ae00d6b91d1dd","6568ada07d6d1fdef115b01e","15","","","","","","","","","","","","null","stimulus/SV_PolicingMSA/MA_185/IMG_13_185.jpg","null","","","","","","0","","","","","",""
"street view slide show","image-button-response","59","243034","0.0-59.0","","656776a7904ae00d6b91d1dd","6568ada07d6d1fdef115b01e","15","","","","","","","","","","","","null","stimulus/SV_PolicingMSA/MA_185/IMG_1_185.jpg","null","","","","","","0","","","","","",""
"street view slide show","image-button-response","60","244044","0.0-60.0","","656776a7904ae00d6b91d1dd","6568ada07d6d1fdef115b01e","15","","","","","","","","","","","","null","stimulus/SV_PolicingMSA/MA_185/IMG_8_185.jpg","null","","","","","","0","","","","","",""
"street view slide show","image-button-response","61","245057","0.0-61.0","","656776a7904ae00d6b91d1dd","6568ada07d6d1fdef115b01e","15","","","","","","","","","","","","null","stimulus/SV_PolicingMSA/MA_185/IMG_5_185.jpg","null","","","","","","0","","","","","",""
"street view slide show","image-button-response","62","246059","0.0-62.0","","656776a7904ae00d6b91d1dd","6568ada07d6d1fdef115b01e","15","","","","","","","","","","","","null","stimulus/SV_PolicingMSA/MA_185/IMG_6_185.jpg","null","","","","","","0","","","","","",""
"street view slide show","image-button-response","63","247065","0.0-63.0","","656776a7904ae00d6b91d1dd","6568ada07d6d1fdef115b01e","15","","","","","","","","","","","","null","stimulus/SV_PolicingMSA/MA_185/IMG_11_185.jpg","null","","","","","","0","","","","","",""
"street view slide show","image-button-response","64","248076","0.0-64.0","","656776a7904ae00d6b91d1dd","6568ada07d6d1fdef115b01e","15","","","","","","","","","","","","null","stimulus/SV_PolicingMSA/MA_185/IMG_2_185.jpg","null","","","","","","0","","","","","",""
"street view slide show","image-button-response","65","249077","0.0-65.0","","656776a7904ae00d6b91d1dd","6568ada07d6d1fdef115b01e","15","","","","","","","","","","","","null","stimulus/SV_PolicingMSA/MA_185/IMG_3_185.jpg","null","","","","","","0","","","","","",""
"dot matrix survey1","survey","66","257610","0.0-66.0","","656776a7904ae00d6b91d1dd","6568ada07d6d1fdef115b01e","15","","","","","","","","","","","","8515","","{""P0_Q0"":null,""P0_Q1"":{""wealthy"":0,""safe"":2,""walkable"":2,""traditional"":2,""diverse"":1}}","","","","","","0","[]","","","","",""
"dot matrix survey2","survey","67","263035","0.0-67.0","","656776a7904ae00d6b91d1dd","6568ada07d6d1fdef115b01e","15","","","","","","","","","","","","5413","","{""P0_Q0"":null,""P0_Q1"":{""violence"":2,""crime"":2,""drug"":2,""schools"":1,""opportunities"":1}}","","","","","","0","[]","","","","",""
"dot matrix survey3","survey","68","271729","0.0-68.0","","656776a7904ae00d6b91d1dd","6568ada07d6d1fdef115b01e","15","","","","","","","","","","","","8681","","{""P0_Q0"":null,""P0_Q1"":{""movein"":2,""moveout"":2,""shopping"":2,""walk"":2,""park"":2,""school"":2}}","","","","","","0","[]","","","","",""
"sliderTrial","html-slider-response","69","274129","0.0-69.0","","656776a7904ae00d6b91d1dd","6568ada07d6d1fdef115b01e","15","","","","","","","","","","","","2397","[""SV_PolicingMSA/MA_185/IMG_13_185.jpg"",""SV_PolicingMSA/MA_185/IMG_1_185.jpg"",""SV_PolicingMSA/MA_185/IMG_8_185.jpg"",""SV_PolicingMSA/MA_185/IMG_5_185.jpg"",""SV_PolicingMSA/MA_185/IMG_6_185.jpg"",""SV_PolicingMSA/MA_185/IMG_11_185.jpg"",""SV_PolicingMSA/MA_185/IMG_2_185.jpg"",""SV_PolicingMSA/MA_185/IMG_3_185.jpg""]","6","","","","","","0","","4","[""./rc_img/cop_condGroup_11_SafeStreets_autoscaled.png"",""./rc_img/cop_condGroup_11_CommunitySafety_autoscaled.png""]","2","",""
"sliderTrial","html-slider-response","70","276729","0.0-70.0","","656776a7904ae00d6b91d1dd","6568ada07d6d1fdef115b01e","15","","","","","","","","","","","","2597","[""SV_PolicingMSA/MA_185/IMG_13_185.jpg"",""SV_PolicingMSA/MA_185/IMG_1_185.jpg"",""SV_PolicingMSA/MA_185/IMG_8_185.jpg"",""SV_PolicingMSA/MA_185/IMG_5_185.jpg"",""SV_PolicingMSA/MA_185/IMG_6_185.jpg"",""SV_PolicingMSA/MA_185/IMG_11_185.jpg"",""SV_PolicingMSA/MA_185/IMG_2_185.jpg"",""SV_PolicingMSA/MA_185/IMG_3_185.jpg""]","2","","","","","","0","","4","[""./rc_img/cop_condGroup_13_CommunitySafety_autoscaled.png"",""./rc_img/cop_condGroup_13_SafeStreets_autoscaled.png""]","2","",""
"sliderTrial","html-slider-response","71","278503","0.0-71.0","","656776a7904ae00d6b91d1dd","6568ada07d6d1fdef115b01e","15","","","","","","","","","","","","1771","[""SV_PolicingMSA/MA_185/IMG_13_185.jpg"",""SV_PolicingMSA/MA_185/IMG_1_185.jpg"",""SV_PolicingMSA/MA_185/IMG_8_185.jpg"",""SV_PolicingMSA/MA_185/IMG_5_185.jpg"",""SV_PolicingMSA/MA_185/IMG_6_185.jpg"",""SV_PolicingMSA/MA_185/IMG_11_185.jpg"",""SV_PolicingMSA/MA_185/IMG_2_185.jpg"",""SV_PolicingMSA/MA_185/IMG_3_185.jpg""]","3","","","","","","0","","4","[""./rc_img/cop_condGroup_19_CommunitySafety_autoscaled.png"",""./rc_img/cop_condGroup_19_SafeStreets_autoscaled.png""]","3","",""
"sliderTrial","html-slider-response","72","280616","0.0-72.0","","656776a7904ae00d6b91d1dd","6568ada07d6d1fdef115b01e","15","","","","","","","","","","","","2109","[""SV_PolicingMSA/MA_185/IMG_13_185.jpg"",""SV_PolicingMSA/MA_185/IMG_1_185.jpg"",""SV_PolicingMSA/MA_185/IMG_8_185.jpg"",""SV_PolicingMSA/MA_185/IMG_5_185.jpg"",""SV_PolicingMSA/MA_185/IMG_6_185.jpg"",""SV_PolicingMSA/MA_185/IMG_11_185.jpg"",""SV_PolicingMSA/MA_185/IMG_2_185.jpg"",""SV_PolicingMSA/MA_185/IMG_3_185.jpg""]","2","","","","","","0","","4","[""./rc_img/cop_condGroup_4_CommunitySafety_autoscaled.png"",""./rc_img/cop_condGroup_4_SafeStreets_autoscaled.png""]","2","",""
"sliderTrial_attention","html-slider-response","73","290635","0.0-73.0","","656776a7904ae00d6b91d1dd","6568ada07d6d1fdef115b01e","15","","","","","","","","","","","","null","[""SV_PolicingMSA/MA_185/IMG_13_185.jpg"",""SV_PolicingMSA/MA_185/IMG_1_185.jpg"",""SV_PolicingMSA/MA_185/IMG_8_185.jpg"",""SV_PolicingMSA/MA_185/IMG_5_185.jpg"",""SV_PolicingMSA/MA_185/IMG_6_185.jpg"",""SV_PolicingMSA/MA_185/IMG_11_185.jpg"",""SV_PolicingMSA/MA_185/IMG_2_185.jpg"",""SV_PolicingMSA/MA_185/IMG_3_185.jpg""]","null","","","","","","0","","4","[""./assets/img/attnchk.png"",""./assets/img/attnchk.png""]","","true",""
"sliderTrial","html-slider-response","74","300228","0.0-74.0","","656776a7904ae00d6b91d1dd","6568ada07d6d1fdef115b01e","15","","","","","","","","","","","","9590","[""SV_PolicingMSA/MA_185/IMG_13_185.jpg"",""SV_PolicingMSA/MA_185/IMG_1_185.jpg"",""SV_PolicingMSA/MA_185/IMG_8_185.jpg"",""SV_PolicingMSA/MA_185/IMG_5_185.jpg"",""SV_PolicingMSA/MA_185/IMG_6_185.jpg"",""SV_PolicingMSA/MA_185/IMG_11_185.jpg"",""SV_PolicingMSA/MA_185/IMG_2_185.jpg"",""SV_PolicingMSA/MA_185/IMG_3_185.jpg""]","3","","","","","","0","","4","[""./rc_img/cop_condGroup_14_CommunitySafety_autoscaled.png"",""./rc_img/cop_condGroup_14_SafeStreets_autoscaled.png""]","3","",""
"half-way","html-button-response","75","316527","0.0-75.0","","656776a7904ae00d6b91d1dd","6568ada07d6d1fdef115b01e","15","","","","","","","","","","","","null","
    <h3>You are now half way through the study.</h3>
    <p>Please take a quick, 15-second break before you continue.</p>
    <img src='assets/img/countdown-15.gif'>
    <p>The study will automatically advance forward after the countdown is complete. <br> However, you may click ""Next"" to advance forward now if you wish.</p>
    ","null","","","","","","","","","","","",""
"before_SVSlide_prompt","html-button-response","76","327216","0.0-76.0","","656776a7904ae00d6b91d1dd","6568ada07d6d1fdef115b01e","15","","","","","","","","","","","","10687","Click [Next] to see the next neighborhood!","0","","","","","","","","","","","",""
"street view slide show","image-button-response","77","328221","0.0-77.0","","656776a7904ae00d6b91d1dd","6568ada07d6d1fdef115b01e","15","","","","","","","","","","","","null","stimulus/SV_PolicingMSA/MA_1486/IMG_8_1486.jpg","null","","","","","","2","","","","","",""
"street view slide show","image-button-response","78","329229","0.0-78.0","","656776a7904ae00d6b91d1dd","6568ada07d6d1fdef115b01e","15","","","","","","","","","","","","null","stimulus/SV_PolicingMSA/MA_1486/IMG_9_1486.jpg","null","","","","","","2","","","","","",""
"street view slide show","image-button-response","79","330235","0.0-79.0","","656776a7904ae00d6b91d1dd","6568ada07d6d1fdef115b01e","15","","","","","","","","","","","","null","stimulus/SV_PolicingMSA/MA_1486/IMG_5_1486.jpg","null","","","","","","2","","","","","",""
"street view slide show","image-button-response","80","331249","0.0-80.0","","656776a7904ae00d6b91d1dd","6568ada07d6d1fdef115b01e","15","","","","","","","","","","","","null","stimulus/SV_PolicingMSA/MA_1486/IMG_4_1486.jpg","null","","","","","","2","","","","","",""
"street view slide show","image-button-response","81","332253","0.0-81.0","","656776a7904ae00d6b91d1dd","6568ada07d6d1fdef115b01e","15","","","","","","","","","","","","null","stimulus/SV_PolicingMSA/MA_1486/IMG_0_1486.jpg","null","","","","","","2","","","","","",""
"street view slide show","image-button-response","82","333267","0.0-82.0","","656776a7904ae00d6b91d1dd","6568ada07d6d1fdef115b01e","15","","","","","","","","","","","","null","stimulus/SV_PolicingMSA/MA_1486/IMG_12_1486.jpg","null","","","","","","2","","","","","",""
"street view slide show","image-button-response","83","334284","0.0-83.0","","656776a7904ae00d6b91d1dd","6568ada07d6d1fdef115b01e","15","","","","","","","","","","","","null","stimulus/SV_PolicingMSA/MA_1486/IMG_11_1486.jpg","null","","","","","","2","","","","","",""
"street view slide show","image-button-response","84","335296","0.0-84.0","","656776a7904ae00d6b91d1dd","6568ada07d6d1fdef115b01e","15","","","","","","","","","","","","null","stimulus/SV_PolicingMSA/MA_1486/IMG_13_1486.jpg","null","","","","","","2","","","","","",""
"dot matrix survey1","survey","85","345202","0.0-85.0","","656776a7904ae00d6b91d1dd","6568ada07d6d1fdef115b01e","15","","","","","","","","","","","","9889","","{""P0_Q0"":null,""P0_Q1"":{""wealthy"":0,""safe"":1,""walkable"":1,""traditional"":1,""diverse"":1}}","","","","","","2","[]","","","","",""
"dot matrix survey2","survey","86","352104","0.0-86.0","","656776a7904ae00d6b91d1dd","6568ada07d6d1fdef115b01e","15","","","","","","","","","","","","6890","","{""P0_Q0"":null,""P0_Q1"":{""violence"":3,""crime"":3,""drug"":3,""schools"":1,""opportunities"":1}}","","","","","","2","[]","","","","",""
"dot matrix survey3","survey","87","366221","0.0-87.0","","656776a7904ae00d6b91d1dd","6568ada07d6d1fdef115b01e","15","","","","","","","","","","","","14107","","{""P0_Q0"":null,""P0_Q1"":{""movein"":1,""moveout"":3,""shopping"":2,""walk"":1,""park"":1,""school"":1}}","","","","","","2","[]","","","","",""
"sliderTrial","html-slider-response","88","368373","0.0-88.0","","656776a7904ae00d6b91d1dd","6568ada07d6d1fdef115b01e","15","","","","","","","","","","","","2149","[""SV_PolicingMSA/MA_1486/IMG_8_1486.jpg"",""SV_PolicingMSA/MA_1486/IMG_9_1486.jpg"",""SV_PolicingMSA/MA_1486/IMG_5_1486.jpg"",""SV_PolicingMSA/MA_1486/IMG_4_1486.jpg"",""SV_PolicingMSA/MA_1486/IMG_0_1486.jpg"",""SV_PolicingMSA/MA_1486/IMG_12_1486.jpg"",""SV_PolicingMSA/MA_1486/IMG_11_1486.jpg"",""SV_PolicingMSA/MA_1486/IMG_13_1486.jpg""]","6","","","","","","2","","4","[""./rc_img/cop_condGroup_11_SafeStreets_autoscaled.png"",""./rc_img/cop_condGroup_11_CommunitySafety_autoscaled.png""]","2","",""
"sliderTrial","html-slider-response","89","369781","0.0-89.0","","656776a7904ae00d6b91d1dd","6568ada07d6d1fdef115b01e","15","","","","","","","","","","","","1406","[""SV_PolicingMSA/MA_1486/IMG_8_1486.jpg"",""SV_PolicingMSA/MA_1486/IMG_9_1486.jpg"",""SV_PolicingMSA/MA_1486/IMG_5_1486.jpg"",""SV_PolicingMSA/MA_1486/IMG_4_1486.jpg"",""SV_PolicingMSA/MA_1486/IMG_0_1486.jpg"",""SV_PolicingMSA/MA_1486/IMG_12_1486.jpg"",""SV_PolicingMSA/MA_1486/IMG_11_1486.jpg"",""SV_PolicingMSA/MA_1486/IMG_13_1486.jpg""]","3","","","","","","2","","4","[""./rc_img/cop_condGroup_13_CommunitySafety_autoscaled.png"",""./rc_img/cop_condGroup_13_SafeStreets_autoscaled.png""]","3","",""
"sliderTrial","html-slider-response","90","372189","0.0-90.0","","656776a7904ae00d6b91d1dd","6568ada07d6d1fdef115b01e","15","","","","","","","","","","","","2405","[""SV_PolicingMSA/MA_1486/IMG_8_1486.jpg"",""SV_PolicingMSA/MA_1486/IMG_9_1486.jpg"",""SV_PolicingMSA/MA_1486/IMG_5_1486.jpg"",""SV_PolicingMSA/MA_1486/IMG_4_1486.jpg"",""SV_PolicingMSA/MA_1486/IMG_0_1486.jpg"",""SV_PolicingMSA/MA_1486/IMG_12_1486.jpg"",""SV_PolicingMSA/MA_1486/IMG_11_1486.jpg"",""SV_PolicingMSA/MA_1486/IMG_13_1486.jpg""]","3","","","","","","2","","4","[""./rc_img/cop_condGroup_19_CommunitySafety_autoscaled.png"",""./rc_img/cop_condGroup_19_SafeStreets_autoscaled.png""]","3","",""
"sliderTrial","html-slider-response","91","374015","0.0-91.0","","656776a7904ae00d6b91d1dd","6568ada07d6d1fdef115b01e","15","","","","","","","","","","","","1824","[""SV_PolicingMSA/MA_1486/IMG_8_1486.jpg"",""SV_PolicingMSA/MA_1486/IMG_9_1486.jpg"",""SV_PolicingMSA/MA_1486/IMG_5_1486.jpg"",""SV_PolicingMSA/MA_1486/IMG_4_1486.jpg"",""SV_PolicingMSA/MA_1486/IMG_0_1486.jpg"",""SV_PolicingMSA/MA_1486/IMG_12_1486.jpg"",""SV_PolicingMSA/MA_1486/IMG_11_1486.jpg"",""SV_PolicingMSA/MA_1486/IMG_13_1486.jpg""]","4","","","","","","2","","4","[""./rc_img/cop_condGroup_4_CommunitySafety_autoscaled.png"",""./rc_img/cop_condGroup_4_SafeStreets_autoscaled.png""]","4","",""
"sliderTrial","html-slider-response","92","376616","0.0-92.0","","656776a7904ae00d6b91d1dd","6568ada07d6d1fdef115b01e","15","","","","","","","","","","","","2597","[""SV_PolicingMSA/MA_1486/IMG_8_1486.jpg"",""SV_PolicingMSA/MA_1486/IMG_9_1486.jpg"",""SV_PolicingMSA/MA_1486/IMG_5_1486.jpg"",""SV_PolicingMSA/MA_1486/IMG_4_1486.jpg"",""SV_PolicingMSA/MA_1486/IMG_0_1486.jpg"",""SV_PolicingMSA/MA_1486/IMG_12_1486.jpg"",""SV_PolicingMSA/MA_1486/IMG_11_1486.jpg"",""SV_PolicingMSA/MA_1486/IMG_13_1486.jpg""]","4","","","","","","2","","4","[""./rc_img/cop_condGroup_14_CommunitySafety_autoscaled.png"",""./rc_img/cop_condGroup_14_SafeStreets_autoscaled.png""]","4","",""
"before_SVSlide_prompt","html-button-response","93","377543","0.0-93.0","","656776a7904ae00d6b91d1dd","6568ada07d6d1fdef115b01e","15","","","","","","","","","","","","925","Click [Next] to see the next neighborhood!","0","","","","","","","","","","","",""
"street view slide show","image-button-response","94","378550","0.0-94.0","","656776a7904ae00d6b91d1dd","6568ada07d6d1fdef115b01e","15","","","","","","","","","","","","null","stimulus/SV_PolicingMSA/MA_659/IMG_12_659.jpg","null","","","","","","5","","","","","",""
"street view slide show","image-button-response","95","379554","0.0-95.0","","656776a7904ae00d6b91d1dd","6568ada07d6d1fdef115b01e","15","","","","","","","","","","","","null","stimulus/SV_PolicingMSA/MA_659/IMG_4_659.jpg","null","","","","","","5","","","","","",""
"street view slide show","image-button-response","96","380556","0.0-96.0","","656776a7904ae00d6b91d1dd","6568ada07d6d1fdef115b01e","15","","","","","","","","","","","","null","stimulus/SV_PolicingMSA/MA_659/IMG_11_659.jpg","null","","","","","","5","","","","","",""
"street view slide show","image-button-response","97","381561","0.0-97.0","","656776a7904ae00d6b91d1dd","6568ada07d6d1fdef115b01e","15","","","","","","","","","","","","null","stimulus/SV_PolicingMSA/MA_659/IMG_3_659.jpg","null","","","","","","5","","","","","",""
"street view slide show","image-button-response","98","382564","0.0-98.0","","656776a7904ae00d6b91d1dd","6568ada07d6d1fdef115b01e","15","","","","","","","","","","","","null","stimulus/SV_PolicingMSA/MA_659/IMG_14_659.jpg","null","","","","","","5","","","","","",""
"street view slide show","image-button-response","99","383576","0.0-99.0","","656776a7904ae00d6b91d1dd","6568ada07d6d1fdef115b01e","15","","","","","","","","","","","","null","stimulus/SV_PolicingMSA/MA_659/IMG_0_659.jpg","null","","","","","","5","","","","","",""
"street view slide show","image-button-response","100","384584","0.0-100.0","","656776a7904ae00d6b91d1dd","6568ada07d6d1fdef115b01e","15","","","","","","","","","","","","null","stimulus/SV_PolicingMSA/MA_659/IMG_1_659.jpg","null","","","","","","5","","","","","",""
"street view slide show","image-button-response","101","385600","0.0-101.0","","656776a7904ae00d6b91d1dd","6568ada07d6d1fdef115b01e","15","","","","","","","","","","","","null","stimulus/SV_PolicingMSA/MA_659/IMG_13_659.jpg","null","","","","","","5","","","","","",""
"dot matrix survey1","survey","102","399666","0.0-102.0","","656776a7904ae00d6b91d1dd","6568ada07d6d1fdef115b01e","15","","","","","","","","","","","","14040","","{""P0_Q0"":null,""P0_Q1"":{""wealthy"":3,""safe"":2,""walkable"":0,""traditional"":2,""diverse"":1}}","","","","","","5","[]","","","","",""
"dot matrix survey2","survey","103","405353","0.0-103.0","","656776a7904ae00d6b91d1dd","6568ada07d6d1fdef115b01e","15","","","","","","","","","","","","5677","","{""P0_Q0"":null,""P0_Q1"":{""violence"":2,""crime"":2,""drug"":2,""schools"":2,""opportunities"":2}}","","","","","","5","[]","","","","",""
"dot matrix survey3","survey","104","415529","0.0-104.0","","656776a7904ae00d6b91d1dd","6568ada07d6d1fdef115b01e","15","","","","","","","","","","","","10166","","{""P0_Q0"":null,""P0_Q1"":{""movein"":1,""moveout"":3,""shopping"":2,""walk"":1,""park"":1,""school"":2}}","","","","","","5","[]","","","","",""
"sliderTrial","html-slider-response","105","417374","0.0-105.0","","656776a7904ae00d6b91d1dd","6568ada07d6d1fdef115b01e","15","","","","","","","","","","","","1842","[""SV_PolicingMSA/MA_659/IMG_12_659.jpg"",""SV_PolicingMSA/MA_659/IMG_4_659.jpg"",""SV_PolicingMSA/MA_659/IMG_11_659.jpg"",""SV_PolicingMSA/MA_659/IMG_3_659.jpg"",""SV_PolicingMSA/MA_659/IMG_14_659.jpg"",""SV_PolicingMSA/MA_659/IMG_0_659.jpg"",""SV_PolicingMSA/MA_659/IMG_1_659.jpg"",""SV_PolicingMSA/MA_659/IMG_13_659.jpg""]","3","","","","","","5","","4","[""./rc_img/cop_condGroup_8_CommunitySafety_autoscaled.png"",""./rc_img/cop_condGroup_8_SafeStreets_autoscaled.png""]","3","",""
"sliderTrial","html-slider-response","106","418851","0.0-106.0","","656776a7904ae00d6b91d1dd","6568ada07d6d1fdef115b01e","15","","","","","","","","","","","","1473","[""SV_PolicingMSA/MA_659/IMG_12_659.jpg"",""SV_PolicingMSA/MA_659/IMG_4_659.jpg"",""SV_PolicingMSA/MA_659/IMG_11_659.jpg"",""SV_PolicingMSA/MA_659/IMG_3_659.jpg"",""SV_PolicingMSA/MA_659/IMG_14_659.jpg"",""SV_PolicingMSA/MA_659/IMG_0_659.jpg"",""SV_PolicingMSA/MA_659/IMG_1_659.jpg"",""SV_PolicingMSA/MA_659/IMG_13_659.jpg""]","5","","","","","","5","","4","[""./rc_img/cop_condGroup_6_SafeStreets_autoscaled.png"",""./rc_img/cop_condGroup_6_CommunitySafety_autoscaled.png""]","3","",""
"sliderTrial","html-slider-response","107","420888","0.0-107.0","","656776a7904ae00d6b91d1dd","6568ada07d6d1fdef115b01e","15","","","","","","","","","","","","2034","[""SV_PolicingMSA/MA_659/IMG_12_659.jpg"",""SV_PolicingMSA/MA_659/IMG_4_659.jpg"",""SV_PolicingMSA/MA_659/IMG_11_659.jpg"",""SV_PolicingMSA/MA_659/IMG_3_659.jpg"",""SV_PolicingMSA/MA_659/IMG_14_659.jpg"",""SV_PolicingMSA/MA_659/IMG_0_659.jpg"",""SV_PolicingMSA/MA_659/IMG_1_659.jpg"",""SV_PolicingMSA/MA_659/IMG_13_659.jpg""]","5","","","","","","5","","4","[""./rc_img/cop_condGroup_17_SafeStreets_autoscaled.png"",""./rc_img/cop_condGroup_17_CommunitySafety_autoscaled.png""]","3","",""
"sliderTrial","html-slider-response","108","422923","0.0-108.0","","656776a7904ae00d6b91d1dd","6568ada07d6d1fdef115b01e","15","","","","","","","","","","","","2032","[""SV_PolicingMSA/MA_659/IMG_12_659.jpg"",""SV_PolicingMSA/MA_659/IMG_4_659.jpg"",""SV_PolicingMSA/MA_659/IMG_11_659.jpg"",""SV_PolicingMSA/MA_659/IMG_3_659.jpg"",""SV_PolicingMSA/MA_659/IMG_14_659.jpg"",""SV_PolicingMSA/MA_659/IMG_0_659.jpg"",""SV_PolicingMSA/MA_659/IMG_1_659.jpg"",""SV_PolicingMSA/MA_659/IMG_13_659.jpg""]","5","","","","","","5","","4","[""./rc_img/cop_condGroup_5_SafeStreets_autoscaled.png"",""./rc_img/cop_condGroup_5_CommunitySafety_autoscaled.png""]","3","",""
"sliderTrial","html-slider-response","109","425391","0.0-109.0","","656776a7904ae00d6b91d1dd","6568ada07d6d1fdef115b01e","15","","","","","","","","","","","","2465","[""SV_PolicingMSA/MA_659/IMG_12_659.jpg"",""SV_PolicingMSA/MA_659/IMG_4_659.jpg"",""SV_PolicingMSA/MA_659/IMG_11_659.jpg"",""SV_PolicingMSA/MA_659/IMG_3_659.jpg"",""SV_PolicingMSA/MA_659/IMG_14_659.jpg"",""SV_PolicingMSA/MA_659/IMG_0_659.jpg"",""SV_PolicingMSA/MA_659/IMG_1_659.jpg"",""SV_PolicingMSA/MA_659/IMG_13_659.jpg""]","3","","","","","","5","","4","[""./rc_img/cop_condGroup_1_CommunitySafety_autoscaled.png"",""./rc_img/cop_condGroup_1_SafeStreets_autoscaled.png""]","3","",""
"before_SVSlide_prompt","html-button-response","110","426260","0.0-110.0","","656776a7904ae00d6b91d1dd","6568ada07d6d1fdef115b01e","15","","","","","","","","","","","","867","Click [Next] to see the next neighborhood!","0","","","","","","","","","","","",""
"street view slide show","image-button-response","111","427276","0.0-111.0","","656776a7904ae00d6b91d1dd","6568ada07d6d1fdef115b01e","15","","","","","","","","","","","","null","stimulus/SV_PolicingMSA/MA_159/IMG_7_159.jpg","null","","","","","","4","","","","","",""
"street view slide show","image-button-response","112","428281","0.0-112.0","","656776a7904ae00d6b91d1dd","6568ada07d6d1fdef115b01e","15","","","","","","","","","","","","null","stimulus/SV_PolicingMSA/MA_159/IMG_14_159.jpg","null","","","","","","4","","","","","",""
"street view slide show","image-button-response","113","429296","0.0-113.0","","656776a7904ae00d6b91d1dd","6568ada07d6d1fdef115b01e","15","","","","","","","","","","","","null","stimulus/SV_PolicingMSA/MA_159/IMG_4_159.jpg","null","","","","","","4","","","","","",""
"street view slide show","image-button-response","114","430312","0.0-114.0","","656776a7904ae00d6b91d1dd","6568ada07d6d1fdef115b01e","15","","","","","","","","","","","","null","stimulus/SV_PolicingMSA/MA_159/IMG_11_159.jpg","null","","","","","","4","","","","","",""
"street view slide show","image-button-response","115","431314","0.0-115.0","","656776a7904ae00d6b91d1dd","6568ada07d6d1fdef115b01e","15","","","","","","","","","","","","null","stimulus/SV_PolicingMSA/MA_159/IMG_10_159.jpg","null","","","","","","4","","","","","",""
"street view slide show","image-button-response","116","432316","0.0-116.0","","656776a7904ae00d6b91d1dd","6568ada07d6d1fdef115b01e","15","","","","","","","","","","","","null","stimulus/SV_PolicingMSA/MA_159/IMG_5_159.jpg","null","","","","","","4","","","","","",""
"street view slide show","image-button-response","117","433321","0.0-117.0","","656776a7904ae00d6b91d1dd","6568ada07d6d1fdef115b01e","15","","","","","","","","","","","","null","stimulus/SV_PolicingMSA/MA_159/IMG_13_159.jpg","null","","","","","","4","","","","","",""
"street view slide show","image-button-response","118","434328","0.0-118.0","","656776a7904ae00d6b91d1dd","6568ada07d6d1fdef115b01e","15","","","","","","","","","","","","null","stimulus/SV_PolicingMSA/MA_159/IMG_9_159.jpg","null","","","","","","4","","","","","",""
"dot matrix survey1","survey","119","442049","0.0-119.0","","656776a7904ae00d6b91d1dd","6568ada07d6d1fdef115b01e","15","","","","","","","","","","","","7707","","{""P0_Q0"":null,""P0_Q1"":{""wealthy"":3,""walkable"":2,""safe"":2,""traditional"":3,""diverse"":1}}","","","","","","4","[]","","","","",""
"dot matrix survey2","survey","120","445877","0.0-120.0","","656776a7904ae00d6b91d1dd","6568ada07d6d1fdef115b01e","15","","","","","","","","","","","","3817","","{""P0_Q0"":null,""P0_Q1"":{""violence"":2,""crime"":2,""drug"":2,""schools"":3,""opportunities"":3}}","","","","","","4","[]","","","","",""
"dot matrix survey3","survey","121","455566","0.0-121.0","","656776a7904ae00d6b91d1dd","6568ada07d6d1fdef115b01e","15","","","","","","","","","","","","9679","","{""P0_Q0"":null,""P0_Q1"":{""movein"":1,""moveout"":2,""shopping"":2,""walk"":2,""park"":2,""school"":2}}","","","","","","4","[]","","","","",""
"sliderTrial","html-slider-response","122","458198","0.0-122.0","","656776a7904ae00d6b91d1dd","6568ada07d6d1fdef115b01e","15","","","","","","","","","","","","2628","[""SV_PolicingMSA/MA_159/IMG_7_159.jpg"",""SV_PolicingMSA/MA_159/IMG_14_159.jpg"",""SV_PolicingMSA/MA_159/IMG_4_159.jpg"",""SV_PolicingMSA/MA_159/IMG_11_159.jpg"",""SV_PolicingMSA/MA_159/IMG_10_159.jpg"",""SV_PolicingMSA/MA_159/IMG_5_159.jpg"",""SV_PolicingMSA/MA_159/IMG_13_159.jpg"",""SV_PolicingMSA/MA_159/IMG_9_159.jpg""]","3","","","","","","4","","4","[""./rc_img/cop_condGroup_15_CommunitySafety_autoscaled.png"",""./rc_img/cop_condGroup_15_SafeStreets_autoscaled.png""]","3","",""
"sliderTrial","html-slider-response","123","459684","0.0-123.0","","656776a7904ae00d6b91d1dd","6568ada07d6d1fdef115b01e","15","","","","","","","","","","","","1483","[""SV_PolicingMSA/MA_159/IMG_7_159.jpg"",""SV_PolicingMSA/MA_159/IMG_14_159.jpg"",""SV_PolicingMSA/MA_159/IMG_4_159.jpg"",""SV_PolicingMSA/MA_159/IMG_11_159.jpg"",""SV_PolicingMSA/MA_159/IMG_10_159.jpg"",""SV_PolicingMSA/MA_159/IMG_5_159.jpg"",""SV_PolicingMSA/MA_159/IMG_13_159.jpg"",""SV_PolicingMSA/MA_159/IMG_9_159.jpg""]","5","","","","","","4","","4","[""./rc_img/cop_condGroup_10_SafeStreets_autoscaled.png"",""./rc_img/cop_condGroup_10_CommunitySafety_autoscaled.png""]","3","",""
"sliderTrial","html-slider-response","124","461194","0.0-124.0","","656776a7904ae00d6b91d1dd","6568ada07d6d1fdef115b01e","15","","","","","","","","","","","","1507","[""SV_PolicingMSA/MA_159/IMG_7_159.jpg"",""SV_PolicingMSA/MA_159/IMG_14_159.jpg"",""SV_PolicingMSA/MA_159/IMG_4_159.jpg"",""SV_PolicingMSA/MA_159/IMG_11_159.jpg"",""SV_PolicingMSA/MA_159/IMG_10_159.jpg"",""SV_PolicingMSA/MA_159/IMG_5_159.jpg"",""SV_PolicingMSA/MA_159/IMG_13_159.jpg"",""SV_PolicingMSA/MA_159/IMG_9_159.jpg""]","3","","","","","","4","","4","[""./rc_img/cop_condGroup_9_CommunitySafety_autoscaled.png"",""./rc_img/cop_condGroup_9_SafeStreets_autoscaled.png""]","3","",""
"sliderTrial","html-slider-response","125","462602","0.0-125.0","","656776a7904ae00d6b91d1dd","6568ada07d6d1fdef115b01e","15","","","","","","","","","","","","1405","[""SV_PolicingMSA/MA_159/IMG_7_159.jpg"",""SV_PolicingMSA/MA_159/IMG_14_159.jpg"",""SV_PolicingMSA/MA_159/IMG_4_159.jpg"",""SV_PolicingMSA/MA_159/IMG_11_159.jpg"",""SV_PolicingMSA/MA_159/IMG_10_159.jpg"",""SV_PolicingMSA/MA_159/IMG_5_159.jpg"",""SV_PolicingMSA/MA_159/IMG_13_159.jpg"",""SV_PolicingMSA/MA_159/IMG_9_159.jpg""]","5","","","","","","4","","4","[""./rc_img/cop_condGroup_18_SafeStreets_autoscaled.png"",""./rc_img/cop_condGroup_18_CommunitySafety_autoscaled.png""]","3","",""
"sliderTrial","html-slider-response","126","464227","0.0-126.0","","656776a7904ae00d6b91d1dd","6568ada07d6d1fdef115b01e","15","","","","","","","","","","","","1622","[""SV_PolicingMSA/MA_159/IMG_7_159.jpg"",""SV_PolicingMSA/MA_159/IMG_14_159.jpg"",""SV_PolicingMSA/MA_159/IMG_4_159.jpg"",""SV_PolicingMSA/MA_159/IMG_11_159.jpg"",""SV_PolicingMSA/MA_159/IMG_10_159.jpg"",""SV_PolicingMSA/MA_159/IMG_5_159.jpg"",""SV_PolicingMSA/MA_159/IMG_13_159.jpg"",""SV_PolicingMSA/MA_159/IMG_9_159.jpg""]","5","","","","","","4","","4","[""./rc_img/cop_condGroup_2_SafeStreets_autoscaled.png"",""./rc_img/cop_condGroup_2_CommunitySafety_autoscaled.png""]","3","",""
"before_SVSlide_prompt","html-button-response","127","465348","0.0-127.0","","656776a7904ae00d6b91d1dd","6568ada07d6d1fdef115b01e","15","","","","","","","","","","","","1119","Click [Next] to see the next neighborhood!","0","","","","","","","","","","","",""
"street view slide show","image-button-response","128","466352","0.0-128.0","","656776a7904ae00d6b91d1dd","6568ada07d6d1fdef115b01e","15","","","","","","","","","","","","null","stimulus/SV_PolicingMSA/MA_854/IMG_11_854.jpg","null","","","","","","1","","","","","",""
"street view slide show","image-button-response","129","467357","0.0-129.0","","656776a7904ae00d6b91d1dd","6568ada07d6d1fdef115b01e","15","","","","","","","","","","","","null","stimulus/SV_PolicingMSA/MA_854/IMG_7_854.jpg","null","","","","","","1","","","","","",""
"street view slide show","image-button-response","130","468363","0.0-130.0","","656776a7904ae00d6b91d1dd","6568ada07d6d1fdef115b01e","15","","","","","","","","","","","","null","stimulus/SV_PolicingMSA/MA_854/IMG_13_854.jpg","null","","","","","","1","","","","","",""
"street view slide show","image-button-response","131","469377","0.0-131.0","","656776a7904ae00d6b91d1dd","6568ada07d6d1fdef115b01e","15","","","","","","","","","","","","null","stimulus/SV_PolicingMSA/MA_854/IMG_12_854.jpg","null","","","","","","1","","","","","",""
"street view slide show","image-button-response","132","470381","0.0-132.0","","656776a7904ae00d6b91d1dd","6568ada07d6d1fdef115b01e","15","","","","","","","","","","","","null","stimulus/SV_PolicingMSA/MA_854/IMG_0_854.jpg","null","","","","","","1","","","","","",""
"street view slide show","image-button-response","133","471383","0.0-133.0","","656776a7904ae00d6b91d1dd","6568ada07d6d1fdef115b01e","15","","","","","","","","","","","","null","stimulus/SV_PolicingMSA/MA_854/IMG_10_854.jpg","null","","","","","","1","","","","","",""
"street view slide show","image-button-response","134","472385","0.0-134.0","","656776a7904ae00d6b91d1dd","6568ada07d6d1fdef115b01e","15","","","","","","","","","","","","null","stimulus/SV_PolicingMSA/MA_854/IMG_3_854.jpg","null","","","","","","1","","","","","",""
"street view slide show","image-button-response","135","473394","0.0-135.0","","656776a7904ae00d6b91d1dd","6568ada07d6d1fdef115b01e","15","","","","","","","","","","","","null","stimulus/SV_PolicingMSA/MA_854/IMG_5_854.jpg","null","","","","","","1","","","","","",""
"dot matrix survey1","survey","136","481976","0.0-136.0","","656776a7904ae00d6b91d1dd","6568ada07d6d1fdef115b01e","15","","","","","","","","","","","","8565","","{""P0_Q0"":null,""P0_Q1"":{""wealthy"":1,""safe"":2,""walkable"":2,""traditional"":1,""diverse"":2}}","","","","","","1","[]","","","","",""
"dot matrix survey2","survey","137","485938","0.0-137.0","","656776a7904ae00d6b91d1dd","6568ada07d6d1fdef115b01e","15","","","","","","","","","","","","3951","","{""P0_Q0"":null,""P0_Q1"":{""violence"":2,""crime"":2,""drug"":2,""schools"":1,""opportunities"":2}}","","","","","","1","[]","","","","",""
"dot matrix survey3","survey","138","499905","0.0-138.0","","656776a7904ae00d6b91d1dd","6568ada07d6d1fdef115b01e","15","","","","","","","","","","","","13951","","{""P0_Q0"":null,""P0_Q1"":{""movein"":1,""moveout"":3,""shopping"":2,""walk"":1,""park"":2,""school"":2}}","","","","","","1","[]","","","","",""
"sliderTrial","html-slider-response","139","502685","0.0-139.0","","656776a7904ae00d6b91d1dd","6568ada07d6d1fdef115b01e","15","","","","","","","","","","","","2777","[""SV_PolicingMSA/MA_854/IMG_11_854.jpg"",""SV_PolicingMSA/MA_854/IMG_7_854.jpg"",""SV_PolicingMSA/MA_854/IMG_13_854.jpg"",""SV_PolicingMSA/MA_854/IMG_12_854.jpg"",""SV_PolicingMSA/MA_854/IMG_0_854.jpg"",""SV_PolicingMSA/MA_854/IMG_10_854.jpg"",""SV_PolicingMSA/MA_854/IMG_3_854.jpg"",""SV_PolicingMSA/MA_854/IMG_5_854.jpg""]","6","","","","","","1","","4","[""./rc_img/cop_condGroup_16_SafeStreets_autoscaled.png"",""./rc_img/cop_condGroup_16_CommunitySafety_autoscaled.png""]","2","",""
"sliderTrial","html-slider-response","140","504999","0.0-140.0","","656776a7904ae00d6b91d1dd","6568ada07d6d1fdef115b01e","15","","","","","","","","","","","","2311","[""SV_PolicingMSA/MA_854/IMG_11_854.jpg"",""SV_PolicingMSA/MA_854/IMG_7_854.jpg"",""SV_PolicingMSA/MA_854/IMG_13_854.jpg"",""SV_PolicingMSA/MA_854/IMG_12_854.jpg"",""SV_PolicingMSA/MA_854/IMG_0_854.jpg"",""SV_PolicingMSA/MA_854/IMG_10_854.jpg"",""SV_PolicingMSA/MA_854/IMG_3_854.jpg"",""SV_PolicingMSA/MA_854/IMG_5_854.jpg""]","5","","","","","","1","","4","[""./rc_img/cop_condGroup_12_SafeStreets_autoscaled.png"",""./rc_img/cop_condGroup_12_CommunitySafety_autoscaled.png""]","3","",""
"sliderTrial_attention","html-slider-response","141","515523","0.0-141.0","","656776a7904ae00d6b91d1dd","6568ada07d6d1fdef115b01e","15","","","","","","","","","","","","null","[""SV_PolicingMSA/MA_854/IMG_11_854.jpg"",""SV_PolicingMSA/MA_854/IMG_7_854.jpg"",""SV_PolicingMSA/MA_854/IMG_13_854.jpg"",""SV_PolicingMSA/MA_854/IMG_12_854.jpg"",""SV_PolicingMSA/MA_854/IMG_0_854.jpg"",""SV_PolicingMSA/MA_854/IMG_10_854.jpg"",""SV_PolicingMSA/MA_854/IMG_3_854.jpg"",""SV_PolicingMSA/MA_854/IMG_5_854.jpg""]","null","","","","","","1","","4","[""./assets/img/attnchk.png"",""./assets/img/attnchk.png""]","","true",""
"sliderTrial","html-slider-response","142","576988","0.0-142.0","","656776a7904ae00d6b91d1dd","6568ada07d6d1fdef115b01e","15","","","","","","","","","","","","61465","[""SV_PolicingMSA/MA_854/IMG_11_854.jpg"",""SV_PolicingMSA/MA_854/IMG_7_854.jpg"",""SV_PolicingMSA/MA_854/IMG_13_854.jpg"",""SV_PolicingMSA/MA_854/IMG_12_854.jpg"",""SV_PolicingMSA/MA_854/IMG_0_854.jpg"",""SV_PolicingMSA/MA_854/IMG_10_854.jpg"",""SV_PolicingMSA/MA_854/IMG_3_854.jpg"",""SV_PolicingMSA/MA_854/IMG_5_854.jpg""]","5","","","","","","1","","4","[""./rc_img/cop_condGroup_20_SafeStreets_autoscaled.png"",""./rc_img/cop_condGroup_20_CommunitySafety_autoscaled.png""]","3","",""
"sliderTrial","html-slider-response","143","578622","0.0-143.0","","656776a7904ae00d6b91d1dd","6568ada07d6d1fdef115b01e","15","","","","","","","","","","","","1631","[""SV_PolicingMSA/MA_854/IMG_11_854.jpg"",""SV_PolicingMSA/MA_854/IMG_7_854.jpg"",""SV_PolicingMSA/MA_854/IMG_13_854.jpg"",""SV_PolicingMSA/MA_854/IMG_12_854.jpg"",""SV_PolicingMSA/MA_854/IMG_0_854.jpg"",""SV_PolicingMSA/MA_854/IMG_10_854.jpg"",""SV_PolicingMSA/MA_854/IMG_3_854.jpg"",""SV_PolicingMSA/MA_854/IMG_5_854.jpg""]","5","","","","","","1","","4","[""./rc_img/cop_condGroup_3_SafeStreets_autoscaled.png"",""./rc_img/cop_condGroup_3_CommunitySafety_autoscaled.png""]","3","",""
"sliderTrial","html-slider-response","144","580068","0.0-144.0","","656776a7904ae00d6b91d1dd","6568ada07d6d1fdef115b01e","15","","","","","","","","","","","","1443","[""SV_PolicingMSA/MA_854/IMG_11_854.jpg"",""SV_PolicingMSA/MA_854/IMG_7_854.jpg"",""SV_PolicingMSA/MA_854/IMG_13_854.jpg"",""SV_PolicingMSA/MA_854/IMG_12_854.jpg"",""SV_PolicingMSA/MA_854/IMG_0_854.jpg"",""SV_PolicingMSA/MA_854/IMG_10_854.jpg"",""SV_PolicingMSA/MA_854/IMG_3_854.jpg"",""SV_PolicingMSA/MA_854/IMG_5_854.jpg""]","3","","","","","","1","","4","[""./rc_img/cop_condGroup_7_CommunitySafety_autoscaled.png"",""./rc_img/cop_condGroup_7_SafeStreets_autoscaled.png""]","3","",""
"demographics","survey-html-form","145","589151","0.0-145.0","","656776a7904ae00d6b91d1dd","6568ada07d6d1fdef115b01e","15","","","","","","","","","","","","9080","","{""age"":""33"",""sex"":""male"",""gender"":""man"",""gender-self-describe"":"""",""zipcode"":""98503""}","","","","","","","","","","","",""
"demographics-list","survey","146","609877","0.0-146.0","","656776a7904ae00d6b91d1dd","6568ada07d6d1fdef115b01e","15","","","","","","","","","","","","20688","","{""P0_Q0"":null,""race-ethnicity"":[""White or of European ancestry""],""education"":""Some college"",""P1_Q0"":null,""ideology"":""Very Liberal"",""P2_Q0"":null,""num-moves"":1,""P3_Q0"":null,""social-ladder"":2}","","","","","","","[]","","","","",""
"end-survey","survey-text","147","611941","0.0-147.0","","656776a7904ae00d6b91d1dd","6568ada07d6d1fdef115b01e","15","","","","","","","","","","","","2047","","{""Q0"":""""}","","","","","","","","","","","","2"
"end-survey","html-button-response","148","612907","0.0-148.0","","656776a7904ae00d6b91d1dd","6568ada07d6d1fdef115b01e","15","","","","","","","","","","","","963","
    You've reached the end of the survey. <br><br> 
    <b>Do not close or refresh this window.</b><br>
    On the next page, you will be automatically redirected to Prolific. <br><br>

    <div class=""alert alert-warning""><b>
    </div>
","0","","","","","","","","","","","",""
