"task","trial_type","trial_index","time_elapsed","internal_node_id","subject_id","study_id","session_id","section","width","height","webaudio","browser","browser_version","mobile","os","fullscreen","vsync_rate","webcam","microphone","rt","stimulus","response","success","timeout","failed_images","failed_audio","failed_video","block","accuracy","slider_start","choices","standardized_response","num_attention_checks_correct"
"pavlovia-init","pavlovia","0","1069","0.0-0.0","","656776a7904ae00d6b91d1dd","0fbm7ypyh8va","12","","","","","","","","","","","","","","","","","","","","","","","","",""
"browser-check","browser-check","1","2077","0.0-1.0","","656776a7904ae00d6b91d1dd","0fbm7ypyh8va","12","720","763","true","safari","17.1.0","false","Mac OS","true","60.06","true","true","","","","","","","","","","","","","",""
"consent","html-button-response","2","4828","0.0-2.0","","656776a7904ae00d6b91d1dd","0fbm7ypyh8va","12","","","","","","","","","","","","2748","
        <div style=""font-size: 80%; max-width:700px"">
            <h2>CONSENT FORM</h2>
        
            <div style=""text-align: left"">
            <h4>DESCRIPTION</h4>
            <p>
            You will complete a short task where you give your impressions of various neighborhoods and assign individuals to those spaces, and answer some questions about your thoughts and opinions.<br>
            The University of Michigan Institutional Review Board Health Sciences and Behavioral Sciences has determined that this study is exempt from IRB oversight.
            </p>

            <h4>TIME INVOLVEMENT</h4>
            <p>Your participation will take approximately 15 minutes. You will receive $3.25 upon completion of the study.</p>
        
            <h4>RISKS AND BENEFITS</h4>
            <p>
            The risks associated with this study are minimal. The benefits which may reasonably be expected to result from this study are none. We cannot and do not guarantee or promise that you will receive any benefits from this study.
            </p>
          
            <h4>SUBJECT'S RIGHTS</h4>
            <p>
            If you have read this form and have decided to participate in this project, please understand your participation is voluntary and you have the right to withdraw your consent or discontinue participation at any time without penalty or loss of benefits to which you are otherwise entitled. The alternative is not to participate. You have the right to refuse to answer particular questions. Your individual privacy will be maintained in all published and written data resulting from the study.
            </p>

            <h4>HUMAN SUBJECT APPROVAL</h4>
            <p>
            This study is exempt from ongoing IRB review.
            </p>

            <h4>CONTACT INFORMATION</h4>
            If you have any questions, concerns or complaints about this research, its procedures, risks and benefits, contact the Protocol Director, Nicholas Camp, npcamp@umich.edu, (443) 851-6783. <br>

            If you have questions about your rights as a research participant, or wish to obtain information, ask questions or discuss any concerns about this study with someone other than the researcher(s), please contact the following:<br><br>
            University of Michigan<br>
            Health Sciences and Behavioral Sciences Institutional Review Board (IRB-HSBS)<br>
            2800 Plymouth Road<br>
            Building 520, Room 1169Ann Arbor, MI 48109-2800<br>
            Telephone: 734-936-0933 or toll free (866) 936-0933<br>
            Fax: 734-936-1852<br>
            E-mail: irbhsbs@umich.edu<br><br>

            You can also contact the University of Michigan Compliance Hotline at 1-866-990-0111. You may also print this consent form to keep.
            <br><br>
            <div class=""alert alert-warning""><b>
            Do you consent to participate in this study? If you consent to participate in this study, please click “Accept and Continue”. If you select ""Decline and Exit"", you will be exited from the survey. <br>
            </b></div>
            </div>
        </div>
    ","1","","","","","","","","","","",""
"","preload","3","6067","0.0-3.0","","656776a7904ae00d6b91d1dd","0fbm7ypyh8va","12","","","","","","","","","","","","","","","true","false","[]","[]","[]","","","","","",""
"instructions","html-button-response","4","7210","0.0-4.0","","656776a7904ae00d6b91d1dd","0fbm7ypyh8va","12","","","","","","","","","","","","1142","
        <div class=""text-container"">
        <h1>Welcome to the study!</h1>
        
        <div class=""text-left"">
            <p>
                In this study, we are interested in how people think about different Google Street View images. <br> Google Street View takes pictures of streets used for Google Earth and Google Maps. <br>You’ll see Google Street View images of different places and answer some questions about each one.<br>
            </p>
        </div>
        <img src = ""assets/img/example.png"" width = 500px, height = auto>
        <br>
    <br>
    ","0","","","","","","","","","","",""
"instructions","html-button-response","5","8061","0.0-5.0","","656776a7904ae00d6b91d1dd","0fbm7ypyh8va","12","","","","","","","","","","","","850","
    <div class=""text-container"">
        <div class=""text-center"">
            <p>Please remember that your answers are completely anonymous. <br> (We can't trace them back to your name). <br>Please answer as honestly as you can.</p>
        </div>
    <br>
","0","","","","","","","","","","",""
"before_SVSlide_prompt","html-button-response","6","9328","0.0-6.0","","656776a7904ae00d6b91d1dd","0fbm7ypyh8va","12","","","","","","","","","","","","1266","Click [Next] to see the next neighborhood!","0","","","","","","","","","","",""
"street view slide show","image-button-response","7","10342","0.0-7.0","","656776a7904ae00d6b91d1dd","0fbm7ypyh8va","12","","","","","","","","","","","","null","stimulus/SV_PolicingMSA/NJ_358/IMG_4_358.jpg","null","","","","","","3","","","","",""
"street view slide show","image-button-response","8","11351","0.0-8.0","","656776a7904ae00d6b91d1dd","0fbm7ypyh8va","12","","","","","","","","","","","","null","stimulus/SV_PolicingMSA/NJ_358/IMG_6_358.jpg","null","","","","","","3","","","","",""
"street view slide show","image-button-response","9","12357","0.0-9.0","","656776a7904ae00d6b91d1dd","0fbm7ypyh8va","12","","","","","","","","","","","","null","stimulus/SV_PolicingMSA/NJ_358/IMG_2_358.jpg","null","","","","","","3","","","","",""
"street view slide show","image-button-response","10","13365","0.0-10.0","","656776a7904ae00d6b91d1dd","0fbm7ypyh8va","12","","","","","","","","","","","","null","stimulus/SV_PolicingMSA/NJ_358/IMG_8_358.jpg","null","","","","","","3","","","","",""
"street view slide show","image-button-response","11","14374","0.0-11.0","","656776a7904ae00d6b91d1dd","0fbm7ypyh8va","12","","","","","","","","","","","","null","stimulus/SV_PolicingMSA/NJ_358/IMG_13_358.jpg","null","","","","","","3","","","","",""
"street view slide show","image-button-response","12","15382","0.0-12.0","","656776a7904ae00d6b91d1dd","0fbm7ypyh8va","12","","","","","","","","","","","","null","stimulus/SV_PolicingMSA/NJ_358/IMG_5_358.jpg","null","","","","","","3","","","","",""
"street view slide show","image-button-response","13","16392","0.0-13.0","","656776a7904ae00d6b91d1dd","0fbm7ypyh8va","12","","","","","","","","","","","","null","stimulus/SV_PolicingMSA/NJ_358/IMG_12_358.jpg","null","","","","","","3","","","","",""
"street view slide show","image-button-response","14","17399","0.0-14.0","","656776a7904ae00d6b91d1dd","0fbm7ypyh8va","12","","","","","","","","","","","","null","stimulus/SV_PolicingMSA/NJ_358/IMG_9_358.jpg","null","","","","","","3","","","","",""
"dot matrix survey1","survey","15","19885","0.0-15.0","","656776a7904ae00d6b91d1dd","0fbm7ypyh8va","12","","","","","","","","","","","","2412","","{""P0_Q0"":null,""P0_Q1"":null}","","","","","","3","[]","","","",""
"dot matrix survey2","survey","16","20595","0.0-16.0","","656776a7904ae00d6b91d1dd","0fbm7ypyh8va","12","","","","","","","","","","","","696","","{""P0_Q0"":null,""P0_Q1"":null}","","","","","","3","[]","","","",""
"dot matrix survey3","survey","17","21580","0.0-17.0","","656776a7904ae00d6b91d1dd","0fbm7ypyh8va","12","","","","","","","","","","","","972","","{""P0_Q0"":null,""P0_Q1"":null}","","","","","","3","[]","","","",""
"sliderTrial","html-slider-response","18","23162","0.0-18.0","","656776a7904ae00d6b91d1dd","0fbm7ypyh8va","12","","","","","","","","","","","","1578","[""SV_PolicingMSA/NJ_358/IMG_4_358.jpg"",""SV_PolicingMSA/NJ_358/IMG_6_358.jpg"",""SV_PolicingMSA/NJ_358/IMG_2_358.jpg"",""SV_PolicingMSA/NJ_358/IMG_8_358.jpg"",""SV_PolicingMSA/NJ_358/IMG_13_358.jpg"",""SV_PolicingMSA/NJ_358/IMG_5_358.jpg"",""SV_PolicingMSA/NJ_358/IMG_12_358.jpg"",""SV_PolicingMSA/NJ_358/IMG_9_358.jpg""]","4","","","","","","3","","4","[""./rc_img/cop_condGroup_19_CommunitySafety_autoscaled.png"",""./rc_img/cop_condGroup_19_SafeStreets_autoscaled.png""]","4",""
"sliderTrial","html-slider-response","19","23646","0.0-19.0","","656776a7904ae00d6b91d1dd","0fbm7ypyh8va","12","","","","","","","","","","","","481","[""SV_PolicingMSA/NJ_358/IMG_4_358.jpg"",""SV_PolicingMSA/NJ_358/IMG_6_358.jpg"",""SV_PolicingMSA/NJ_358/IMG_2_358.jpg"",""SV_PolicingMSA/NJ_358/IMG_8_358.jpg"",""SV_PolicingMSA/NJ_358/IMG_13_358.jpg"",""SV_PolicingMSA/NJ_358/IMG_5_358.jpg"",""SV_PolicingMSA/NJ_358/IMG_12_358.jpg"",""SV_PolicingMSA/NJ_358/IMG_9_358.jpg""]","4","","","","","","3","","4","[""./rc_img/cop_condGroup_10_SafeStreets_autoscaled.png"",""./rc_img/cop_condGroup_10_CommunitySafety_autoscaled.png""]","4",""
"sliderTrial","html-slider-response","20","24129","0.0-20.0","","656776a7904ae00d6b91d1dd","0fbm7ypyh8va","12","","","","","","","","","","","","480","[""SV_PolicingMSA/NJ_358/IMG_4_358.jpg"",""SV_PolicingMSA/NJ_358/IMG_6_358.jpg"",""SV_PolicingMSA/NJ_358/IMG_2_358.jpg"",""SV_PolicingMSA/NJ_358/IMG_8_358.jpg"",""SV_PolicingMSA/NJ_358/IMG_13_358.jpg"",""SV_PolicingMSA/NJ_358/IMG_5_358.jpg"",""SV_PolicingMSA/NJ_358/IMG_12_358.jpg"",""SV_PolicingMSA/NJ_358/IMG_9_358.jpg""]","4","","","","","","3","","4","[""./rc_img/cop_condGroup_13_SafeStreets_autoscaled.png"",""./rc_img/cop_condGroup_13_CommunitySafety_autoscaled.png""]","4",""
"sliderTrial","html-slider-response","21","24597","0.0-21.0","","656776a7904ae00d6b91d1dd","0fbm7ypyh8va","12","","","","","","","","","","","","465","[""SV_PolicingMSA/NJ_358/IMG_4_358.jpg"",""SV_PolicingMSA/NJ_358/IMG_6_358.jpg"",""SV_PolicingMSA/NJ_358/IMG_2_358.jpg"",""SV_PolicingMSA/NJ_358/IMG_8_358.jpg"",""SV_PolicingMSA/NJ_358/IMG_13_358.jpg"",""SV_PolicingMSA/NJ_358/IMG_5_358.jpg"",""SV_PolicingMSA/NJ_358/IMG_12_358.jpg"",""SV_PolicingMSA/NJ_358/IMG_9_358.jpg""]","4","","","","","","3","","4","[""./rc_img/cop_condGroup_4_CommunitySafety_autoscaled.png"",""./rc_img/cop_condGroup_4_SafeStreets_autoscaled.png""]","4",""
"sliderTrial","html-slider-response","22","24995","0.0-22.0","","656776a7904ae00d6b91d1dd","0fbm7ypyh8va","12","","","","","","","","","","","","395","[""SV_PolicingMSA/NJ_358/IMG_4_358.jpg"",""SV_PolicingMSA/NJ_358/IMG_6_358.jpg"",""SV_PolicingMSA/NJ_358/IMG_2_358.jpg"",""SV_PolicingMSA/NJ_358/IMG_8_358.jpg"",""SV_PolicingMSA/NJ_358/IMG_13_358.jpg"",""SV_PolicingMSA/NJ_358/IMG_5_358.jpg"",""SV_PolicingMSA/NJ_358/IMG_12_358.jpg"",""SV_PolicingMSA/NJ_358/IMG_9_358.jpg""]","4","","","","","","3","","4","[""./rc_img/cop_condGroup_16_SafeStreets_autoscaled.png"",""./rc_img/cop_condGroup_16_CommunitySafety_autoscaled.png""]","4",""
"before_SVSlide_prompt","html-button-response","23","26046","0.0-23.0","","656776a7904ae00d6b91d1dd","0fbm7ypyh8va","12","","","","","","","","","","","","1047","Click [Next] to see the next neighborhood!","0","","","","","","","","","","",""
"street view slide show","image-button-response","24","27054","0.0-24.0","","656776a7904ae00d6b91d1dd","0fbm7ypyh8va","12","","","","","","","","","","","","null","stimulus/SV_PolicingMSA/NJ_1050/IMG_9_1050.jpg","null","","","","","","1","","","","",""
"street view slide show","image-button-response","25","28063","0.0-25.0","","656776a7904ae00d6b91d1dd","0fbm7ypyh8va","12","","","","","","","","","","","","null","stimulus/SV_PolicingMSA/NJ_1050/IMG_2_1050.jpg","null","","","","","","1","","","","",""
"street view slide show","image-button-response","26","29072","0.0-26.0","","656776a7904ae00d6b91d1dd","0fbm7ypyh8va","12","","","","","","","","","","","","null","stimulus/SV_PolicingMSA/NJ_1050/IMG_10_1050.jpg","null","","","","","","1","","","","",""
"street view slide show","image-button-response","27","30080","0.0-27.0","","656776a7904ae00d6b91d1dd","0fbm7ypyh8va","12","","","","","","","","","","","","null","stimulus/SV_PolicingMSA/NJ_1050/IMG_12_1050.jpg","null","","","","","","1","","","","",""
"street view slide show","image-button-response","28","31088","0.0-28.0","","656776a7904ae00d6b91d1dd","0fbm7ypyh8va","12","","","","","","","","","","","","null","stimulus/SV_PolicingMSA/NJ_1050/IMG_14_1050.jpg","null","","","","","","1","","","","",""
"street view slide show","image-button-response","29","32098","0.0-29.0","","656776a7904ae00d6b91d1dd","0fbm7ypyh8va","12","","","","","","","","","","","","null","stimulus/SV_PolicingMSA/NJ_1050/IMG_1_1050.jpg","null","","","","","","1","","","","",""
"street view slide show","image-button-response","30","33108","0.0-30.0","","656776a7904ae00d6b91d1dd","0fbm7ypyh8va","12","","","","","","","","","","","","null","stimulus/SV_PolicingMSA/NJ_1050/IMG_3_1050.jpg","null","","","","","","1","","","","",""
"street view slide show","image-button-response","31","34116","0.0-31.0","","656776a7904ae00d6b91d1dd","0fbm7ypyh8va","12","","","","","","","","","","","","null","stimulus/SV_PolicingMSA/NJ_1050/IMG_7_1050.jpg","null","","","","","","1","","","","",""
"dot matrix survey1","survey","32","35422","0.0-32.0","","656776a7904ae00d6b91d1dd","0fbm7ypyh8va","12","","","","","","","","","","","","1287","","{""P0_Q0"":null,""P0_Q1"":null}","","","","","","1","[]","","","",""
"dot matrix survey2","survey","33","36139","0.0-33.0","","656776a7904ae00d6b91d1dd","0fbm7ypyh8va","12","","","","","","","","","","","","708","","{""P0_Q0"":null,""P0_Q1"":null}","","","","","","1","[]","","","",""
"dot matrix survey3","survey","34","37735","0.0-34.0","","656776a7904ae00d6b91d1dd","0fbm7ypyh8va","12","","","","","","","","","","","","1588","","{""P0_Q0"":null,""P0_Q1"":null}","","","","","","1","[]","","","",""
"sliderTrial_attention","html-slider-response","35","38530","0.0-35.0","","656776a7904ae00d6b91d1dd","0fbm7ypyh8va","12","","","","","","","","","","","","793","[""SV_PolicingMSA/NJ_1050/IMG_9_1050.jpg"",""SV_PolicingMSA/NJ_1050/IMG_2_1050.jpg"",""SV_PolicingMSA/NJ_1050/IMG_10_1050.jpg"",""SV_PolicingMSA/NJ_1050/IMG_12_1050.jpg"",""SV_PolicingMSA/NJ_1050/IMG_14_1050.jpg"",""SV_PolicingMSA/NJ_1050/IMG_1_1050.jpg"",""SV_PolicingMSA/NJ_1050/IMG_3_1050.jpg"",""SV_PolicingMSA/NJ_1050/IMG_7_1050.jpg""]","4","","","","","","1","","4","[""./assets/img/attnchk.png"",""./assets/img/attnchk.png""]","",""
"sliderTrial","html-slider-response","36","38677","0.0-36.0","","656776a7904ae00d6b91d1dd","0fbm7ypyh8va","12","","","","","","","","","","","","144","[""SV_PolicingMSA/NJ_1050/IMG_9_1050.jpg"",""SV_PolicingMSA/NJ_1050/IMG_2_1050.jpg"",""SV_PolicingMSA/NJ_1050/IMG_10_1050.jpg"",""SV_PolicingMSA/NJ_1050/IMG_12_1050.jpg"",""SV_PolicingMSA/NJ_1050/IMG_14_1050.jpg"",""SV_PolicingMSA/NJ_1050/IMG_1_1050.jpg"",""SV_PolicingMSA/NJ_1050/IMG_3_1050.jpg"",""SV_PolicingMSA/NJ_1050/IMG_7_1050.jpg""]","4","","","","","","1","","4","[""./rc_img/cop_condGroup_19_CommunitySafety_autoscaled.png"",""./rc_img/cop_condGroup_19_SafeStreets_autoscaled.png""]","4",""
"sliderTrial","html-slider-response","37","38794","0.0-37.0","","656776a7904ae00d6b91d1dd","0fbm7ypyh8va","12","","","","","","","","","","","","115","[""SV_PolicingMSA/NJ_1050/IMG_9_1050.jpg"",""SV_PolicingMSA/NJ_1050/IMG_2_1050.jpg"",""SV_PolicingMSA/NJ_1050/IMG_10_1050.jpg"",""SV_PolicingMSA/NJ_1050/IMG_12_1050.jpg"",""SV_PolicingMSA/NJ_1050/IMG_14_1050.jpg"",""SV_PolicingMSA/NJ_1050/IMG_1_1050.jpg"",""SV_PolicingMSA/NJ_1050/IMG_3_1050.jpg"",""SV_PolicingMSA/NJ_1050/IMG_7_1050.jpg""]","4","","","","","","1","","4","[""./rc_img/cop_condGroup_10_SafeStreets_autoscaled.png"",""./rc_img/cop_condGroup_10_CommunitySafety_autoscaled.png""]","4",""
"sliderTrial","html-slider-response","38","38910","0.0-38.0","","656776a7904ae00d6b91d1dd","0fbm7ypyh8va","12","","","","","","","","","","","","115","[""SV_PolicingMSA/NJ_1050/IMG_9_1050.jpg"",""SV_PolicingMSA/NJ_1050/IMG_2_1050.jpg"",""SV_PolicingMSA/NJ_1050/IMG_10_1050.jpg"",""SV_PolicingMSA/NJ_1050/IMG_12_1050.jpg"",""SV_PolicingMSA/NJ_1050/IMG_14_1050.jpg"",""SV_PolicingMSA/NJ_1050/IMG_1_1050.jpg"",""SV_PolicingMSA/NJ_1050/IMG_3_1050.jpg"",""SV_PolicingMSA/NJ_1050/IMG_7_1050.jpg""]","4","","","","","","1","","4","[""./rc_img/cop_condGroup_13_SafeStreets_autoscaled.png"",""./rc_img/cop_condGroup_13_CommunitySafety_autoscaled.png""]","4",""
"sliderTrial","html-slider-response","39","39045","0.0-39.0","","656776a7904ae00d6b91d1dd","0fbm7ypyh8va","12","","","","","","","","","","","","131","[""SV_PolicingMSA/NJ_1050/IMG_9_1050.jpg"",""SV_PolicingMSA/NJ_1050/IMG_2_1050.jpg"",""SV_PolicingMSA/NJ_1050/IMG_10_1050.jpg"",""SV_PolicingMSA/NJ_1050/IMG_12_1050.jpg"",""SV_PolicingMSA/NJ_1050/IMG_14_1050.jpg"",""SV_PolicingMSA/NJ_1050/IMG_1_1050.jpg"",""SV_PolicingMSA/NJ_1050/IMG_3_1050.jpg"",""SV_PolicingMSA/NJ_1050/IMG_7_1050.jpg""]","4","","","","","","1","","4","[""./rc_img/cop_condGroup_4_CommunitySafety_autoscaled.png"",""./rc_img/cop_condGroup_4_SafeStreets_autoscaled.png""]","4",""
"sliderTrial","html-slider-response","40","39561","0.0-40.0","","656776a7904ae00d6b91d1dd","0fbm7ypyh8va","12","","","","","","","","","","","","514","[""SV_PolicingMSA/NJ_1050/IMG_9_1050.jpg"",""SV_PolicingMSA/NJ_1050/IMG_2_1050.jpg"",""SV_PolicingMSA/NJ_1050/IMG_10_1050.jpg"",""SV_PolicingMSA/NJ_1050/IMG_12_1050.jpg"",""SV_PolicingMSA/NJ_1050/IMG_14_1050.jpg"",""SV_PolicingMSA/NJ_1050/IMG_1_1050.jpg"",""SV_PolicingMSA/NJ_1050/IMG_3_1050.jpg"",""SV_PolicingMSA/NJ_1050/IMG_7_1050.jpg""]","4","","","","","","1","","4","[""./rc_img/cop_condGroup_16_SafeStreets_autoscaled.png"",""./rc_img/cop_condGroup_16_CommunitySafety_autoscaled.png""]","4",""
"before_SVSlide_prompt","html-button-response","41","40911","0.0-41.0","","656776a7904ae00d6b91d1dd","0fbm7ypyh8va","12","","","","","","","","","","","","1348","Click [Next] to see the next neighborhood!","0","","","","","","","","","","",""
"street view slide show","image-button-response","42","41919","0.0-42.0","","656776a7904ae00d6b91d1dd","0fbm7ypyh8va","12","","","","","","","","","","","","null","stimulus/SV_PolicingMSA/NJ_1937/IMG_12_1937.jpg","null","","","","","","5","","","","",""
"street view slide show","image-button-response","43","42926","0.0-43.0","","656776a7904ae00d6b91d1dd","0fbm7ypyh8va","12","","","","","","","","","","","","null","stimulus/SV_PolicingMSA/NJ_1937/IMG_11_1937.jpg","null","","","","","","5","","","","",""
"street view slide show","image-button-response","44","43934","0.0-44.0","","656776a7904ae00d6b91d1dd","0fbm7ypyh8va","12","","","","","","","","","","","","null","stimulus/SV_PolicingMSA/NJ_1937/IMG_7_1937.jpg","null","","","","","","5","","","","",""
"street view slide show","image-button-response","45","44942","0.0-45.0","","656776a7904ae00d6b91d1dd","0fbm7ypyh8va","12","","","","","","","","","","","","null","stimulus/SV_PolicingMSA/NJ_1937/IMG_4_1937.jpg","null","","","","","","5","","","","",""
"street view slide show","image-button-response","46","45952","0.0-46.0","","656776a7904ae00d6b91d1dd","0fbm7ypyh8va","12","","","","","","","","","","","","null","stimulus/SV_PolicingMSA/NJ_1937/IMG_6_1937.jpg","null","","","","","","5","","","","",""
"street view slide show","image-button-response","47","46962","0.0-47.0","","656776a7904ae00d6b91d1dd","0fbm7ypyh8va","12","","","","","","","","","","","","null","stimulus/SV_PolicingMSA/NJ_1937/IMG_14_1937.jpg","null","","","","","","5","","","","",""
"street view slide show","image-button-response","48","47971","0.0-48.0","","656776a7904ae00d6b91d1dd","0fbm7ypyh8va","12","","","","","","","","","","","","null","stimulus/SV_PolicingMSA/NJ_1937/IMG_2_1937.jpg","null","","","","","","5","","","","",""
"street view slide show","image-button-response","49","48978","0.0-49.0","","656776a7904ae00d6b91d1dd","0fbm7ypyh8va","12","","","","","","","","","","","","null","stimulus/SV_PolicingMSA/NJ_1937/IMG_5_1937.jpg","null","","","","","","5","","","","",""
"dot matrix survey1","survey","50","51159","0.0-50.0","","656776a7904ae00d6b91d1dd","0fbm7ypyh8va","12","","","","","","","","","","","","2162","","{""P0_Q0"":null,""P0_Q1"":null}","","","","","","5","[]","","","",""
"dot matrix survey2","survey","51","52139","0.0-51.0","","656776a7904ae00d6b91d1dd","0fbm7ypyh8va","12","","","","","","","","","","","","969","","{""P0_Q0"":null,""P0_Q1"":null}","","","","","","5","[]","","","",""
"dot matrix survey3","survey","52","53742","0.0-52.0","","656776a7904ae00d6b91d1dd","0fbm7ypyh8va","12","","","","","","","","","","","","1599","","{""P0_Q0"":null,""P0_Q1"":null}","","","","","","5","[]","","","",""
"sliderTrial","html-slider-response","53","54830","0.0-53.0","","656776a7904ae00d6b91d1dd","0fbm7ypyh8va","12","","","","","","","","","","","","1086","[""SV_PolicingMSA/NJ_1937/IMG_12_1937.jpg"",""SV_PolicingMSA/NJ_1937/IMG_11_1937.jpg"",""SV_PolicingMSA/NJ_1937/IMG_7_1937.jpg"",""SV_PolicingMSA/NJ_1937/IMG_4_1937.jpg"",""SV_PolicingMSA/NJ_1937/IMG_6_1937.jpg"",""SV_PolicingMSA/NJ_1937/IMG_14_1937.jpg"",""SV_PolicingMSA/NJ_1937/IMG_2_1937.jpg"",""SV_PolicingMSA/NJ_1937/IMG_5_1937.jpg""]","4","","","","","","5","","4","[""./rc_img/cop_condGroup_5_SafeStreets_autoscaled.png"",""./rc_img/cop_condGroup_5_CommunitySafety_autoscaled.png""]","4",""
"sliderTrial","html-slider-response","54","54979","0.0-54.0","","656776a7904ae00d6b91d1dd","0fbm7ypyh8va","12","","","","","","","","","","","","147","[""SV_PolicingMSA/NJ_1937/IMG_12_1937.jpg"",""SV_PolicingMSA/NJ_1937/IMG_11_1937.jpg"",""SV_PolicingMSA/NJ_1937/IMG_7_1937.jpg"",""SV_PolicingMSA/NJ_1937/IMG_4_1937.jpg"",""SV_PolicingMSA/NJ_1937/IMG_6_1937.jpg"",""SV_PolicingMSA/NJ_1937/IMG_14_1937.jpg"",""SV_PolicingMSA/NJ_1937/IMG_2_1937.jpg"",""SV_PolicingMSA/NJ_1937/IMG_5_1937.jpg""]","4","","","","","","5","","4","[""./rc_img/cop_condGroup_8_CommunitySafety_autoscaled.png"",""./rc_img/cop_condGroup_8_SafeStreets_autoscaled.png""]","4",""
"sliderTrial","html-slider-response","55","55278","0.0-55.0","","656776a7904ae00d6b91d1dd","0fbm7ypyh8va","12","","","","","","","","","","","","296","[""SV_PolicingMSA/NJ_1937/IMG_12_1937.jpg"",""SV_PolicingMSA/NJ_1937/IMG_11_1937.jpg"",""SV_PolicingMSA/NJ_1937/IMG_7_1937.jpg"",""SV_PolicingMSA/NJ_1937/IMG_4_1937.jpg"",""SV_PolicingMSA/NJ_1937/IMG_6_1937.jpg"",""SV_PolicingMSA/NJ_1937/IMG_14_1937.jpg"",""SV_PolicingMSA/NJ_1937/IMG_2_1937.jpg"",""SV_PolicingMSA/NJ_1937/IMG_5_1937.jpg""]","4","","","","","","5","","4","[""./rc_img/cop_condGroup_6_SafeStreets_autoscaled.png"",""./rc_img/cop_condGroup_6_CommunitySafety_autoscaled.png""]","4",""
"sliderTrial","html-slider-response","56","55430","0.0-56.0","","656776a7904ae00d6b91d1dd","0fbm7ypyh8va","12","","","","","","","","","","","","150","[""SV_PolicingMSA/NJ_1937/IMG_12_1937.jpg"",""SV_PolicingMSA/NJ_1937/IMG_11_1937.jpg"",""SV_PolicingMSA/NJ_1937/IMG_7_1937.jpg"",""SV_PolicingMSA/NJ_1937/IMG_4_1937.jpg"",""SV_PolicingMSA/NJ_1937/IMG_6_1937.jpg"",""SV_PolicingMSA/NJ_1937/IMG_14_1937.jpg"",""SV_PolicingMSA/NJ_1937/IMG_2_1937.jpg"",""SV_PolicingMSA/NJ_1937/IMG_5_1937.jpg""]","4","","","","","","5","","4","[""./rc_img/cop_condGroup_15_CommunitySafety_autoscaled.png"",""./rc_img/cop_condGroup_15_SafeStreets_autoscaled.png""]","4",""
"sliderTrial","html-slider-response","57","55761","0.0-57.0","","656776a7904ae00d6b91d1dd","0fbm7ypyh8va","12","","","","","","","","","","","","330","[""SV_PolicingMSA/NJ_1937/IMG_12_1937.jpg"",""SV_PolicingMSA/NJ_1937/IMG_11_1937.jpg"",""SV_PolicingMSA/NJ_1937/IMG_7_1937.jpg"",""SV_PolicingMSA/NJ_1937/IMG_4_1937.jpg"",""SV_PolicingMSA/NJ_1937/IMG_6_1937.jpg"",""SV_PolicingMSA/NJ_1937/IMG_14_1937.jpg"",""SV_PolicingMSA/NJ_1937/IMG_2_1937.jpg"",""SV_PolicingMSA/NJ_1937/IMG_5_1937.jpg""]","4","","","","","","5","","4","[""./rc_img/cop_condGroup_2_SafeStreets_autoscaled.png"",""./rc_img/cop_condGroup_2_CommunitySafety_autoscaled.png""]","4",""
"before_SVSlide_prompt","html-button-response","58","57131","0.0-58.0","","656776a7904ae00d6b91d1dd","0fbm7ypyh8va","12","","","","","","","","","","","","1358","Click [Next] to see the next neighborhood!","0","","","","","","","","","","",""
"street view slide show","image-button-response","59","58138","0.0-59.0","","656776a7904ae00d6b91d1dd","0fbm7ypyh8va","12","","","","","","","","","","","","null","stimulus/SV_PolicingMSA/NJ_545/IMG_8_545.jpg","null","","","","","","3","","","","",""
"street view slide show","image-button-response","60","59145","0.0-60.0","","656776a7904ae00d6b91d1dd","0fbm7ypyh8va","12","","","","","","","","","","","","null","stimulus/SV_PolicingMSA/NJ_545/IMG_11_545.jpg","null","","","","","","3","","","","",""
"street view slide show","image-button-response","61","60153","0.0-61.0","","656776a7904ae00d6b91d1dd","0fbm7ypyh8va","12","","","","","","","","","","","","null","stimulus/SV_PolicingMSA/NJ_545/IMG_7_545.jpg","null","","","","","","3","","","","",""
"street view slide show","image-button-response","62","61161","0.0-62.0","","656776a7904ae00d6b91d1dd","0fbm7ypyh8va","12","","","","","","","","","","","","null","stimulus/SV_PolicingMSA/NJ_545/IMG_3_545.jpg","null","","","","","","3","","","","",""
"street view slide show","image-button-response","63","62168","0.0-63.0","","656776a7904ae00d6b91d1dd","0fbm7ypyh8va","12","","","","","","","","","","","","null","stimulus/SV_PolicingMSA/NJ_545/IMG_4_545.jpg","null","","","","","","3","","","","",""
"street view slide show","image-button-response","64","63177","0.0-64.0","","656776a7904ae00d6b91d1dd","0fbm7ypyh8va","12","","","","","","","","","","","","null","stimulus/SV_PolicingMSA/NJ_545/IMG_10_545.jpg","null","","","","","","3","","","","",""
"street view slide show","image-button-response","65","64186","0.0-65.0","","656776a7904ae00d6b91d1dd","0fbm7ypyh8va","12","","","","","","","","","","","","null","stimulus/SV_PolicingMSA/NJ_545/IMG_6_545.jpg","null","","","","","","3","","","","",""
"street view slide show","image-button-response","66","65195","0.0-66.0","","656776a7904ae00d6b91d1dd","0fbm7ypyh8va","12","","","","","","","","","","","","null","stimulus/SV_PolicingMSA/NJ_545/IMG_13_545.jpg","null","","","","","","3","","","","",""
"dot matrix survey1","survey","67","66655","0.0-67.0","","656776a7904ae00d6b91d1dd","0fbm7ypyh8va","12","","","","","","","","","","","","1442","","{""P0_Q0"":null,""P0_Q1"":null}","","","","","","3","[]","","","",""
"dot matrix survey2","survey","68","67820","0.0-68.0","","656776a7904ae00d6b91d1dd","0fbm7ypyh8va","12","","","","","","","","","","","","1157","","{""P0_Q0"":null,""P0_Q1"":null}","","","","","","3","[]","","","",""
"dot matrix survey3","survey","69","72112","0.0-69.0","","656776a7904ae00d6b91d1dd","0fbm7ypyh8va","12","","","","","","","","","","","","4284","","{""P0_Q0"":null,""P0_Q1"":null}","","","","","","3","[]","","","",""
"sliderTrial","html-slider-response","70","72911","0.0-70.0","","656776a7904ae00d6b91d1dd","0fbm7ypyh8va","12","","","","","","","","","","","","797","[""SV_PolicingMSA/NJ_545/IMG_8_545.jpg"",""SV_PolicingMSA/NJ_545/IMG_11_545.jpg"",""SV_PolicingMSA/NJ_545/IMG_7_545.jpg"",""SV_PolicingMSA/NJ_545/IMG_3_545.jpg"",""SV_PolicingMSA/NJ_545/IMG_4_545.jpg"",""SV_PolicingMSA/NJ_545/IMG_10_545.jpg"",""SV_PolicingMSA/NJ_545/IMG_6_545.jpg"",""SV_PolicingMSA/NJ_545/IMG_13_545.jpg""]","4","","","","","","3","","4","[""./rc_img/cop_condGroup_5_SafeStreets_autoscaled.png"",""./rc_img/cop_condGroup_5_CommunitySafety_autoscaled.png""]","4",""
"sliderTrial","html-slider-response","71","73062","0.0-71.0","","656776a7904ae00d6b91d1dd","0fbm7ypyh8va","12","","","","","","","","","","","","148","[""SV_PolicingMSA/NJ_545/IMG_8_545.jpg"",""SV_PolicingMSA/NJ_545/IMG_11_545.jpg"",""SV_PolicingMSA/NJ_545/IMG_7_545.jpg"",""SV_PolicingMSA/NJ_545/IMG_3_545.jpg"",""SV_PolicingMSA/NJ_545/IMG_4_545.jpg"",""SV_PolicingMSA/NJ_545/IMG_10_545.jpg"",""SV_PolicingMSA/NJ_545/IMG_6_545.jpg"",""SV_PolicingMSA/NJ_545/IMG_13_545.jpg""]","4","","","","","","3","","4","[""./rc_img/cop_condGroup_8_CommunitySafety_autoscaled.png"",""./rc_img/cop_condGroup_8_SafeStreets_autoscaled.png""]","4",""
"sliderTrial","html-slider-response","72","73196","0.0-72.0","","656776a7904ae00d6b91d1dd","0fbm7ypyh8va","12","","","","","","","","","","","","130","[""SV_PolicingMSA/NJ_545/IMG_8_545.jpg"",""SV_PolicingMSA/NJ_545/IMG_11_545.jpg"",""SV_PolicingMSA/NJ_545/IMG_7_545.jpg"",""SV_PolicingMSA/NJ_545/IMG_3_545.jpg"",""SV_PolicingMSA/NJ_545/IMG_4_545.jpg"",""SV_PolicingMSA/NJ_545/IMG_10_545.jpg"",""SV_PolicingMSA/NJ_545/IMG_6_545.jpg"",""SV_PolicingMSA/NJ_545/IMG_13_545.jpg""]","4","","","","","","3","","4","[""./rc_img/cop_condGroup_6_SafeStreets_autoscaled.png"",""./rc_img/cop_condGroup_6_CommunitySafety_autoscaled.png""]","4",""
"sliderTrial","html-slider-response","73","73311","0.0-73.0","","656776a7904ae00d6b91d1dd","0fbm7ypyh8va","12","","","","","","","","","","","","112","[""SV_PolicingMSA/NJ_545/IMG_8_545.jpg"",""SV_PolicingMSA/NJ_545/IMG_11_545.jpg"",""SV_PolicingMSA/NJ_545/IMG_7_545.jpg"",""SV_PolicingMSA/NJ_545/IMG_3_545.jpg"",""SV_PolicingMSA/NJ_545/IMG_4_545.jpg"",""SV_PolicingMSA/NJ_545/IMG_10_545.jpg"",""SV_PolicingMSA/NJ_545/IMG_6_545.jpg"",""SV_PolicingMSA/NJ_545/IMG_13_545.jpg""]","4","","","","","","3","","4","[""./rc_img/cop_condGroup_15_CommunitySafety_autoscaled.png"",""./rc_img/cop_condGroup_15_SafeStreets_autoscaled.png""]","4",""
"sliderTrial","html-slider-response","74","73428","0.0-74.0","","656776a7904ae00d6b91d1dd","0fbm7ypyh8va","12","","","","","","","","","","","","114","[""SV_PolicingMSA/NJ_545/IMG_8_545.jpg"",""SV_PolicingMSA/NJ_545/IMG_11_545.jpg"",""SV_PolicingMSA/NJ_545/IMG_7_545.jpg"",""SV_PolicingMSA/NJ_545/IMG_3_545.jpg"",""SV_PolicingMSA/NJ_545/IMG_4_545.jpg"",""SV_PolicingMSA/NJ_545/IMG_10_545.jpg"",""SV_PolicingMSA/NJ_545/IMG_6_545.jpg"",""SV_PolicingMSA/NJ_545/IMG_13_545.jpg""]","4","","","","","","3","","4","[""./rc_img/cop_condGroup_2_SafeStreets_autoscaled.png"",""./rc_img/cop_condGroup_2_CommunitySafety_autoscaled.png""]","4",""
"half-way","html-button-response","75","74328","0.0-75.0","","656776a7904ae00d6b91d1dd","0fbm7ypyh8va","12","","","","","","","","","","","","899","
    <h3>You are now half way through the study.</h3>
    <p>Please take a quick, 15-second break before you continue.</p>
    <img src='assets/img/countdown-15.gif'>
    <p>The study will automatically advance forward after the countdown is complete. <br> However, you may click ""Next"" to advance forward now if you wish.</p>
    ","0","","","","","","","","","","",""
"before_SVSlide_prompt","html-button-response","76","75178","0.0-76.0","","656776a7904ae00d6b91d1dd","0fbm7ypyh8va","12","","","","","","","","","","","","849","Click [Next] to see the next neighborhood!","0","","","","","","","","","","",""
"street view slide show","image-button-response","77","76187","0.0-77.0","","656776a7904ae00d6b91d1dd","0fbm7ypyh8va","12","","","","","","","","","","","","null","stimulus/SV_PolicingMSA/NJ_880/IMG_14_880.jpg","null","","","","","","2","","","","",""
"street view slide show","image-button-response","78","77194","0.0-78.0","","656776a7904ae00d6b91d1dd","0fbm7ypyh8va","12","","","","","","","","","","","","null","stimulus/SV_PolicingMSA/NJ_880/IMG_11_880.jpg","null","","","","","","2","","","","",""
"street view slide show","image-button-response","79","78205","0.0-79.0","","656776a7904ae00d6b91d1dd","0fbm7ypyh8va","12","","","","","","","","","","","","null","stimulus/SV_PolicingMSA/NJ_880/IMG_12_880.jpg","null","","","","","","2","","","","",""
"street view slide show","image-button-response","80","79218","0.0-80.0","","656776a7904ae00d6b91d1dd","0fbm7ypyh8va","12","","","","","","","","","","","","null","stimulus/SV_PolicingMSA/NJ_880/IMG_7_880.jpg","null","","","","","","2","","","","",""
"street view slide show","image-button-response","81","80226","0.0-81.0","","656776a7904ae00d6b91d1dd","0fbm7ypyh8va","12","","","","","","","","","","","","null","stimulus/SV_PolicingMSA/NJ_880/IMG_9_880.jpg","null","","","","","","2","","","","",""
"street view slide show","image-button-response","82","81233","0.0-82.0","","656776a7904ae00d6b91d1dd","0fbm7ypyh8va","12","","","","","","","","","","","","null","stimulus/SV_PolicingMSA/NJ_880/IMG_13_880.jpg","null","","","","","","2","","","","",""
"street view slide show","image-button-response","83","82239","0.0-83.0","","656776a7904ae00d6b91d1dd","0fbm7ypyh8va","12","","","","","","","","","","","","null","stimulus/SV_PolicingMSA/NJ_880/IMG_1_880.jpg","null","","","","","","2","","","","",""
"street view slide show","image-button-response","84","83246","0.0-84.0","","656776a7904ae00d6b91d1dd","0fbm7ypyh8va","12","","","","","","","","","","","","null","stimulus/SV_PolicingMSA/NJ_880/IMG_6_880.jpg","null","","","","","","2","","","","",""
"dot matrix survey1","survey","85","88346","0.0-85.0","","656776a7904ae00d6b91d1dd","0fbm7ypyh8va","12","","","","","","","","","","","","5074","","{""P0_Q0"":null,""P0_Q1"":null}","","","","","","2","[]","","","",""
"dot matrix survey2","survey","86","89145","0.0-86.0","","656776a7904ae00d6b91d1dd","0fbm7ypyh8va","12","","","","","","","","","","","","789","","{""P0_Q0"":null,""P0_Q1"":null}","","","","","","2","[]","","","",""
"dot matrix survey3","survey","87","90762","0.0-87.0","","656776a7904ae00d6b91d1dd","0fbm7ypyh8va","12","","","","","","","","","","","","1608","","{""P0_Q0"":null,""P0_Q1"":null}","","","","","","2","[]","","","",""
"sliderTrial","html-slider-response","88","91480","0.0-88.0","","656776a7904ae00d6b91d1dd","0fbm7ypyh8va","12","","","","","","","","","","","","715","[""SV_PolicingMSA/NJ_880/IMG_14_880.jpg"",""SV_PolicingMSA/NJ_880/IMG_11_880.jpg"",""SV_PolicingMSA/NJ_880/IMG_12_880.jpg"",""SV_PolicingMSA/NJ_880/IMG_7_880.jpg"",""SV_PolicingMSA/NJ_880/IMG_9_880.jpg"",""SV_PolicingMSA/NJ_880/IMG_13_880.jpg"",""SV_PolicingMSA/NJ_880/IMG_1_880.jpg"",""SV_PolicingMSA/NJ_880/IMG_6_880.jpg""]","4","","","","","","2","","4","[""./rc_img/cop_condGroup_17_CommunitySafety_autoscaled.png"",""./rc_img/cop_condGroup_17_SafeStreets_autoscaled.png""]","4",""
"sliderTrial","html-slider-response","89","91630","0.0-89.0","","656776a7904ae00d6b91d1dd","0fbm7ypyh8va","12","","","","","","","","","","","","146","[""SV_PolicingMSA/NJ_880/IMG_14_880.jpg"",""SV_PolicingMSA/NJ_880/IMG_11_880.jpg"",""SV_PolicingMSA/NJ_880/IMG_12_880.jpg"",""SV_PolicingMSA/NJ_880/IMG_7_880.jpg"",""SV_PolicingMSA/NJ_880/IMG_9_880.jpg"",""SV_PolicingMSA/NJ_880/IMG_13_880.jpg"",""SV_PolicingMSA/NJ_880/IMG_1_880.jpg"",""SV_PolicingMSA/NJ_880/IMG_6_880.jpg""]","4","","","","","","2","","4","[""./rc_img/cop_condGroup_18_CommunitySafety_autoscaled.png"",""./rc_img/cop_condGroup_18_SafeStreets_autoscaled.png""]","4",""
"sliderTrial","html-slider-response","90","91743","0.0-90.0","","656776a7904ae00d6b91d1dd","0fbm7ypyh8va","12","","","","","","","","","","","","111","[""SV_PolicingMSA/NJ_880/IMG_14_880.jpg"",""SV_PolicingMSA/NJ_880/IMG_11_880.jpg"",""SV_PolicingMSA/NJ_880/IMG_12_880.jpg"",""SV_PolicingMSA/NJ_880/IMG_7_880.jpg"",""SV_PolicingMSA/NJ_880/IMG_9_880.jpg"",""SV_PolicingMSA/NJ_880/IMG_13_880.jpg"",""SV_PolicingMSA/NJ_880/IMG_1_880.jpg"",""SV_PolicingMSA/NJ_880/IMG_6_880.jpg""]","4","","","","","","2","","4","[""./rc_img/cop_condGroup_7_SafeStreets_autoscaled.png"",""./rc_img/cop_condGroup_7_CommunitySafety_autoscaled.png""]","4",""
"sliderTrial","html-slider-response","91","91844","0.0-91.0","","656776a7904ae00d6b91d1dd","0fbm7ypyh8va","12","","","","","","","","","","","","100","[""SV_PolicingMSA/NJ_880/IMG_14_880.jpg"",""SV_PolicingMSA/NJ_880/IMG_11_880.jpg"",""SV_PolicingMSA/NJ_880/IMG_12_880.jpg"",""SV_PolicingMSA/NJ_880/IMG_7_880.jpg"",""SV_PolicingMSA/NJ_880/IMG_9_880.jpg"",""SV_PolicingMSA/NJ_880/IMG_13_880.jpg"",""SV_PolicingMSA/NJ_880/IMG_1_880.jpg"",""SV_PolicingMSA/NJ_880/IMG_6_880.jpg""]","4","","","","","","2","","4","[""./rc_img/cop_condGroup_14_SafeStreets_autoscaled.png"",""./rc_img/cop_condGroup_14_CommunitySafety_autoscaled.png""]","4",""
"sliderTrial","html-slider-response","92","91979","0.0-92.0","","656776a7904ae00d6b91d1dd","0fbm7ypyh8va","12","","","","","","","","","","","","133","[""SV_PolicingMSA/NJ_880/IMG_14_880.jpg"",""SV_PolicingMSA/NJ_880/IMG_11_880.jpg"",""SV_PolicingMSA/NJ_880/IMG_12_880.jpg"",""SV_PolicingMSA/NJ_880/IMG_7_880.jpg"",""SV_PolicingMSA/NJ_880/IMG_9_880.jpg"",""SV_PolicingMSA/NJ_880/IMG_13_880.jpg"",""SV_PolicingMSA/NJ_880/IMG_1_880.jpg"",""SV_PolicingMSA/NJ_880/IMG_6_880.jpg""]","4","","","","","","2","","4","[""./rc_img/cop_condGroup_11_SafeStreets_autoscaled.png"",""./rc_img/cop_condGroup_11_CommunitySafety_autoscaled.png""]","4",""
"before_SVSlide_prompt","html-button-response","93","92812","0.0-93.0","","656776a7904ae00d6b91d1dd","0fbm7ypyh8va","12","","","","","","","","","","","","830","Click [Next] to see the next neighborhood!","0","","","","","","","","","","",""
"street view slide show","image-button-response","94","93821","0.0-94.0","","656776a7904ae00d6b91d1dd","0fbm7ypyh8va","12","","","","","","","","","","","","null","stimulus/SV_PolicingMSA/NJ_21/IMG_5_21.jpg","null","","","","","","0","","","","",""
"street view slide show","image-button-response","95","94828","0.0-95.0","","656776a7904ae00d6b91d1dd","0fbm7ypyh8va","12","","","","","","","","","","","","null","stimulus/SV_PolicingMSA/NJ_21/IMG_10_21.jpg","null","","","","","","0","","","","",""
"street view slide show","image-button-response","96","95832","0.0-96.0","","656776a7904ae00d6b91d1dd","0fbm7ypyh8va","12","","","","","","","","","","","","null","stimulus/SV_PolicingMSA/NJ_21/IMG_2_21.jpg","null","","","","","","0","","","","",""
"street view slide show","image-button-response","97","96838","0.0-97.0","","656776a7904ae00d6b91d1dd","0fbm7ypyh8va","12","","","","","","","","","","","","null","stimulus/SV_PolicingMSA/NJ_21/IMG_11_21.jpg","null","","","","","","0","","","","",""
"street view slide show","image-button-response","98","97846","0.0-98.0","","656776a7904ae00d6b91d1dd","0fbm7ypyh8va","12","","","","","","","","","","","","null","stimulus/SV_PolicingMSA/NJ_21/IMG_1_21.jpg","null","","","","","","0","","","","",""
"street view slide show","image-button-response","99","98854","0.0-99.0","","656776a7904ae00d6b91d1dd","0fbm7ypyh8va","12","","","","","","","","","","","","null","stimulus/SV_PolicingMSA/NJ_21/IMG_7_21.jpg","null","","","","","","0","","","","",""
"street view slide show","image-button-response","100","99857","0.0-100.0","","656776a7904ae00d6b91d1dd","0fbm7ypyh8va","12","","","","","","","","","","","","null","stimulus/SV_PolicingMSA/NJ_21/IMG_0_21.jpg","null","","","","","","0","","","","",""
"street view slide show","image-button-response","101","100862","0.0-101.0","","656776a7904ae00d6b91d1dd","0fbm7ypyh8va","12","","","","","","","","","","","","null","stimulus/SV_PolicingMSA/NJ_21/IMG_4_21.jpg","null","","","","","","0","","","","",""
"dot matrix survey1","survey","102","104660","0.0-102.0","","656776a7904ae00d6b91d1dd","0fbm7ypyh8va","12","","","","","","","","","","","","3771","","{""P0_Q0"":null,""P0_Q1"":null}","","","","","","0","[]","","","",""
"dot matrix survey2","survey","103","105504","0.0-103.0","","656776a7904ae00d6b91d1dd","0fbm7ypyh8va","12","","","","","","","","","","","","838","","{""P0_Q0"":null,""P0_Q1"":null}","","","","","","0","[]","","","",""
"dot matrix survey3","survey","104","106886","0.0-104.0","","656776a7904ae00d6b91d1dd","0fbm7ypyh8va","12","","","","","","","","","","","","1378","","{""P0_Q0"":null,""P0_Q1"":null}","","","","","","0","[]","","","",""
"sliderTrial_attention","html-slider-response","105","107629","0.0-105.0","","656776a7904ae00d6b91d1dd","0fbm7ypyh8va","12","","","","","","","","","","","","742","[""SV_PolicingMSA/NJ_21/IMG_5_21.jpg"",""SV_PolicingMSA/NJ_21/IMG_10_21.jpg"",""SV_PolicingMSA/NJ_21/IMG_2_21.jpg"",""SV_PolicingMSA/NJ_21/IMG_11_21.jpg"",""SV_PolicingMSA/NJ_21/IMG_1_21.jpg"",""SV_PolicingMSA/NJ_21/IMG_7_21.jpg"",""SV_PolicingMSA/NJ_21/IMG_0_21.jpg"",""SV_PolicingMSA/NJ_21/IMG_4_21.jpg""]","4","","","","","","0","","4","[""./assets/img/attnchk.png"",""./assets/img/attnchk.png""]","",""
"sliderTrial","html-slider-response","106","107763","0.0-106.0","","656776a7904ae00d6b91d1dd","0fbm7ypyh8va","12","","","","","","","","","","","","132","[""SV_PolicingMSA/NJ_21/IMG_5_21.jpg"",""SV_PolicingMSA/NJ_21/IMG_10_21.jpg"",""SV_PolicingMSA/NJ_21/IMG_2_21.jpg"",""SV_PolicingMSA/NJ_21/IMG_11_21.jpg"",""SV_PolicingMSA/NJ_21/IMG_1_21.jpg"",""SV_PolicingMSA/NJ_21/IMG_7_21.jpg"",""SV_PolicingMSA/NJ_21/IMG_0_21.jpg"",""SV_PolicingMSA/NJ_21/IMG_4_21.jpg""]","4","","","","","","0","","4","[""./rc_img/cop_condGroup_17_CommunitySafety_autoscaled.png"",""./rc_img/cop_condGroup_17_SafeStreets_autoscaled.png""]","4",""
"sliderTrial","html-slider-response","107","107877","0.0-107.0","","656776a7904ae00d6b91d1dd","0fbm7ypyh8va","12","","","","","","","","","","","","113","[""SV_PolicingMSA/NJ_21/IMG_5_21.jpg"",""SV_PolicingMSA/NJ_21/IMG_10_21.jpg"",""SV_PolicingMSA/NJ_21/IMG_2_21.jpg"",""SV_PolicingMSA/NJ_21/IMG_11_21.jpg"",""SV_PolicingMSA/NJ_21/IMG_1_21.jpg"",""SV_PolicingMSA/NJ_21/IMG_7_21.jpg"",""SV_PolicingMSA/NJ_21/IMG_0_21.jpg"",""SV_PolicingMSA/NJ_21/IMG_4_21.jpg""]","4","","","","","","0","","4","[""./rc_img/cop_condGroup_18_CommunitySafety_autoscaled.png"",""./rc_img/cop_condGroup_18_SafeStreets_autoscaled.png""]","4",""
"sliderTrial","html-slider-response","108","107979","0.0-108.0","","656776a7904ae00d6b91d1dd","0fbm7ypyh8va","12","","","","","","","","","","","","100","[""SV_PolicingMSA/NJ_21/IMG_5_21.jpg"",""SV_PolicingMSA/NJ_21/IMG_10_21.jpg"",""SV_PolicingMSA/NJ_21/IMG_2_21.jpg"",""SV_PolicingMSA/NJ_21/IMG_11_21.jpg"",""SV_PolicingMSA/NJ_21/IMG_1_21.jpg"",""SV_PolicingMSA/NJ_21/IMG_7_21.jpg"",""SV_PolicingMSA/NJ_21/IMG_0_21.jpg"",""SV_PolicingMSA/NJ_21/IMG_4_21.jpg""]","4","","","","","","0","","4","[""./rc_img/cop_condGroup_7_SafeStreets_autoscaled.png"",""./rc_img/cop_condGroup_7_CommunitySafety_autoscaled.png""]","4",""
"sliderTrial","html-slider-response","109","108111","0.0-109.0","","656776a7904ae00d6b91d1dd","0fbm7ypyh8va","12","","","","","","","","","","","","130","[""SV_PolicingMSA/NJ_21/IMG_5_21.jpg"",""SV_PolicingMSA/NJ_21/IMG_10_21.jpg"",""SV_PolicingMSA/NJ_21/IMG_2_21.jpg"",""SV_PolicingMSA/NJ_21/IMG_11_21.jpg"",""SV_PolicingMSA/NJ_21/IMG_1_21.jpg"",""SV_PolicingMSA/NJ_21/IMG_7_21.jpg"",""SV_PolicingMSA/NJ_21/IMG_0_21.jpg"",""SV_PolicingMSA/NJ_21/IMG_4_21.jpg""]","4","","","","","","0","","4","[""./rc_img/cop_condGroup_14_SafeStreets_autoscaled.png"",""./rc_img/cop_condGroup_14_CommunitySafety_autoscaled.png""]","4",""
"sliderTrial","html-slider-response","110","108611","0.0-110.0","","656776a7904ae00d6b91d1dd","0fbm7ypyh8va","12","","","","","","","","","","","","498","[""SV_PolicingMSA/NJ_21/IMG_5_21.jpg"",""SV_PolicingMSA/NJ_21/IMG_10_21.jpg"",""SV_PolicingMSA/NJ_21/IMG_2_21.jpg"",""SV_PolicingMSA/NJ_21/IMG_11_21.jpg"",""SV_PolicingMSA/NJ_21/IMG_1_21.jpg"",""SV_PolicingMSA/NJ_21/IMG_7_21.jpg"",""SV_PolicingMSA/NJ_21/IMG_0_21.jpg"",""SV_PolicingMSA/NJ_21/IMG_4_21.jpg""]","4","","","","","","0","","4","[""./rc_img/cop_condGroup_11_SafeStreets_autoscaled.png"",""./rc_img/cop_condGroup_11_CommunitySafety_autoscaled.png""]","4",""
"before_SVSlide_prompt","html-button-response","111","109496","0.0-111.0","","656776a7904ae00d6b91d1dd","0fbm7ypyh8va","12","","","","","","","","","","","","883","Click [Next] to see the next neighborhood!","0","","","","","","","","","","",""
"street view slide show","image-button-response","112","110504","0.0-112.0","","656776a7904ae00d6b91d1dd","0fbm7ypyh8va","12","","","","","","","","","","","","null","stimulus/SV_PolicingMSA/NJ_1936/IMG_7_1936.jpg","null","","","","","","4","","","","",""
"street view slide show","image-button-response","113","111512","0.0-113.0","","656776a7904ae00d6b91d1dd","0fbm7ypyh8va","12","","","","","","","","","","","","null","stimulus/SV_PolicingMSA/NJ_1936/IMG_8_1936.jpg","null","","","","","","4","","","","",""
"street view slide show","image-button-response","114","112519","0.0-114.0","","656776a7904ae00d6b91d1dd","0fbm7ypyh8va","12","","","","","","","","","","","","null","stimulus/SV_PolicingMSA/NJ_1936/IMG_2_1936.jpg","null","","","","","","4","","","","",""
"street view slide show","image-button-response","115","113527","0.0-115.0","","656776a7904ae00d6b91d1dd","0fbm7ypyh8va","12","","","","","","","","","","","","null","stimulus/SV_PolicingMSA/NJ_1936/IMG_3_1936.jpg","null","","","","","","4","","","","",""
"street view slide show","image-button-response","116","114538","0.0-116.0","","656776a7904ae00d6b91d1dd","0fbm7ypyh8va","12","","","","","","","","","","","","null","stimulus/SV_PolicingMSA/NJ_1936/IMG_13_1936.jpg","null","","","","","","4","","","","",""
"street view slide show","image-button-response","117","115547","0.0-117.0","","656776a7904ae00d6b91d1dd","0fbm7ypyh8va","12","","","","","","","","","","","","null","stimulus/SV_PolicingMSA/NJ_1936/IMG_4_1936.jpg","null","","","","","","4","","","","",""
"street view slide show","image-button-response","118","116558","0.0-118.0","","656776a7904ae00d6b91d1dd","0fbm7ypyh8va","12","","","","","","","","","","","","null","stimulus/SV_PolicingMSA/NJ_1936/IMG_10_1936.jpg","null","","","","","","4","","","","",""
"street view slide show","image-button-response","119","117565","0.0-119.0","","656776a7904ae00d6b91d1dd","0fbm7ypyh8va","12","","","","","","","","","","","","null","stimulus/SV_PolicingMSA/NJ_1936/IMG_1_1936.jpg","null","","","","","","4","","","","",""
"dot matrix survey1","survey","120","119690","0.0-120.0","","656776a7904ae00d6b91d1dd","0fbm7ypyh8va","12","","","","","","","","","","","","2102","","{""P0_Q0"":null,""P0_Q1"":null}","","","","","","4","[]","","","",""
"dot matrix survey2","survey","121","120459","0.0-121.0","","656776a7904ae00d6b91d1dd","0fbm7ypyh8va","12","","","","","","","","","","","","759","","{""P0_Q0"":null,""P0_Q1"":null}","","","","","","4","[]","","","",""
"dot matrix survey3","survey","122","121960","0.0-122.0","","656776a7904ae00d6b91d1dd","0fbm7ypyh8va","12","","","","","","","","","","","","1492","","{""P0_Q0"":null,""P0_Q1"":null}","","","","","","4","[]","","","",""
"sliderTrial","html-slider-response","123","122765","0.0-123.0","","656776a7904ae00d6b91d1dd","0fbm7ypyh8va","12","","","","","","","","","","","","803","[""SV_PolicingMSA/NJ_1936/IMG_7_1936.jpg"",""SV_PolicingMSA/NJ_1936/IMG_8_1936.jpg"",""SV_PolicingMSA/NJ_1936/IMG_2_1936.jpg"",""SV_PolicingMSA/NJ_1936/IMG_3_1936.jpg"",""SV_PolicingMSA/NJ_1936/IMG_13_1936.jpg"",""SV_PolicingMSA/NJ_1936/IMG_4_1936.jpg"",""SV_PolicingMSA/NJ_1936/IMG_10_1936.jpg"",""SV_PolicingMSA/NJ_1936/IMG_1_1936.jpg""]","4","","","","","","4","","4","[""./rc_img/cop_condGroup_20_SafeStreets_autoscaled.png"",""./rc_img/cop_condGroup_20_CommunitySafety_autoscaled.png""]","4",""
"sliderTrial","html-slider-response","124","122912","0.0-124.0","","656776a7904ae00d6b91d1dd","0fbm7ypyh8va","12","","","","","","","","","","","","144","[""SV_PolicingMSA/NJ_1936/IMG_7_1936.jpg"",""SV_PolicingMSA/NJ_1936/IMG_8_1936.jpg"",""SV_PolicingMSA/NJ_1936/IMG_2_1936.jpg"",""SV_PolicingMSA/NJ_1936/IMG_3_1936.jpg"",""SV_PolicingMSA/NJ_1936/IMG_13_1936.jpg"",""SV_PolicingMSA/NJ_1936/IMG_4_1936.jpg"",""SV_PolicingMSA/NJ_1936/IMG_10_1936.jpg"",""SV_PolicingMSA/NJ_1936/IMG_1_1936.jpg""]","4","","","","","","4","","4","[""./rc_img/cop_condGroup_1_CommunitySafety_autoscaled.png"",""./rc_img/cop_condGroup_1_SafeStreets_autoscaled.png""]","4",""
"sliderTrial","html-slider-response","125","123046","0.0-125.0","","656776a7904ae00d6b91d1dd","0fbm7ypyh8va","12","","","","","","","","","","","","131","[""SV_PolicingMSA/NJ_1936/IMG_7_1936.jpg"",""SV_PolicingMSA/NJ_1936/IMG_8_1936.jpg"",""SV_PolicingMSA/NJ_1936/IMG_2_1936.jpg"",""SV_PolicingMSA/NJ_1936/IMG_3_1936.jpg"",""SV_PolicingMSA/NJ_1936/IMG_13_1936.jpg"",""SV_PolicingMSA/NJ_1936/IMG_4_1936.jpg"",""SV_PolicingMSA/NJ_1936/IMG_10_1936.jpg"",""SV_PolicingMSA/NJ_1936/IMG_1_1936.jpg""]","4","","","","","","4","","4","[""./rc_img/cop_condGroup_9_CommunitySafety_autoscaled.png"",""./rc_img/cop_condGroup_9_SafeStreets_autoscaled.png""]","4",""
"sliderTrial","html-slider-response","126","123179","0.0-126.0","","656776a7904ae00d6b91d1dd","0fbm7ypyh8va","12","","","","","","","","","","","","131","[""SV_PolicingMSA/NJ_1936/IMG_7_1936.jpg"",""SV_PolicingMSA/NJ_1936/IMG_8_1936.jpg"",""SV_PolicingMSA/NJ_1936/IMG_2_1936.jpg"",""SV_PolicingMSA/NJ_1936/IMG_3_1936.jpg"",""SV_PolicingMSA/NJ_1936/IMG_13_1936.jpg"",""SV_PolicingMSA/NJ_1936/IMG_4_1936.jpg"",""SV_PolicingMSA/NJ_1936/IMG_10_1936.jpg"",""SV_PolicingMSA/NJ_1936/IMG_1_1936.jpg""]","4","","","","","","4","","4","[""./rc_img/cop_condGroup_12_SafeStreets_autoscaled.png"",""./rc_img/cop_condGroup_12_CommunitySafety_autoscaled.png""]","4",""
"sliderTrial","html-slider-response","127","123296","0.0-127.0","","656776a7904ae00d6b91d1dd","0fbm7ypyh8va","12","","","","","","","","","","","","114","[""SV_PolicingMSA/NJ_1936/IMG_7_1936.jpg"",""SV_PolicingMSA/NJ_1936/IMG_8_1936.jpg"",""SV_PolicingMSA/NJ_1936/IMG_2_1936.jpg"",""SV_PolicingMSA/NJ_1936/IMG_3_1936.jpg"",""SV_PolicingMSA/NJ_1936/IMG_13_1936.jpg"",""SV_PolicingMSA/NJ_1936/IMG_4_1936.jpg"",""SV_PolicingMSA/NJ_1936/IMG_10_1936.jpg"",""SV_PolicingMSA/NJ_1936/IMG_1_1936.jpg""]","4","","","","","","4","","4","[""./rc_img/cop_condGroup_3_CommunitySafety_autoscaled.png"",""./rc_img/cop_condGroup_3_SafeStreets_autoscaled.png""]","4",""
"before_SVSlide_prompt","html-button-response","128","124263","0.0-128.0","","656776a7904ae00d6b91d1dd","0fbm7ypyh8va","12","","","","","","","","","","","","966","Click [Next] to see the next neighborhood!","0","","","","","","","","","","",""
"street view slide show","image-button-response","129","125270","0.0-129.0","","656776a7904ae00d6b91d1dd","0fbm7ypyh8va","12","","","","","","","","","","","","null","stimulus/SV_PolicingMSA/NJ_500/IMG_8_500.jpg","null","","","","","","2","","","","",""
"street view slide show","image-button-response","130","126278","0.0-130.0","","656776a7904ae00d6b91d1dd","0fbm7ypyh8va","12","","","","","","","","","","","","null","stimulus/SV_PolicingMSA/NJ_500/IMG_14_500.jpg","null","","","","","","2","","","","",""
"street view slide show","image-button-response","131","127286","0.0-131.0","","656776a7904ae00d6b91d1dd","0fbm7ypyh8va","12","","","","","","","","","","","","null","stimulus/SV_PolicingMSA/NJ_500/IMG_4_500.jpg","null","","","","","","2","","","","",""
"street view slide show","image-button-response","132","128295","0.0-132.0","","656776a7904ae00d6b91d1dd","0fbm7ypyh8va","12","","","","","","","","","","","","null","stimulus/SV_PolicingMSA/NJ_500/IMG_10_500.jpg","null","","","","","","2","","","","",""
"street view slide show","image-button-response","133","129305","0.0-133.0","","656776a7904ae00d6b91d1dd","0fbm7ypyh8va","12","","","","","","","","","","","","null","stimulus/SV_PolicingMSA/NJ_500/IMG_0_500.jpg","null","","","","","","2","","","","",""
"street view slide show","image-button-response","134","130311","0.0-134.0","","656776a7904ae00d6b91d1dd","0fbm7ypyh8va","12","","","","","","","","","","","","null","stimulus/SV_PolicingMSA/NJ_500/IMG_12_500.jpg","null","","","","","","2","","","","",""
"street view slide show","image-button-response","135","131318","0.0-135.0","","656776a7904ae00d6b91d1dd","0fbm7ypyh8va","12","","","","","","","","","","","","null","stimulus/SV_PolicingMSA/NJ_500/IMG_7_500.jpg","null","","","","","","2","","","","",""
"street view slide show","image-button-response","136","132328","0.0-136.0","","656776a7904ae00d6b91d1dd","0fbm7ypyh8va","12","","","","","","","","","","","","null","stimulus/SV_PolicingMSA/NJ_500/IMG_11_500.jpg","null","","","","","","2","","","","",""
"dot matrix survey1","survey","137","133771","0.0-137.0","","656776a7904ae00d6b91d1dd","0fbm7ypyh8va","12","","","","","","","","","","","","1427","","{""P0_Q0"":null,""P0_Q1"":null}","","","","","","2","[]","","","",""
"dot matrix survey2","survey","138","135177","0.0-138.0","","656776a7904ae00d6b91d1dd","0fbm7ypyh8va","12","","","","","","","","","","","","1397","","{""P0_Q0"":null,""P0_Q1"":null}","","","","","","2","[]","","","",""
"dot matrix survey3","survey","139","136271","0.0-139.0","","656776a7904ae00d6b91d1dd","0fbm7ypyh8va","12","","","","","","","","","","","","1088","","{""P0_Q0"":null,""P0_Q1"":null}","","","","","","2","[]","","","",""
"sliderTrial","html-slider-response","140","136962","0.0-140.0","","656776a7904ae00d6b91d1dd","0fbm7ypyh8va","12","","","","","","","","","","","","689","[""SV_PolicingMSA/NJ_500/IMG_8_500.jpg"",""SV_PolicingMSA/NJ_500/IMG_14_500.jpg"",""SV_PolicingMSA/NJ_500/IMG_4_500.jpg"",""SV_PolicingMSA/NJ_500/IMG_10_500.jpg"",""SV_PolicingMSA/NJ_500/IMG_0_500.jpg"",""SV_PolicingMSA/NJ_500/IMG_12_500.jpg"",""SV_PolicingMSA/NJ_500/IMG_7_500.jpg"",""SV_PolicingMSA/NJ_500/IMG_11_500.jpg""]","4","","","","","","2","","4","[""./rc_img/cop_condGroup_20_SafeStreets_autoscaled.png"",""./rc_img/cop_condGroup_20_CommunitySafety_autoscaled.png""]","4",""
"sliderTrial","html-slider-response","141","137111","0.0-141.0","","656776a7904ae00d6b91d1dd","0fbm7ypyh8va","12","","","","","","","","","","","","147","[""SV_PolicingMSA/NJ_500/IMG_8_500.jpg"",""SV_PolicingMSA/NJ_500/IMG_14_500.jpg"",""SV_PolicingMSA/NJ_500/IMG_4_500.jpg"",""SV_PolicingMSA/NJ_500/IMG_10_500.jpg"",""SV_PolicingMSA/NJ_500/IMG_0_500.jpg"",""SV_PolicingMSA/NJ_500/IMG_12_500.jpg"",""SV_PolicingMSA/NJ_500/IMG_7_500.jpg"",""SV_PolicingMSA/NJ_500/IMG_11_500.jpg""]","4","","","","","","2","","4","[""./rc_img/cop_condGroup_1_CommunitySafety_autoscaled.png"",""./rc_img/cop_condGroup_1_SafeStreets_autoscaled.png""]","4",""
"sliderTrial","html-slider-response","142","137246","0.0-142.0","","656776a7904ae00d6b91d1dd","0fbm7ypyh8va","12","","","","","","","","","","","","132","[""SV_PolicingMSA/NJ_500/IMG_8_500.jpg"",""SV_PolicingMSA/NJ_500/IMG_14_500.jpg"",""SV_PolicingMSA/NJ_500/IMG_4_500.jpg"",""SV_PolicingMSA/NJ_500/IMG_10_500.jpg"",""SV_PolicingMSA/NJ_500/IMG_0_500.jpg"",""SV_PolicingMSA/NJ_500/IMG_12_500.jpg"",""SV_PolicingMSA/NJ_500/IMG_7_500.jpg"",""SV_PolicingMSA/NJ_500/IMG_11_500.jpg""]","4","","","","","","2","","4","[""./rc_img/cop_condGroup_9_CommunitySafety_autoscaled.png"",""./rc_img/cop_condGroup_9_SafeStreets_autoscaled.png""]","4",""
"sliderTrial","html-slider-response","143","137362","0.0-143.0","","656776a7904ae00d6b91d1dd","0fbm7ypyh8va","12","","","","","","","","","","","","114","[""SV_PolicingMSA/NJ_500/IMG_8_500.jpg"",""SV_PolicingMSA/NJ_500/IMG_14_500.jpg"",""SV_PolicingMSA/NJ_500/IMG_4_500.jpg"",""SV_PolicingMSA/NJ_500/IMG_10_500.jpg"",""SV_PolicingMSA/NJ_500/IMG_0_500.jpg"",""SV_PolicingMSA/NJ_500/IMG_12_500.jpg"",""SV_PolicingMSA/NJ_500/IMG_7_500.jpg"",""SV_PolicingMSA/NJ_500/IMG_11_500.jpg""]","4","","","","","","2","","4","[""./rc_img/cop_condGroup_12_SafeStreets_autoscaled.png"",""./rc_img/cop_condGroup_12_CommunitySafety_autoscaled.png""]","4",""
"sliderTrial","html-slider-response","144","137498","0.0-144.0","","656776a7904ae00d6b91d1dd","0fbm7ypyh8va","12","","","","","","","","","","","","134","[""SV_PolicingMSA/NJ_500/IMG_8_500.jpg"",""SV_PolicingMSA/NJ_500/IMG_14_500.jpg"",""SV_PolicingMSA/NJ_500/IMG_4_500.jpg"",""SV_PolicingMSA/NJ_500/IMG_10_500.jpg"",""SV_PolicingMSA/NJ_500/IMG_0_500.jpg"",""SV_PolicingMSA/NJ_500/IMG_12_500.jpg"",""SV_PolicingMSA/NJ_500/IMG_7_500.jpg"",""SV_PolicingMSA/NJ_500/IMG_11_500.jpg""]","4","","","","","","2","","4","[""./rc_img/cop_condGroup_3_CommunitySafety_autoscaled.png"",""./rc_img/cop_condGroup_3_SafeStreets_autoscaled.png""]","4",""
"demographics","survey-html-form","145","139479","0.0-145.0","","656776a7904ae00d6b91d1dd","0fbm7ypyh8va","12","","","","","","","","","","","","1976","","{""age"":"""",""gender-self-describe"":"""",""zipcode"":""""}","","","","","","","","","","",""
"demographics-list","survey","146","144781","0.0-146.0","","656776a7904ae00d6b91d1dd","0fbm7ypyh8va","12","","","","","","","","","","","","5263","","{""P0_Q0"":null,""race-ethnicity"":[],""education"":"""",""P1_Q0"":null,""ideology"":"""",""P2_Q0"":null,""num-moves"":"""",""P3_Q0"":null,""social-ladder"":null}","","","","","","","[]","","","",""
"end-survey","survey-text","147","147432","0.0-147.0","","656776a7904ae00d6b91d1dd","0fbm7ypyh8va","12","","","","","","","","","","","","2644","","{""Q0"":""""}","","","","","","","","","","","0"
"end-survey","html-button-response","148","162897","0.0-148.0","","656776a7904ae00d6b91d1dd","0fbm7ypyh8va","12","","","","","","","","","","","","15464","
    You've reached the end of the survey. <br><br> 
    <b>Do not close or refresh this window.</b><br>
    In the next page, you will see a pop-up like below after a few moment.<br><br>
    <img src='assets/img/chrome.PNG'> <br><br>
    Press the <b>'Leave'</b> button to exit from the experiment without losing your record.<br>
    You will be automatically redirected to Prolific once you click the <b>'Leave'</b> button. <br><br>
    <div class=""alert alert-warning""><b>
            <p>Also, please enter the following completion code on Prolific:</p>
            <h3>C1GXQTQHundefined</h3>
","0","","","","","","","","","","",""
