"task","trial_type","trial_index","time_elapsed","internal_node_id","subject_id","study_id","session_id","section","width","height","webaudio","browser","browser_version","mobile","os","fullscreen","vsync_rate","webcam","microphone","rt","stimulus","response","success","timeout","failed_images","failed_audio","failed_video","block","accuracy","slider_start","choices","standardized_response","num_attention_checks_correct"
"pavlovia-init","pavlovia","0","1018","0.0-0.0","","656776a7904ae00d6b91d1dd","6568ad0e3da2cc66ce613b96","14","","","","","","","","","","","","","","","","","","","","","","","","",""
"browser-check","browser-check","1","2022","0.0-1.0","","656776a7904ae00d6b91d1dd","6568ad0e3da2cc66ce613b96","14","1680","964","true","chrome","117.0.0","false","Mac OS","true","60.16","true","true","","","","","","","","","","","","","",""
"consent","html-button-response","2","9841","0.0-2.0","","656776a7904ae00d6b91d1dd","6568ad0e3da2cc66ce613b96","14","","","","","","","","","","","","7815","
        <div style=""font-size: 80%; max-width:700px"">
            <h2>CONSENT FORM</h2>
        
            <div style=""text-align: left"">
            <h4>DESCRIPTION</h4>
            <p>
            You will complete a short task where you give your impressions of various neighborhoods and assign individuals to those spaces, and answer some questions about your thoughts and opinions.<br>
            The University of Michigan Institutional Review Board Health Sciences and Behavioral Sciences has determined that this study is exempt from IRB oversight.
            </p>

            <h4>TIME INVOLVEMENT</h4>
            <p>Your participation will take approximately 15 minutes. You will receive $3.15 upon completion of the study.</p>
        
            <h4>RISKS AND BENEFITS</h4>
            <p>
            The risks associated with this study are minimal. The benefits which may reasonably be expected to result from this study are none. We cannot and do not guarantee or promise that you will receive any benefits from this study.
            </p>
          
            <h4>SUBJECT'S RIGHTS</h4>
            <p>
            If you have read this form and have decided to participate in this project, please understand your participation is voluntary and you have the right to withdraw your consent or discontinue participation at any time without penalty or loss of benefits to which you are otherwise entitled. The alternative is not to participate. You have the right to refuse to answer particular questions. Your individual privacy will be maintained in all published and written data resulting from the study.
            </p>

            <h4>HUMAN SUBJECT APPROVAL</h4>
            <p>
            This study is exempt from ongoing IRB review.
            </p>

            <h4>CONTACT INFORMATION</h4>
            If you have any questions, concerns or complaints about this research, its procedures, risks and benefits, contact the Protocol Director, Nicholas Camp, npcamp@umich.edu, (443) 851-6783. <br>

            If you have questions about your rights as a research participant, or wish to obtain information, ask questions or discuss any concerns about this study with someone other than the researcher(s), please contact the following:<br><br>
            University of Michigan<br>
            Health Sciences and Behavioral Sciences Institutional Review Board (IRB-HSBS)<br>
            2800 Plymouth Road<br>
            Building 520, Room 1169Ann Arbor, MI 48109-2800<br>
            Telephone: 734-936-0933 or toll free (866) 936-0933<br>
            Fax: 734-936-1852<br>
            E-mail: irbhsbs@umich.edu<br><br>

            You can also contact the University of Michigan Compliance Hotline at 1-866-990-0111. You may also print this consent form to keep.
            <br><br>
            <div class=""alert alert-warning""><b>
            Do you consent to participate in this study? If you consent to participate in this study, please click “Accept and Continue”. If you select ""Decline and Exit"", you will be exited from the survey. <br>
            </b></div>
            </div>
        </div>
    ","1","","","","","","","","","","",""
"","preload","3","10985","0.0-3.0","","656776a7904ae00d6b91d1dd","6568ad0e3da2cc66ce613b96","14","","","","","","","","","","","","","","","true","false","[]","[]","[]","","","","","",""
"instructions","html-button-response","4","19474","0.0-4.0","","656776a7904ae00d6b91d1dd","6568ad0e3da2cc66ce613b96","14","","","","","","","","","","","","8487","
        <div class=""text-container"">
        <h1>Welcome to the study!</h1>
        
        <div class=""text-left"">
            <p>
                In this study, we are interested in what people can tell about spaces from Google Street View images. <br> Google Street View takes pictures of streets used for Google Earth and Google Maps. <br>You’ll see Google Street View images of different places and answer some questions about each one.<br>
            </p>
        </div>
        <img src = ""assets/img/example.png"" width = 500px, height = auto>
        <br>
    <br>
    ","0","","","","","","","","","","",""
"instructions","html-button-response","5","22007","0.0-5.0","","656776a7904ae00d6b91d1dd","6568ad0e3da2cc66ce613b96","14","","","","","","","","","","","","2532","
    <div class=""text-container"">
        <div class=""text-center"">
            <p>Please remember that your answers are completely anonymous.<br>Go with your gut response- there are no right or wrong answers!</p>
        </div>
    <br>
","0","","","","","","","","","","",""
"before_SVSlide_prompt","html-button-response","6","23206","0.0-6.0","","656776a7904ae00d6b91d1dd","6568ad0e3da2cc66ce613b96","14","","","","","","","","","","","","1197","Click [Next] to see the next neighborhood!","0","","","","","","","","","","",""
"street view slide show","image-button-response","7","24212","0.0-7.0","","656776a7904ae00d6b91d1dd","6568ad0e3da2cc66ce613b96","14","","","","","","","","","","","","null","stimulus/SV_PolicingMSA/GA_1400/IMG_4_1400.jpg","null","","","","","","3","","","","",""
"street view slide show","image-button-response","8","25221","0.0-8.0","","656776a7904ae00d6b91d1dd","6568ad0e3da2cc66ce613b96","14","","","","","","","","","","","","null","stimulus/SV_PolicingMSA/GA_1400/IMG_2_1400.jpg","null","","","","","","3","","","","",""
"street view slide show","image-button-response","9","26228","0.0-9.0","","656776a7904ae00d6b91d1dd","6568ad0e3da2cc66ce613b96","14","","","","","","","","","","","","null","stimulus/SV_PolicingMSA/GA_1400/IMG_0_1400.jpg","null","","","","","","3","","","","",""
"street view slide show","image-button-response","10","27232","0.0-10.0","","656776a7904ae00d6b91d1dd","6568ad0e3da2cc66ce613b96","14","","","","","","","","","","","","null","stimulus/SV_PolicingMSA/GA_1400/IMG_3_1400.jpg","null","","","","","","3","","","","",""
"street view slide show","image-button-response","11","28240","0.0-11.0","","656776a7904ae00d6b91d1dd","6568ad0e3da2cc66ce613b96","14","","","","","","","","","","","","null","stimulus/SV_PolicingMSA/GA_1400/IMG_9_1400.jpg","null","","","","","","3","","","","",""
"street view slide show","image-button-response","12","29243","0.0-12.0","","656776a7904ae00d6b91d1dd","6568ad0e3da2cc66ce613b96","14","","","","","","","","","","","","null","stimulus/SV_PolicingMSA/GA_1400/IMG_8_1400.jpg","null","","","","","","3","","","","",""
"street view slide show","image-button-response","13","30250","0.0-13.0","","656776a7904ae00d6b91d1dd","6568ad0e3da2cc66ce613b96","14","","","","","","","","","","","","null","stimulus/SV_PolicingMSA/GA_1400/IMG_1_1400.jpg","null","","","","","","3","","","","",""
"street view slide show","image-button-response","14","31258","0.0-14.0","","656776a7904ae00d6b91d1dd","6568ad0e3da2cc66ce613b96","14","","","","","","","","","","","","null","stimulus/SV_PolicingMSA/GA_1400/IMG_12_1400.jpg","null","","","","","","3","","","","",""
"dot matrix survey1","survey","15","49255","0.0-15.0","","656776a7904ae00d6b91d1dd","6568ad0e3da2cc66ce613b96","14","","","","","","","","","","","","17957","","{""P0_Q0"":null,""P0_Q1"":{""wealthy"":1,""safe"":2,""walkable"":0,""traditional"":1,""diverse"":2}}","","","","","","3","[]","","","",""
"dot matrix survey2","survey","16","73503","0.0-16.0","","656776a7904ae00d6b91d1dd","6568ad0e3da2cc66ce613b96","14","","","","","","","","","","","","24239","","{""P0_Q0"":null,""P0_Q1"":{""violence"":2,""crime"":2,""drug"":3,""schools"":0,""opportunities"":0}}","","","","","","3","[]","","","",""
"dot matrix survey3","survey","17","101966","0.0-17.0","","656776a7904ae00d6b91d1dd","6568ad0e3da2cc66ce613b96","14","","","","","","","","","","","","28455","","{""P0_Q0"":null,""P0_Q1"":{""movein"":0,""moveout"":4,""shopping"":0,""walk"":1,""park"":1,""school"":0}}","","","","","","3","[]","","","",""
"sliderTrial","html-slider-response","18","111758","0.0-18.0","","656776a7904ae00d6b91d1dd","6568ad0e3da2cc66ce613b96","14","","","","","","","","","","","","9789","[""SV_PolicingMSA/GA_1400/IMG_4_1400.jpg"",""SV_PolicingMSA/GA_1400/IMG_2_1400.jpg"",""SV_PolicingMSA/GA_1400/IMG_0_1400.jpg"",""SV_PolicingMSA/GA_1400/IMG_3_1400.jpg"",""SV_PolicingMSA/GA_1400/IMG_9_1400.jpg"",""SV_PolicingMSA/GA_1400/IMG_8_1400.jpg"",""SV_PolicingMSA/GA_1400/IMG_1_1400.jpg"",""SV_PolicingMSA/GA_1400/IMG_12_1400.jpg""]","4","","","","","","3","","4","[""./rc_img/cop_condGroup_7_CommunitySafety_autoscaled.png"",""./rc_img/cop_condGroup_7_SafeStreets_autoscaled.png""]","4",""
"sliderTrial","html-slider-response","19","119456","0.0-19.0","","656776a7904ae00d6b91d1dd","6568ad0e3da2cc66ce613b96","14","","","","","","","","","","","","7695","[""SV_PolicingMSA/GA_1400/IMG_4_1400.jpg"",""SV_PolicingMSA/GA_1400/IMG_2_1400.jpg"",""SV_PolicingMSA/GA_1400/IMG_0_1400.jpg"",""SV_PolicingMSA/GA_1400/IMG_3_1400.jpg"",""SV_PolicingMSA/GA_1400/IMG_9_1400.jpg"",""SV_PolicingMSA/GA_1400/IMG_8_1400.jpg"",""SV_PolicingMSA/GA_1400/IMG_1_1400.jpg"",""SV_PolicingMSA/GA_1400/IMG_12_1400.jpg""]","4","","","","","","3","","4","[""./rc_img/cop_condGroup_17_CommunitySafety_autoscaled.png"",""./rc_img/cop_condGroup_17_SafeStreets_autoscaled.png""]","4",""
"sliderTrial","html-slider-response","20","123290","0.0-20.0","","656776a7904ae00d6b91d1dd","6568ad0e3da2cc66ce613b96","14","","","","","","","","","","","","3832","[""SV_PolicingMSA/GA_1400/IMG_4_1400.jpg"",""SV_PolicingMSA/GA_1400/IMG_2_1400.jpg"",""SV_PolicingMSA/GA_1400/IMG_0_1400.jpg"",""SV_PolicingMSA/GA_1400/IMG_3_1400.jpg"",""SV_PolicingMSA/GA_1400/IMG_9_1400.jpg"",""SV_PolicingMSA/GA_1400/IMG_8_1400.jpg"",""SV_PolicingMSA/GA_1400/IMG_1_1400.jpg"",""SV_PolicingMSA/GA_1400/IMG_12_1400.jpg""]","4","","","","","","3","","4","[""./rc_img/cop_condGroup_12_CommunitySafety_autoscaled.png"",""./rc_img/cop_condGroup_12_SafeStreets_autoscaled.png""]","4",""
"sliderTrial","html-slider-response","21","126640","0.0-21.0","","656776a7904ae00d6b91d1dd","6568ad0e3da2cc66ce613b96","14","","","","","","","","","","","","3347","[""SV_PolicingMSA/GA_1400/IMG_4_1400.jpg"",""SV_PolicingMSA/GA_1400/IMG_2_1400.jpg"",""SV_PolicingMSA/GA_1400/IMG_0_1400.jpg"",""SV_PolicingMSA/GA_1400/IMG_3_1400.jpg"",""SV_PolicingMSA/GA_1400/IMG_9_1400.jpg"",""SV_PolicingMSA/GA_1400/IMG_8_1400.jpg"",""SV_PolicingMSA/GA_1400/IMG_1_1400.jpg"",""SV_PolicingMSA/GA_1400/IMG_12_1400.jpg""]","4","","","","","","3","","4","[""./rc_img/cop_condGroup_20_SafeStreets_autoscaled.png"",""./rc_img/cop_condGroup_20_CommunitySafety_autoscaled.png""]","4",""
"sliderTrial","html-slider-response","22","130291","0.0-22.0","","656776a7904ae00d6b91d1dd","6568ad0e3da2cc66ce613b96","14","","","","","","","","","","","","3648","[""SV_PolicingMSA/GA_1400/IMG_4_1400.jpg"",""SV_PolicingMSA/GA_1400/IMG_2_1400.jpg"",""SV_PolicingMSA/GA_1400/IMG_0_1400.jpg"",""SV_PolicingMSA/GA_1400/IMG_3_1400.jpg"",""SV_PolicingMSA/GA_1400/IMG_9_1400.jpg"",""SV_PolicingMSA/GA_1400/IMG_8_1400.jpg"",""SV_PolicingMSA/GA_1400/IMG_1_1400.jpg"",""SV_PolicingMSA/GA_1400/IMG_12_1400.jpg""]","4","","","","","","3","","4","[""./rc_img/cop_condGroup_9_CommunitySafety_autoscaled.png"",""./rc_img/cop_condGroup_9_SafeStreets_autoscaled.png""]","4",""
"before_SVSlide_prompt","html-button-response","23","131841","0.0-23.0","","656776a7904ae00d6b91d1dd","6568ad0e3da2cc66ce613b96","14","","","","","","","","","","","","1548","Click [Next] to see the next neighborhood!","0","","","","","","","","","","",""
"street view slide show","image-button-response","24","132843","0.0-24.0","","656776a7904ae00d6b91d1dd","6568ad0e3da2cc66ce613b96","14","","","","","","","","","","","","null","stimulus/SV_PolicingMSA/GA_2654/IMG_5_2654.jpg","null","","","","","","3","","","","",""
"street view slide show","image-button-response","25","133845","0.0-25.0","","656776a7904ae00d6b91d1dd","6568ad0e3da2cc66ce613b96","14","","","","","","","","","","","","null","stimulus/SV_PolicingMSA/GA_2654/IMG_8_2654.jpg","null","","","","","","3","","","","",""
"street view slide show","image-button-response","26","134853","0.0-26.0","","656776a7904ae00d6b91d1dd","6568ad0e3da2cc66ce613b96","14","","","","","","","","","","","","null","stimulus/SV_PolicingMSA/GA_2654/IMG_6_2654.jpg","null","","","","","","3","","","","",""
"street view slide show","image-button-response","27","135855","0.0-27.0","","656776a7904ae00d6b91d1dd","6568ad0e3da2cc66ce613b96","14","","","","","","","","","","","","null","stimulus/SV_PolicingMSA/GA_2654/IMG_1_2654.jpg","null","","","","","","3","","","","",""
"street view slide show","image-button-response","28","136861","0.0-28.0","","656776a7904ae00d6b91d1dd","6568ad0e3da2cc66ce613b96","14","","","","","","","","","","","","null","stimulus/SV_PolicingMSA/GA_2654/IMG_0_2654.jpg","null","","","","","","3","","","","",""
"street view slide show","image-button-response","29","137864","0.0-29.0","","656776a7904ae00d6b91d1dd","6568ad0e3da2cc66ce613b96","14","","","","","","","","","","","","null","stimulus/SV_PolicingMSA/GA_2654/IMG_7_2654.jpg","null","","","","","","3","","","","",""
"street view slide show","image-button-response","30","138870","0.0-30.0","","656776a7904ae00d6b91d1dd","6568ad0e3da2cc66ce613b96","14","","","","","","","","","","","","null","stimulus/SV_PolicingMSA/GA_2654/IMG_3_2654.jpg","null","","","","","","3","","","","",""
"street view slide show","image-button-response","31","139872","0.0-31.0","","656776a7904ae00d6b91d1dd","6568ad0e3da2cc66ce613b96","14","","","","","","","","","","","","null","stimulus/SV_PolicingMSA/GA_2654/IMG_12_2654.jpg","null","","","","","","3","","","","",""
"dot matrix survey1","survey","32","157398","0.0-32.0","","656776a7904ae00d6b91d1dd","6568ad0e3da2cc66ce613b96","14","","","","","","","","","","","","17511","","{""P0_Q0"":null,""P0_Q1"":{""wealthy"":2,""safe"":2,""walkable"":0,""traditional"":2,""diverse"":2}}","","","","","","3","[]","","","",""
"dot matrix survey2","survey","33","174597","0.0-33.0","","656776a7904ae00d6b91d1dd","6568ad0e3da2cc66ce613b96","14","","","","","","","","","","","","17190","","{""P0_Q0"":null,""P0_Q1"":{""violence"":0,""crime"":0,""drug"":1,""schools"":1,""opportunities"":2}}","","","","","","3","[]","","","",""
"dot matrix survey3","survey","34","186849","0.0-34.0","","656776a7904ae00d6b91d1dd","6568ad0e3da2cc66ce613b96","14","","","","","","","","","","","","12245","","{""P0_Q0"":null,""P0_Q1"":{""movein"":0,""moveout"":4,""shopping"":2,""walk"":2,""park"":2,""school"":0}}","","","","","","3","[]","","","",""
"sliderTrial","html-slider-response","35","189725","0.0-35.0","","656776a7904ae00d6b91d1dd","6568ad0e3da2cc66ce613b96","14","","","","","","","","","","","","2873","[""SV_PolicingMSA/GA_2654/IMG_5_2654.jpg"",""SV_PolicingMSA/GA_2654/IMG_8_2654.jpg"",""SV_PolicingMSA/GA_2654/IMG_6_2654.jpg"",""SV_PolicingMSA/GA_2654/IMG_1_2654.jpg"",""SV_PolicingMSA/GA_2654/IMG_0_2654.jpg"",""SV_PolicingMSA/GA_2654/IMG_7_2654.jpg"",""SV_PolicingMSA/GA_2654/IMG_3_2654.jpg"",""SV_PolicingMSA/GA_2654/IMG_12_2654.jpg""]","4","","","","","","3","","4","[""./rc_img/cop_condGroup_4_SafeStreets_autoscaled.png"",""./rc_img/cop_condGroup_4_CommunitySafety_autoscaled.png""]","4",""
"sliderTrial","html-slider-response","36","191074","0.0-36.0","","656776a7904ae00d6b91d1dd","6568ad0e3da2cc66ce613b96","14","","","","","","","","","","","","1346","[""SV_PolicingMSA/GA_2654/IMG_5_2654.jpg"",""SV_PolicingMSA/GA_2654/IMG_8_2654.jpg"",""SV_PolicingMSA/GA_2654/IMG_6_2654.jpg"",""SV_PolicingMSA/GA_2654/IMG_1_2654.jpg"",""SV_PolicingMSA/GA_2654/IMG_0_2654.jpg"",""SV_PolicingMSA/GA_2654/IMG_7_2654.jpg"",""SV_PolicingMSA/GA_2654/IMG_3_2654.jpg"",""SV_PolicingMSA/GA_2654/IMG_12_2654.jpg""]","4","","","","","","3","","4","[""./rc_img/cop_condGroup_8_CommunitySafety_autoscaled.png"",""./rc_img/cop_condGroup_8_SafeStreets_autoscaled.png""]","4",""
"sliderTrial","html-slider-response","37","191857","0.0-37.0","","656776a7904ae00d6b91d1dd","6568ad0e3da2cc66ce613b96","14","","","","","","","","","","","","781","[""SV_PolicingMSA/GA_2654/IMG_5_2654.jpg"",""SV_PolicingMSA/GA_2654/IMG_8_2654.jpg"",""SV_PolicingMSA/GA_2654/IMG_6_2654.jpg"",""SV_PolicingMSA/GA_2654/IMG_1_2654.jpg"",""SV_PolicingMSA/GA_2654/IMG_0_2654.jpg"",""SV_PolicingMSA/GA_2654/IMG_7_2654.jpg"",""SV_PolicingMSA/GA_2654/IMG_3_2654.jpg"",""SV_PolicingMSA/GA_2654/IMG_12_2654.jpg""]","4","","","","","","3","","4","[""./rc_img/cop_condGroup_2_SafeStreets_autoscaled.png"",""./rc_img/cop_condGroup_2_CommunitySafety_autoscaled.png""]","4",""
"sliderTrial","html-slider-response","38","192507","0.0-38.0","","656776a7904ae00d6b91d1dd","6568ad0e3da2cc66ce613b96","14","","","","","","","","","","","","647","[""SV_PolicingMSA/GA_2654/IMG_5_2654.jpg"",""SV_PolicingMSA/GA_2654/IMG_8_2654.jpg"",""SV_PolicingMSA/GA_2654/IMG_6_2654.jpg"",""SV_PolicingMSA/GA_2654/IMG_1_2654.jpg"",""SV_PolicingMSA/GA_2654/IMG_0_2654.jpg"",""SV_PolicingMSA/GA_2654/IMG_7_2654.jpg"",""SV_PolicingMSA/GA_2654/IMG_3_2654.jpg"",""SV_PolicingMSA/GA_2654/IMG_12_2654.jpg""]","4","","","","","","3","","4","[""./rc_img/cop_condGroup_11_SafeStreets_autoscaled.png"",""./rc_img/cop_condGroup_11_CommunitySafety_autoscaled.png""]","4",""
"sliderTrial","html-slider-response","39","193124","0.0-39.0","","656776a7904ae00d6b91d1dd","6568ad0e3da2cc66ce613b96","14","","","","","","","","","","","","615","[""SV_PolicingMSA/GA_2654/IMG_5_2654.jpg"",""SV_PolicingMSA/GA_2654/IMG_8_2654.jpg"",""SV_PolicingMSA/GA_2654/IMG_6_2654.jpg"",""SV_PolicingMSA/GA_2654/IMG_1_2654.jpg"",""SV_PolicingMSA/GA_2654/IMG_0_2654.jpg"",""SV_PolicingMSA/GA_2654/IMG_7_2654.jpg"",""SV_PolicingMSA/GA_2654/IMG_3_2654.jpg"",""SV_PolicingMSA/GA_2654/IMG_12_2654.jpg""]","4","","","","","","3","","4","[""./rc_img/cop_condGroup_19_SafeStreets_autoscaled.png"",""./rc_img/cop_condGroup_19_CommunitySafety_autoscaled.png""]","4",""
"before_SVSlide_prompt","html-button-response","40","194324","0.0-40.0","","656776a7904ae00d6b91d1dd","6568ad0e3da2cc66ce613b96","14","","","","","","","","","","","","1199","Click [Next] to see the next neighborhood!","0","","","","","","","","","","",""
"street view slide show","image-button-response","41","195327","0.0-41.0","","656776a7904ae00d6b91d1dd","6568ad0e3da2cc66ce613b96","14","","","","","","","","","","","","null","stimulus/SV_PolicingMSA/GA_1756/IMG_10_1756.jpg","null","","","","","","0","","","","",""
"street view slide show","image-button-response","42","196331","0.0-42.0","","656776a7904ae00d6b91d1dd","6568ad0e3da2cc66ce613b96","14","","","","","","","","","","","","null","stimulus/SV_PolicingMSA/GA_1756/IMG_13_1756.jpg","null","","","","","","0","","","","",""
"street view slide show","image-button-response","43","197334","0.0-43.0","","656776a7904ae00d6b91d1dd","6568ad0e3da2cc66ce613b96","14","","","","","","","","","","","","null","stimulus/SV_PolicingMSA/GA_1756/IMG_3_1756.jpg","null","","","","","","0","","","","",""
"street view slide show","image-button-response","44","198340","0.0-44.0","","656776a7904ae00d6b91d1dd","6568ad0e3da2cc66ce613b96","14","","","","","","","","","","","","null","stimulus/SV_PolicingMSA/GA_1756/IMG_2_1756.jpg","null","","","","","","0","","","","",""
"street view slide show","image-button-response","45","199348","0.0-45.0","","656776a7904ae00d6b91d1dd","6568ad0e3da2cc66ce613b96","14","","","","","","","","","","","","null","stimulus/SV_PolicingMSA/GA_1756/IMG_14_1756.jpg","null","","","","","","0","","","","",""
"street view slide show","image-button-response","46","200351","0.0-46.0","","656776a7904ae00d6b91d1dd","6568ad0e3da2cc66ce613b96","14","","","","","","","","","","","","null","stimulus/SV_PolicingMSA/GA_1756/IMG_7_1756.jpg","null","","","","","","0","","","","",""
"street view slide show","image-button-response","47","201357","0.0-47.0","","656776a7904ae00d6b91d1dd","6568ad0e3da2cc66ce613b96","14","","","","","","","","","","","","null","stimulus/SV_PolicingMSA/GA_1756/IMG_1_1756.jpg","null","","","","","","0","","","","",""
"street view slide show","image-button-response","48","202361","0.0-48.0","","656776a7904ae00d6b91d1dd","6568ad0e3da2cc66ce613b96","14","","","","","","","","","","","","null","stimulus/SV_PolicingMSA/GA_1756/IMG_4_1756.jpg","null","","","","","","0","","","","",""
"dot matrix survey1","survey","49","214983","0.0-49.0","","656776a7904ae00d6b91d1dd","6568ad0e3da2cc66ce613b96","14","","","","","","","","","","","","12610","","{""P0_Q0"":null,""P0_Q1"":{""wealthy"":0,""safe"":0,""walkable"":3,""traditional"":0,""diverse"":1}}","","","","","","0","[]","","","",""
"dot matrix survey2","survey","50","226166","0.0-50.0","","656776a7904ae00d6b91d1dd","6568ad0e3da2cc66ce613b96","14","","","","","","","","","","","","11175","","{""P0_Q0"":null,""P0_Q1"":{""violence"":4,""crime"":4,""drug"":4,""schools"":0,""opportunities"":0}}","","","","","","0","[]","","","",""
"dot matrix survey3","survey","51","235147","0.0-51.0","","656776a7904ae00d6b91d1dd","6568ad0e3da2cc66ce613b96","14","","","","","","","","","","","","8974","","{""P0_Q0"":null,""P0_Q1"":{""movein"":0,""moveout"":4,""shopping"":0,""walk"":0,""park"":0,""school"":0}}","","","","","","0","[]","","","",""
"sliderTrial","html-slider-response","52","238657","0.0-52.0","","656776a7904ae00d6b91d1dd","6568ad0e3da2cc66ce613b96","14","","","","","","","","","","","","3508","[""SV_PolicingMSA/GA_1756/IMG_10_1756.jpg"",""SV_PolicingMSA/GA_1756/IMG_13_1756.jpg"",""SV_PolicingMSA/GA_1756/IMG_3_1756.jpg"",""SV_PolicingMSA/GA_1756/IMG_2_1756.jpg"",""SV_PolicingMSA/GA_1756/IMG_14_1756.jpg"",""SV_PolicingMSA/GA_1756/IMG_7_1756.jpg"",""SV_PolicingMSA/GA_1756/IMG_1_1756.jpg"",""SV_PolicingMSA/GA_1756/IMG_4_1756.jpg""]","4","","","","","","0","","4","[""./rc_img/cop_condGroup_6_SafeStreets_autoscaled.png"",""./rc_img/cop_condGroup_6_CommunitySafety_autoscaled.png""]","4",""
"sliderTrial","html-slider-response","53","239273","0.0-53.0","","656776a7904ae00d6b91d1dd","6568ad0e3da2cc66ce613b96","14","","","","","","","","","","","","615","[""SV_PolicingMSA/GA_1756/IMG_10_1756.jpg"",""SV_PolicingMSA/GA_1756/IMG_13_1756.jpg"",""SV_PolicingMSA/GA_1756/IMG_3_1756.jpg"",""SV_PolicingMSA/GA_1756/IMG_2_1756.jpg"",""SV_PolicingMSA/GA_1756/IMG_14_1756.jpg"",""SV_PolicingMSA/GA_1756/IMG_7_1756.jpg"",""SV_PolicingMSA/GA_1756/IMG_1_1756.jpg"",""SV_PolicingMSA/GA_1756/IMG_4_1756.jpg""]","4","","","","","","0","","4","[""./rc_img/cop_condGroup_14_SafeStreets_autoscaled.png"",""./rc_img/cop_condGroup_14_CommunitySafety_autoscaled.png""]","4",""
"sliderTrial_attention","html-slider-response","54","239740","0.0-54.0","","656776a7904ae00d6b91d1dd","6568ad0e3da2cc66ce613b96","14","","","","","","","","","","","","465","[""SV_PolicingMSA/GA_1756/IMG_10_1756.jpg"",""SV_PolicingMSA/GA_1756/IMG_13_1756.jpg"",""SV_PolicingMSA/GA_1756/IMG_3_1756.jpg"",""SV_PolicingMSA/GA_1756/IMG_2_1756.jpg"",""SV_PolicingMSA/GA_1756/IMG_14_1756.jpg"",""SV_PolicingMSA/GA_1756/IMG_7_1756.jpg"",""SV_PolicingMSA/GA_1756/IMG_1_1756.jpg"",""SV_PolicingMSA/GA_1756/IMG_4_1756.jpg""]","4","","","","","","0","","4","[""./assets/img/attnchk.png"",""./assets/img/attnchk.png""]","",""
"sliderTrial","html-slider-response","55","240224","0.0-55.0","","656776a7904ae00d6b91d1dd","6568ad0e3da2cc66ce613b96","14","","","","","","","","","","","","481","[""SV_PolicingMSA/GA_1756/IMG_10_1756.jpg"",""SV_PolicingMSA/GA_1756/IMG_13_1756.jpg"",""SV_PolicingMSA/GA_1756/IMG_3_1756.jpg"",""SV_PolicingMSA/GA_1756/IMG_2_1756.jpg"",""SV_PolicingMSA/GA_1756/IMG_14_1756.jpg"",""SV_PolicingMSA/GA_1756/IMG_7_1756.jpg"",""SV_PolicingMSA/GA_1756/IMG_1_1756.jpg"",""SV_PolicingMSA/GA_1756/IMG_4_1756.jpg""]","4","","","","","","0","","4","[""./rc_img/cop_condGroup_3_SafeStreets_autoscaled.png"",""./rc_img/cop_condGroup_3_CommunitySafety_autoscaled.png""]","4",""
"sliderTrial","html-slider-response","56","240691","0.0-56.0","","656776a7904ae00d6b91d1dd","6568ad0e3da2cc66ce613b96","14","","","","","","","","","","","","464","[""SV_PolicingMSA/GA_1756/IMG_10_1756.jpg"",""SV_PolicingMSA/GA_1756/IMG_13_1756.jpg"",""SV_PolicingMSA/GA_1756/IMG_3_1756.jpg"",""SV_PolicingMSA/GA_1756/IMG_2_1756.jpg"",""SV_PolicingMSA/GA_1756/IMG_14_1756.jpg"",""SV_PolicingMSA/GA_1756/IMG_7_1756.jpg"",""SV_PolicingMSA/GA_1756/IMG_1_1756.jpg"",""SV_PolicingMSA/GA_1756/IMG_4_1756.jpg""]","4","","","","","","0","","4","[""./rc_img/cop_condGroup_10_CommunitySafety_autoscaled.png"",""./rc_img/cop_condGroup_10_SafeStreets_autoscaled.png""]","4",""
"sliderTrial","html-slider-response","57","241258","0.0-57.0","","656776a7904ae00d6b91d1dd","6568ad0e3da2cc66ce613b96","14","","","","","","","","","","","","565","[""SV_PolicingMSA/GA_1756/IMG_10_1756.jpg"",""SV_PolicingMSA/GA_1756/IMG_13_1756.jpg"",""SV_PolicingMSA/GA_1756/IMG_3_1756.jpg"",""SV_PolicingMSA/GA_1756/IMG_2_1756.jpg"",""SV_PolicingMSA/GA_1756/IMG_14_1756.jpg"",""SV_PolicingMSA/GA_1756/IMG_7_1756.jpg"",""SV_PolicingMSA/GA_1756/IMG_1_1756.jpg"",""SV_PolicingMSA/GA_1756/IMG_4_1756.jpg""]","4","","","","","","0","","4","[""./rc_img/cop_condGroup_13_SafeStreets_autoscaled.png"",""./rc_img/cop_condGroup_13_CommunitySafety_autoscaled.png""]","4",""
"before_SVSlide_prompt","html-button-response","58","242508","0.0-58.0","","656776a7904ae00d6b91d1dd","6568ad0e3da2cc66ce613b96","14","","","","","","","","","","","","1249","Click [Next] to see the next neighborhood!","0","","","","","","","","","","",""
"street view slide show","image-button-response","59","243515","0.0-59.0","","656776a7904ae00d6b91d1dd","6568ad0e3da2cc66ce613b96","14","","","","","","","","","","","","null","stimulus/SV_PolicingMSA/GA_2658/IMG_13_2658.jpg","null","","","","","","4","","","","",""
"street view slide show","image-button-response","60","244523","0.0-60.0","","656776a7904ae00d6b91d1dd","6568ad0e3da2cc66ce613b96","14","","","","","","","","","","","","null","stimulus/SV_PolicingMSA/GA_2658/IMG_1_2658.jpg","null","","","","","","4","","","","",""
"street view slide show","image-button-response","61","245525","0.0-61.0","","656776a7904ae00d6b91d1dd","6568ad0e3da2cc66ce613b96","14","","","","","","","","","","","","null","stimulus/SV_PolicingMSA/GA_2658/IMG_12_2658.jpg","null","","","","","","4","","","","",""
"street view slide show","image-button-response","62","246534","0.0-62.0","","656776a7904ae00d6b91d1dd","6568ad0e3da2cc66ce613b96","14","","","","","","","","","","","","null","stimulus/SV_PolicingMSA/GA_2658/IMG_5_2658.jpg","null","","","","","","4","","","","",""
"street view slide show","image-button-response","63","247537","0.0-63.0","","656776a7904ae00d6b91d1dd","6568ad0e3da2cc66ce613b96","14","","","","","","","","","","","","null","stimulus/SV_PolicingMSA/GA_2658/IMG_7_2658.jpg","null","","","","","","4","","","","",""
"street view slide show","image-button-response","64","248544","0.0-64.0","","656776a7904ae00d6b91d1dd","6568ad0e3da2cc66ce613b96","14","","","","","","","","","","","","null","stimulus/SV_PolicingMSA/GA_2658/IMG_0_2658.jpg","null","","","","","","4","","","","",""
"street view slide show","image-button-response","65","249548","0.0-65.0","","656776a7904ae00d6b91d1dd","6568ad0e3da2cc66ce613b96","14","","","","","","","","","","","","null","stimulus/SV_PolicingMSA/GA_2658/IMG_14_2658.jpg","null","","","","","","4","","","","",""
"street view slide show","image-button-response","66","250556","0.0-66.0","","656776a7904ae00d6b91d1dd","6568ad0e3da2cc66ce613b96","14","","","","","","","","","","","","null","stimulus/SV_PolicingMSA/GA_2658/IMG_3_2658.jpg","null","","","","","","4","","","","",""
"dot matrix survey1","survey","67","264330","0.0-67.0","","656776a7904ae00d6b91d1dd","6568ad0e3da2cc66ce613b96","14","","","","","","","","","","","","13760","","{""P0_Q0"":null,""P0_Q1"":{""wealthy"":4,""safe"":4,""walkable"":1,""traditional"":4,""diverse"":1}}","","","","","","4","[]","","","",""
"dot matrix survey2","survey","68","271616","0.0-68.0","","656776a7904ae00d6b91d1dd","6568ad0e3da2cc66ce613b96","14","","","","","","","","","","","","7280","","{""P0_Q0"":null,""P0_Q1"":{""violence"":0,""crime"":0,""drug"":0,""schools"":4,""opportunities"":4}}","","","","","","4","[]","","","",""
"dot matrix survey3","survey","69","281481","0.0-69.0","","656776a7904ae00d6b91d1dd","6568ad0e3da2cc66ce613b96","14","","","","","","","","","","","","9858","","{""P0_Q0"":null,""P0_Q1"":{""movein"":4,""moveout"":0,""shopping"":4,""walk"":4,""park"":4,""school"":4}}","","","","","","4","[]","","","",""
"sliderTrial","html-slider-response","70","283740","0.0-70.0","","656776a7904ae00d6b91d1dd","6568ad0e3da2cc66ce613b96","14","","","","","","","","","","","","2258","[""SV_PolicingMSA/GA_2658/IMG_13_2658.jpg"",""SV_PolicingMSA/GA_2658/IMG_1_2658.jpg"",""SV_PolicingMSA/GA_2658/IMG_12_2658.jpg"",""SV_PolicingMSA/GA_2658/IMG_5_2658.jpg"",""SV_PolicingMSA/GA_2658/IMG_7_2658.jpg"",""SV_PolicingMSA/GA_2658/IMG_0_2658.jpg"",""SV_PolicingMSA/GA_2658/IMG_14_2658.jpg"",""SV_PolicingMSA/GA_2658/IMG_3_2658.jpg""]","4","","","","","","4","","4","[""./rc_img/cop_condGroup_5_CommunitySafety_autoscaled.png"",""./rc_img/cop_condGroup_5_SafeStreets_autoscaled.png""]","4",""
"sliderTrial","html-slider-response","71","284191","0.0-71.0","","656776a7904ae00d6b91d1dd","6568ad0e3da2cc66ce613b96","14","","","","","","","","","","","","449","[""SV_PolicingMSA/GA_2658/IMG_13_2658.jpg"",""SV_PolicingMSA/GA_2658/IMG_1_2658.jpg"",""SV_PolicingMSA/GA_2658/IMG_12_2658.jpg"",""SV_PolicingMSA/GA_2658/IMG_5_2658.jpg"",""SV_PolicingMSA/GA_2658/IMG_7_2658.jpg"",""SV_PolicingMSA/GA_2658/IMG_0_2658.jpg"",""SV_PolicingMSA/GA_2658/IMG_14_2658.jpg"",""SV_PolicingMSA/GA_2658/IMG_3_2658.jpg""]","4","","","","","","4","","4","[""./rc_img/cop_condGroup_18_CommunitySafety_autoscaled.png"",""./rc_img/cop_condGroup_18_SafeStreets_autoscaled.png""]","4",""
"sliderTrial","html-slider-response","72","284374","0.0-72.0","","656776a7904ae00d6b91d1dd","6568ad0e3da2cc66ce613b96","14","","","","","","","","","","","","182","[""SV_PolicingMSA/GA_2658/IMG_13_2658.jpg"",""SV_PolicingMSA/GA_2658/IMG_1_2658.jpg"",""SV_PolicingMSA/GA_2658/IMG_12_2658.jpg"",""SV_PolicingMSA/GA_2658/IMG_5_2658.jpg"",""SV_PolicingMSA/GA_2658/IMG_7_2658.jpg"",""SV_PolicingMSA/GA_2658/IMG_0_2658.jpg"",""SV_PolicingMSA/GA_2658/IMG_14_2658.jpg"",""SV_PolicingMSA/GA_2658/IMG_3_2658.jpg""]","4","","","","","","4","","4","[""./rc_img/cop_condGroup_1_SafeStreets_autoscaled.png"",""./rc_img/cop_condGroup_1_CommunitySafety_autoscaled.png""]","4",""
"sliderTrial","html-slider-response","73","284557","0.0-73.0","","656776a7904ae00d6b91d1dd","6568ad0e3da2cc66ce613b96","14","","","","","","","","","","","","180","[""SV_PolicingMSA/GA_2658/IMG_13_2658.jpg"",""SV_PolicingMSA/GA_2658/IMG_1_2658.jpg"",""SV_PolicingMSA/GA_2658/IMG_12_2658.jpg"",""SV_PolicingMSA/GA_2658/IMG_5_2658.jpg"",""SV_PolicingMSA/GA_2658/IMG_7_2658.jpg"",""SV_PolicingMSA/GA_2658/IMG_0_2658.jpg"",""SV_PolicingMSA/GA_2658/IMG_14_2658.jpg"",""SV_PolicingMSA/GA_2658/IMG_3_2658.jpg""]","4","","","","","","4","","4","[""./rc_img/cop_condGroup_15_SafeStreets_autoscaled.png"",""./rc_img/cop_condGroup_15_CommunitySafety_autoscaled.png""]","4",""
"sliderTrial","html-slider-response","74","284825","0.0-74.0","","656776a7904ae00d6b91d1dd","6568ad0e3da2cc66ce613b96","14","","","","","","","","","","","","266","[""SV_PolicingMSA/GA_2658/IMG_13_2658.jpg"",""SV_PolicingMSA/GA_2658/IMG_1_2658.jpg"",""SV_PolicingMSA/GA_2658/IMG_12_2658.jpg"",""SV_PolicingMSA/GA_2658/IMG_5_2658.jpg"",""SV_PolicingMSA/GA_2658/IMG_7_2658.jpg"",""SV_PolicingMSA/GA_2658/IMG_0_2658.jpg"",""SV_PolicingMSA/GA_2658/IMG_14_2658.jpg"",""SV_PolicingMSA/GA_2658/IMG_3_2658.jpg""]","4","","","","","","4","","4","[""./rc_img/cop_condGroup_16_SafeStreets_autoscaled.png"",""./rc_img/cop_condGroup_16_CommunitySafety_autoscaled.png""]","4",""
"half-way","html-button-response","75","290923","0.0-75.0","","656776a7904ae00d6b91d1dd","6568ad0e3da2cc66ce613b96","14","","","","","","","","","","","","6097","
    <h3>You are now half way through the study.</h3>
    <p>Please take a quick, 15-second break before you continue.</p>
    <img src='assets/img/countdown-15.gif'>
    <p>The study will automatically advance forward after the countdown is complete. <br> However, you may click ""Next"" to advance forward now if you wish.</p>
    ","0","","","","","","","","","","",""
"before_SVSlide_prompt","html-button-response","76","292224","0.0-76.0","","656776a7904ae00d6b91d1dd","6568ad0e3da2cc66ce613b96","14","","","","","","","","","","","","1299","Click [Next] to see the next neighborhood!","0","","","","","","","","","","",""
"street view slide show","image-button-response","77","293231","0.0-77.0","","656776a7904ae00d6b91d1dd","6568ad0e3da2cc66ce613b96","14","","","","","","","","","","","","null","stimulus/SV_PolicingMSA/GA_1789/IMG_3_1789.jpg","null","","","","","","1","","","","",""
"street view slide show","image-button-response","78","294234","0.0-78.0","","656776a7904ae00d6b91d1dd","6568ad0e3da2cc66ce613b96","14","","","","","","","","","","","","null","stimulus/SV_PolicingMSA/GA_1789/IMG_8_1789.jpg","null","","","","","","1","","","","",""
"street view slide show","image-button-response","79","295238","0.0-79.0","","656776a7904ae00d6b91d1dd","6568ad0e3da2cc66ce613b96","14","","","","","","","","","","","","null","stimulus/SV_PolicingMSA/GA_1789/IMG_14_1789.jpg","null","","","","","","1","","","","",""
"street view slide show","image-button-response","80","296242","0.0-80.0","","656776a7904ae00d6b91d1dd","6568ad0e3da2cc66ce613b96","14","","","","","","","","","","","","null","stimulus/SV_PolicingMSA/GA_1789/IMG_13_1789.jpg","null","","","","","","1","","","","",""
"street view slide show","image-button-response","81","297249","0.0-81.0","","656776a7904ae00d6b91d1dd","6568ad0e3da2cc66ce613b96","14","","","","","","","","","","","","null","stimulus/SV_PolicingMSA/GA_1789/IMG_11_1789.jpg","null","","","","","","1","","","","",""
"street view slide show","image-button-response","82","298253","0.0-82.0","","656776a7904ae00d6b91d1dd","6568ad0e3da2cc66ce613b96","14","","","","","","","","","","","","null","stimulus/SV_PolicingMSA/GA_1789/IMG_7_1789.jpg","null","","","","","","1","","","","",""
"street view slide show","image-button-response","83","299260","0.0-83.0","","656776a7904ae00d6b91d1dd","6568ad0e3da2cc66ce613b96","14","","","","","","","","","","","","null","stimulus/SV_PolicingMSA/GA_1789/IMG_9_1789.jpg","null","","","","","","1","","","","",""
"street view slide show","image-button-response","84","300263","0.0-84.0","","656776a7904ae00d6b91d1dd","6568ad0e3da2cc66ce613b96","14","","","","","","","","","","","","null","stimulus/SV_PolicingMSA/GA_1789/IMG_2_1789.jpg","null","","","","","","1","","","","",""
"dot matrix survey1","survey","85","317864","0.0-85.0","","656776a7904ae00d6b91d1dd","6568ad0e3da2cc66ce613b96","14","","","","","","","","","","","","17590","","{""P0_Q0"":null,""P0_Q1"":{""wealthy"":2,""safe"":2,""walkable"":2,""traditional"":2,""diverse"":2}}","","","","","","1","[]","","","",""
"dot matrix survey2","survey","86","330080","0.0-86.0","","656776a7904ae00d6b91d1dd","6568ad0e3da2cc66ce613b96","14","","","","","","","","","","","","12210","","{""P0_Q0"":null,""P0_Q1"":{""violence"":1,""crime"":1,""drug"":2,""schools"":2,""opportunities"":2}}","","","","","","1","[]","","","",""
"dot matrix survey3","survey","87","341732","0.0-87.0","","656776a7904ae00d6b91d1dd","6568ad0e3da2cc66ce613b96","14","","","","","","","","","","","","11646","","{""P0_Q0"":null,""P0_Q1"":{""movein"":0,""moveout"":3,""shopping"":2,""walk"":2,""park"":2,""school"":0}}","","","","","","1","[]","","","",""
"sliderTrial","html-slider-response","88","343124","0.0-88.0","","656776a7904ae00d6b91d1dd","6568ad0e3da2cc66ce613b96","14","","","","","","","","","","","","1390","[""SV_PolicingMSA/GA_1789/IMG_3_1789.jpg"",""SV_PolicingMSA/GA_1789/IMG_8_1789.jpg"",""SV_PolicingMSA/GA_1789/IMG_14_1789.jpg"",""SV_PolicingMSA/GA_1789/IMG_13_1789.jpg"",""SV_PolicingMSA/GA_1789/IMG_11_1789.jpg"",""SV_PolicingMSA/GA_1789/IMG_7_1789.jpg"",""SV_PolicingMSA/GA_1789/IMG_9_1789.jpg"",""SV_PolicingMSA/GA_1789/IMG_2_1789.jpg""]","4","","","","","","1","","4","[""./rc_img/cop_condGroup_4_SafeStreets_autoscaled.png"",""./rc_img/cop_condGroup_4_CommunitySafety_autoscaled.png""]","4",""
"sliderTrial","html-slider-response","89","343443","0.0-89.0","","656776a7904ae00d6b91d1dd","6568ad0e3da2cc66ce613b96","14","","","","","","","","","","","","316","[""SV_PolicingMSA/GA_1789/IMG_3_1789.jpg"",""SV_PolicingMSA/GA_1789/IMG_8_1789.jpg"",""SV_PolicingMSA/GA_1789/IMG_14_1789.jpg"",""SV_PolicingMSA/GA_1789/IMG_13_1789.jpg"",""SV_PolicingMSA/GA_1789/IMG_11_1789.jpg"",""SV_PolicingMSA/GA_1789/IMG_7_1789.jpg"",""SV_PolicingMSA/GA_1789/IMG_9_1789.jpg"",""SV_PolicingMSA/GA_1789/IMG_2_1789.jpg""]","4","","","","","","1","","4","[""./rc_img/cop_condGroup_8_CommunitySafety_autoscaled.png"",""./rc_img/cop_condGroup_8_SafeStreets_autoscaled.png""]","4",""
"sliderTrial","html-slider-response","90","343740","0.0-90.0","","656776a7904ae00d6b91d1dd","6568ad0e3da2cc66ce613b96","14","","","","","","","","","","","","296","[""SV_PolicingMSA/GA_1789/IMG_3_1789.jpg"",""SV_PolicingMSA/GA_1789/IMG_8_1789.jpg"",""SV_PolicingMSA/GA_1789/IMG_14_1789.jpg"",""SV_PolicingMSA/GA_1789/IMG_13_1789.jpg"",""SV_PolicingMSA/GA_1789/IMG_11_1789.jpg"",""SV_PolicingMSA/GA_1789/IMG_7_1789.jpg"",""SV_PolicingMSA/GA_1789/IMG_9_1789.jpg"",""SV_PolicingMSA/GA_1789/IMG_2_1789.jpg""]","4","","","","","","1","","4","[""./rc_img/cop_condGroup_2_SafeStreets_autoscaled.png"",""./rc_img/cop_condGroup_2_CommunitySafety_autoscaled.png""]","4",""
"sliderTrial_attention","html-slider-response","91","343991","0.0-91.0","","656776a7904ae00d6b91d1dd","6568ad0e3da2cc66ce613b96","14","","","","","","","","","","","","249","[""SV_PolicingMSA/GA_1789/IMG_3_1789.jpg"",""SV_PolicingMSA/GA_1789/IMG_8_1789.jpg"",""SV_PolicingMSA/GA_1789/IMG_14_1789.jpg"",""SV_PolicingMSA/GA_1789/IMG_13_1789.jpg"",""SV_PolicingMSA/GA_1789/IMG_11_1789.jpg"",""SV_PolicingMSA/GA_1789/IMG_7_1789.jpg"",""SV_PolicingMSA/GA_1789/IMG_9_1789.jpg"",""SV_PolicingMSA/GA_1789/IMG_2_1789.jpg""]","4","","","","","","1","","4","[""./assets/img/attnchk.png"",""./assets/img/attnchk.png""]","",""
"sliderTrial","html-slider-response","92","344257","0.0-92.0","","656776a7904ae00d6b91d1dd","6568ad0e3da2cc66ce613b96","14","","","","","","","","","","","","262","[""SV_PolicingMSA/GA_1789/IMG_3_1789.jpg"",""SV_PolicingMSA/GA_1789/IMG_8_1789.jpg"",""SV_PolicingMSA/GA_1789/IMG_14_1789.jpg"",""SV_PolicingMSA/GA_1789/IMG_13_1789.jpg"",""SV_PolicingMSA/GA_1789/IMG_11_1789.jpg"",""SV_PolicingMSA/GA_1789/IMG_7_1789.jpg"",""SV_PolicingMSA/GA_1789/IMG_9_1789.jpg"",""SV_PolicingMSA/GA_1789/IMG_2_1789.jpg""]","4","","","","","","1","","4","[""./rc_img/cop_condGroup_11_SafeStreets_autoscaled.png"",""./rc_img/cop_condGroup_11_CommunitySafety_autoscaled.png""]","4",""
"sliderTrial","html-slider-response","93","349174","0.0-93.0","","656776a7904ae00d6b91d1dd","6568ad0e3da2cc66ce613b96","14","","","","","","","","","","","","4915","[""SV_PolicingMSA/GA_1789/IMG_3_1789.jpg"",""SV_PolicingMSA/GA_1789/IMG_8_1789.jpg"",""SV_PolicingMSA/GA_1789/IMG_14_1789.jpg"",""SV_PolicingMSA/GA_1789/IMG_13_1789.jpg"",""SV_PolicingMSA/GA_1789/IMG_11_1789.jpg"",""SV_PolicingMSA/GA_1789/IMG_7_1789.jpg"",""SV_PolicingMSA/GA_1789/IMG_9_1789.jpg"",""SV_PolicingMSA/GA_1789/IMG_2_1789.jpg""]","4","","","","","","1","","4","[""./rc_img/cop_condGroup_19_SafeStreets_autoscaled.png"",""./rc_img/cop_condGroup_19_CommunitySafety_autoscaled.png""]","4",""
"before_SVSlide_prompt","html-button-response","94","351109","0.0-94.0","","656776a7904ae00d6b91d1dd","6568ad0e3da2cc66ce613b96","14","","","","","","","","","","","","1934","Click [Next] to see the next neighborhood!","0","","","","","","","","","","",""
"street view slide show","image-button-response","95","352116","0.0-95.0","","656776a7904ae00d6b91d1dd","6568ad0e3da2cc66ce613b96","14","","","","","","","","","","","","null","stimulus/SV_PolicingMSA/GA_1832/IMG_10_1832.jpg","null","","","","","","2","","","","",""
"street view slide show","image-button-response","96","353120","0.0-96.0","","656776a7904ae00d6b91d1dd","6568ad0e3da2cc66ce613b96","14","","","","","","","","","","","","null","stimulus/SV_PolicingMSA/GA_1832/IMG_9_1832.jpg","null","","","","","","2","","","","",""
"street view slide show","image-button-response","97","354123","0.0-97.0","","656776a7904ae00d6b91d1dd","6568ad0e3da2cc66ce613b96","14","","","","","","","","","","","","null","stimulus/SV_PolicingMSA/GA_1832/IMG_1_1832.jpg","null","","","","","","2","","","","",""
"street view slide show","image-button-response","98","355128","0.0-98.0","","656776a7904ae00d6b91d1dd","6568ad0e3da2cc66ce613b96","14","","","","","","","","","","","","null","stimulus/SV_PolicingMSA/GA_1832/IMG_8_1832.jpg","null","","","","","","2","","","","",""
"street view slide show","image-button-response","99","356136","0.0-99.0","","656776a7904ae00d6b91d1dd","6568ad0e3da2cc66ce613b96","14","","","","","","","","","","","","null","stimulus/SV_PolicingMSA/GA_1832/IMG_11_1832.jpg","null","","","","","","2","","","","",""
"street view slide show","image-button-response","100","357140","0.0-100.0","","656776a7904ae00d6b91d1dd","6568ad0e3da2cc66ce613b96","14","","","","","","","","","","","","null","stimulus/SV_PolicingMSA/GA_1832/IMG_2_1832.jpg","null","","","","","","2","","","","",""
"street view slide show","image-button-response","101","358146","0.0-101.0","","656776a7904ae00d6b91d1dd","6568ad0e3da2cc66ce613b96","14","","","","","","","","","","","","null","stimulus/SV_PolicingMSA/GA_1832/IMG_12_1832.jpg","null","","","","","","2","","","","",""
"street view slide show","image-button-response","102","359148","0.0-102.0","","656776a7904ae00d6b91d1dd","6568ad0e3da2cc66ce613b96","14","","","","","","","","","","","","null","stimulus/SV_PolicingMSA/GA_1832/IMG_7_1832.jpg","null","","","","","","2","","","","",""
"dot matrix survey1","survey","103","383798","0.0-103.0","","656776a7904ae00d6b91d1dd","6568ad0e3da2cc66ce613b96","14","","","","","","","","","","","","24637","","{""P0_Q0"":null,""P0_Q1"":{""wealthy"":2,""safe"":2,""walkable"":1,""traditional"":2,""diverse"":2}}","","","","","","2","[]","","","",""
"dot matrix survey2","survey","104","401064","0.0-104.0","","656776a7904ae00d6b91d1dd","6568ad0e3da2cc66ce613b96","14","","","","","","","","","","","","17260","","{""P0_Q0"":null,""P0_Q1"":{""violence"":1,""crime"":1,""drug"":1,""schools"":0,""opportunities"":2}}","","","","","","2","[]","","","",""
"dot matrix survey3","survey","105","414167","0.0-105.0","","656776a7904ae00d6b91d1dd","6568ad0e3da2cc66ce613b96","14","","","","","","","","","","","","13097","","{""P0_Q0"":null,""P0_Q1"":{""movein"":0,""moveout"":3,""shopping"":2,""walk"":2,""park"":2,""school"":0}}","","","","","","2","[]","","","",""
"sliderTrial","html-slider-response","106","416024","0.0-106.0","","656776a7904ae00d6b91d1dd","6568ad0e3da2cc66ce613b96","14","","","","","","","","","","","","1855","[""SV_PolicingMSA/GA_1832/IMG_10_1832.jpg"",""SV_PolicingMSA/GA_1832/IMG_9_1832.jpg"",""SV_PolicingMSA/GA_1832/IMG_1_1832.jpg"",""SV_PolicingMSA/GA_1832/IMG_8_1832.jpg"",""SV_PolicingMSA/GA_1832/IMG_11_1832.jpg"",""SV_PolicingMSA/GA_1832/IMG_2_1832.jpg"",""SV_PolicingMSA/GA_1832/IMG_12_1832.jpg"",""SV_PolicingMSA/GA_1832/IMG_7_1832.jpg""]","4","","","","","","2","","4","[""./rc_img/cop_condGroup_5_CommunitySafety_autoscaled.png"",""./rc_img/cop_condGroup_5_SafeStreets_autoscaled.png""]","4",""
"sliderTrial","html-slider-response","107","417876","0.0-107.0","","656776a7904ae00d6b91d1dd","6568ad0e3da2cc66ce613b96","14","","","","","","","","","","","","1849","[""SV_PolicingMSA/GA_1832/IMG_10_1832.jpg"",""SV_PolicingMSA/GA_1832/IMG_9_1832.jpg"",""SV_PolicingMSA/GA_1832/IMG_1_1832.jpg"",""SV_PolicingMSA/GA_1832/IMG_8_1832.jpg"",""SV_PolicingMSA/GA_1832/IMG_11_1832.jpg"",""SV_PolicingMSA/GA_1832/IMG_2_1832.jpg"",""SV_PolicingMSA/GA_1832/IMG_12_1832.jpg"",""SV_PolicingMSA/GA_1832/IMG_7_1832.jpg""]","4","","","","","","2","","4","[""./rc_img/cop_condGroup_18_CommunitySafety_autoscaled.png"",""./rc_img/cop_condGroup_18_SafeStreets_autoscaled.png""]","4",""
"sliderTrial","html-slider-response","108","420125","0.0-108.0","","656776a7904ae00d6b91d1dd","6568ad0e3da2cc66ce613b96","14","","","","","","","","","","","","2246","[""SV_PolicingMSA/GA_1832/IMG_10_1832.jpg"",""SV_PolicingMSA/GA_1832/IMG_9_1832.jpg"",""SV_PolicingMSA/GA_1832/IMG_1_1832.jpg"",""SV_PolicingMSA/GA_1832/IMG_8_1832.jpg"",""SV_PolicingMSA/GA_1832/IMG_11_1832.jpg"",""SV_PolicingMSA/GA_1832/IMG_2_1832.jpg"",""SV_PolicingMSA/GA_1832/IMG_12_1832.jpg"",""SV_PolicingMSA/GA_1832/IMG_7_1832.jpg""]","4","","","","","","2","","4","[""./rc_img/cop_condGroup_1_SafeStreets_autoscaled.png"",""./rc_img/cop_condGroup_1_CommunitySafety_autoscaled.png""]","4",""
"sliderTrial","html-slider-response","109","423892","0.0-109.0","","656776a7904ae00d6b91d1dd","6568ad0e3da2cc66ce613b96","14","","","","","","","","","","","","3764","[""SV_PolicingMSA/GA_1832/IMG_10_1832.jpg"",""SV_PolicingMSA/GA_1832/IMG_9_1832.jpg"",""SV_PolicingMSA/GA_1832/IMG_1_1832.jpg"",""SV_PolicingMSA/GA_1832/IMG_8_1832.jpg"",""SV_PolicingMSA/GA_1832/IMG_11_1832.jpg"",""SV_PolicingMSA/GA_1832/IMG_2_1832.jpg"",""SV_PolicingMSA/GA_1832/IMG_12_1832.jpg"",""SV_PolicingMSA/GA_1832/IMG_7_1832.jpg""]","4","","","","","","2","","4","[""./rc_img/cop_condGroup_15_SafeStreets_autoscaled.png"",""./rc_img/cop_condGroup_15_CommunitySafety_autoscaled.png""]","4",""
"sliderTrial","html-slider-response","110","426357","0.0-110.0","","656776a7904ae00d6b91d1dd","6568ad0e3da2cc66ce613b96","14","","","","","","","","","","","","2463","[""SV_PolicingMSA/GA_1832/IMG_10_1832.jpg"",""SV_PolicingMSA/GA_1832/IMG_9_1832.jpg"",""SV_PolicingMSA/GA_1832/IMG_1_1832.jpg"",""SV_PolicingMSA/GA_1832/IMG_8_1832.jpg"",""SV_PolicingMSA/GA_1832/IMG_11_1832.jpg"",""SV_PolicingMSA/GA_1832/IMG_2_1832.jpg"",""SV_PolicingMSA/GA_1832/IMG_12_1832.jpg"",""SV_PolicingMSA/GA_1832/IMG_7_1832.jpg""]","4","","","","","","2","","4","[""./rc_img/cop_condGroup_16_SafeStreets_autoscaled.png"",""./rc_img/cop_condGroup_16_CommunitySafety_autoscaled.png""]","4",""
"before_SVSlide_prompt","html-button-response","111","427690","0.0-111.0","","656776a7904ae00d6b91d1dd","6568ad0e3da2cc66ce613b96","14","","","","","","","","","","","","1333","Click [Next] to see the next neighborhood!","0","","","","","","","","","","",""
"street view slide show","image-button-response","112","428694","0.0-112.0","","656776a7904ae00d6b91d1dd","6568ad0e3da2cc66ce613b96","14","","","","","","","","","","","","null","stimulus/SV_PolicingMSA/GA_2659/IMG_13_2659.jpg","null","","","","","","5","","","","",""
"street view slide show","image-button-response","113","429697","0.0-113.0","","656776a7904ae00d6b91d1dd","6568ad0e3da2cc66ce613b96","14","","","","","","","","","","","","null","stimulus/SV_PolicingMSA/GA_2659/IMG_1_2659.jpg","null","","","","","","5","","","","",""
"street view slide show","image-button-response","114","430704","0.0-114.0","","656776a7904ae00d6b91d1dd","6568ad0e3da2cc66ce613b96","14","","","","","","","","","","","","null","stimulus/SV_PolicingMSA/GA_2659/IMG_11_2659.jpg","null","","","","","","5","","","","",""
"street view slide show","image-button-response","115","431708","0.0-115.0","","656776a7904ae00d6b91d1dd","6568ad0e3da2cc66ce613b96","14","","","","","","","","","","","","null","stimulus/SV_PolicingMSA/GA_2659/IMG_5_2659.jpg","null","","","","","","5","","","","",""
"street view slide show","image-button-response","116","432710","0.0-116.0","","656776a7904ae00d6b91d1dd","6568ad0e3da2cc66ce613b96","14","","","","","","","","","","","","null","stimulus/SV_PolicingMSA/GA_2659/IMG_2_2659.jpg","null","","","","","","5","","","","",""
"street view slide show","image-button-response","117","433717","0.0-117.0","","656776a7904ae00d6b91d1dd","6568ad0e3da2cc66ce613b96","14","","","","","","","","","","","","null","stimulus/SV_PolicingMSA/GA_2659/IMG_14_2659.jpg","null","","","","","","5","","","","",""
"street view slide show","image-button-response","118","434724","0.0-118.0","","656776a7904ae00d6b91d1dd","6568ad0e3da2cc66ce613b96","14","","","","","","","","","","","","null","stimulus/SV_PolicingMSA/GA_2659/IMG_7_2659.jpg","null","","","","","","5","","","","",""
"street view slide show","image-button-response","119","435728","0.0-119.0","","656776a7904ae00d6b91d1dd","6568ad0e3da2cc66ce613b96","14","","","","","","","","","","","","null","stimulus/SV_PolicingMSA/GA_2659/IMG_8_2659.jpg","null","","","","","","5","","","","",""
"dot matrix survey1","survey","120","451099","0.0-120.0","","656776a7904ae00d6b91d1dd","6568ad0e3da2cc66ce613b96","14","","","","","","","","","","","","15358","","{""P0_Q0"":null,""P0_Q1"":{""wealthy"":3,""safe"":3,""walkable"":0,""traditional"":3,""diverse"":1}}","","","","","","5","[]","","","",""
"dot matrix survey2","survey","121","460331","0.0-121.0","","656776a7904ae00d6b91d1dd","6568ad0e3da2cc66ce613b96","14","","","","","","","","","","","","9226","","{""P0_Q0"":null,""P0_Q1"":{""violence"":0,""crime"":0,""drug"":0,""schools"":2,""opportunities"":2}}","","","","","","5","[]","","","",""
"dot matrix survey3","survey","122","479716","0.0-122.0","","656776a7904ae00d6b91d1dd","6568ad0e3da2cc66ce613b96","14","","","","","","","","","","","","19379","","{""P0_Q0"":null,""P0_Q1"":{""movein"":2,""moveout"":2,""shopping"":4,""walk"":0,""park"":2,""school"":1}}","","","","","","5","[]","","","",""
"sliderTrial","html-slider-response","123","481092","0.0-123.0","","656776a7904ae00d6b91d1dd","6568ad0e3da2cc66ce613b96","14","","","","","","","","","","","","1374","[""SV_PolicingMSA/GA_2659/IMG_13_2659.jpg"",""SV_PolicingMSA/GA_2659/IMG_1_2659.jpg"",""SV_PolicingMSA/GA_2659/IMG_11_2659.jpg"",""SV_PolicingMSA/GA_2659/IMG_5_2659.jpg"",""SV_PolicingMSA/GA_2659/IMG_2_2659.jpg"",""SV_PolicingMSA/GA_2659/IMG_14_2659.jpg"",""SV_PolicingMSA/GA_2659/IMG_7_2659.jpg"",""SV_PolicingMSA/GA_2659/IMG_8_2659.jpg""]","4","","","","","","5","","4","[""./rc_img/cop_condGroup_7_CommunitySafety_autoscaled.png"",""./rc_img/cop_condGroup_7_SafeStreets_autoscaled.png""]","4",""
"sliderTrial","html-slider-response","124","483341","0.0-124.0","","656776a7904ae00d6b91d1dd","6568ad0e3da2cc66ce613b96","14","","","","","","","","","","","","2247","[""SV_PolicingMSA/GA_2659/IMG_13_2659.jpg"",""SV_PolicingMSA/GA_2659/IMG_1_2659.jpg"",""SV_PolicingMSA/GA_2659/IMG_11_2659.jpg"",""SV_PolicingMSA/GA_2659/IMG_5_2659.jpg"",""SV_PolicingMSA/GA_2659/IMG_2_2659.jpg"",""SV_PolicingMSA/GA_2659/IMG_14_2659.jpg"",""SV_PolicingMSA/GA_2659/IMG_7_2659.jpg"",""SV_PolicingMSA/GA_2659/IMG_8_2659.jpg""]","4","","","","","","5","","4","[""./rc_img/cop_condGroup_17_CommunitySafety_autoscaled.png"",""./rc_img/cop_condGroup_17_SafeStreets_autoscaled.png""]","4",""
"sliderTrial","html-slider-response","125","485108","0.0-125.0","","656776a7904ae00d6b91d1dd","6568ad0e3da2cc66ce613b96","14","","","","","","","","","","","","1765","[""SV_PolicingMSA/GA_2659/IMG_13_2659.jpg"",""SV_PolicingMSA/GA_2659/IMG_1_2659.jpg"",""SV_PolicingMSA/GA_2659/IMG_11_2659.jpg"",""SV_PolicingMSA/GA_2659/IMG_5_2659.jpg"",""SV_PolicingMSA/GA_2659/IMG_2_2659.jpg"",""SV_PolicingMSA/GA_2659/IMG_14_2659.jpg"",""SV_PolicingMSA/GA_2659/IMG_7_2659.jpg"",""SV_PolicingMSA/GA_2659/IMG_8_2659.jpg""]","4","","","","","","5","","4","[""./rc_img/cop_condGroup_12_CommunitySafety_autoscaled.png"",""./rc_img/cop_condGroup_12_SafeStreets_autoscaled.png""]","4",""
"sliderTrial","html-slider-response","126","486942","0.0-126.0","","656776a7904ae00d6b91d1dd","6568ad0e3da2cc66ce613b96","14","","","","","","","","","","","","1832","[""SV_PolicingMSA/GA_2659/IMG_13_2659.jpg"",""SV_PolicingMSA/GA_2659/IMG_1_2659.jpg"",""SV_PolicingMSA/GA_2659/IMG_11_2659.jpg"",""SV_PolicingMSA/GA_2659/IMG_5_2659.jpg"",""SV_PolicingMSA/GA_2659/IMG_2_2659.jpg"",""SV_PolicingMSA/GA_2659/IMG_14_2659.jpg"",""SV_PolicingMSA/GA_2659/IMG_7_2659.jpg"",""SV_PolicingMSA/GA_2659/IMG_8_2659.jpg""]","4","","","","","","5","","4","[""./rc_img/cop_condGroup_20_SafeStreets_autoscaled.png"",""./rc_img/cop_condGroup_20_CommunitySafety_autoscaled.png""]","4",""
"sliderTrial","html-slider-response","127","488607","0.0-127.0","","656776a7904ae00d6b91d1dd","6568ad0e3da2cc66ce613b96","14","","","","","","","","","","","","1663","[""SV_PolicingMSA/GA_2659/IMG_13_2659.jpg"",""SV_PolicingMSA/GA_2659/IMG_1_2659.jpg"",""SV_PolicingMSA/GA_2659/IMG_11_2659.jpg"",""SV_PolicingMSA/GA_2659/IMG_5_2659.jpg"",""SV_PolicingMSA/GA_2659/IMG_2_2659.jpg"",""SV_PolicingMSA/GA_2659/IMG_14_2659.jpg"",""SV_PolicingMSA/GA_2659/IMG_7_2659.jpg"",""SV_PolicingMSA/GA_2659/IMG_8_2659.jpg""]","4","","","","","","5","","4","[""./rc_img/cop_condGroup_9_CommunitySafety_autoscaled.png"",""./rc_img/cop_condGroup_9_SafeStreets_autoscaled.png""]","4",""
"before_SVSlide_prompt","html-button-response","128","489975","0.0-128.0","","656776a7904ae00d6b91d1dd","6568ad0e3da2cc66ce613b96","14","","","","","","","","","","","","1367","Click [Next] to see the next neighborhood!","0","","","","","","","","","","",""
"street view slide show","image-button-response","129","490981","0.0-129.0","","656776a7904ae00d6b91d1dd","6568ad0e3da2cc66ce613b96","14","","","","","","","","","","","","null","stimulus/SV_PolicingMSA/GA_1094/IMG_3_1094.jpg","null","","","","","","2","","","","",""
"street view slide show","image-button-response","130","491984","0.0-130.0","","656776a7904ae00d6b91d1dd","6568ad0e3da2cc66ce613b96","14","","","","","","","","","","","","null","stimulus/SV_PolicingMSA/GA_1094/IMG_11_1094.jpg","null","","","","","","2","","","","",""
"street view slide show","image-button-response","131","492991","0.0-131.0","","656776a7904ae00d6b91d1dd","6568ad0e3da2cc66ce613b96","14","","","","","","","","","","","","null","stimulus/SV_PolicingMSA/GA_1094/IMG_4_1094.jpg","null","","","","","","2","","","","",""
"street view slide show","image-button-response","132","493993","0.0-132.0","","656776a7904ae00d6b91d1dd","6568ad0e3da2cc66ce613b96","14","","","","","","","","","","","","null","stimulus/SV_PolicingMSA/GA_1094/IMG_9_1094.jpg","null","","","","","","2","","","","",""
"street view slide show","image-button-response","133","495000","0.0-133.0","","656776a7904ae00d6b91d1dd","6568ad0e3da2cc66ce613b96","14","","","","","","","","","","","","null","stimulus/SV_PolicingMSA/GA_1094/IMG_12_1094.jpg","null","","","","","","2","","","","",""
"street view slide show","image-button-response","134","496003","0.0-134.0","","656776a7904ae00d6b91d1dd","6568ad0e3da2cc66ce613b96","14","","","","","","","","","","","","null","stimulus/SV_PolicingMSA/GA_1094/IMG_8_1094.jpg","null","","","","","","2","","","","",""
"street view slide show","image-button-response","135","497010","0.0-135.0","","656776a7904ae00d6b91d1dd","6568ad0e3da2cc66ce613b96","14","","","","","","","","","","","","null","stimulus/SV_PolicingMSA/GA_1094/IMG_13_1094.jpg","null","","","","","","2","","","","",""
"street view slide show","image-button-response","136","498014","0.0-136.0","","656776a7904ae00d6b91d1dd","6568ad0e3da2cc66ce613b96","14","","","","","","","","","","","","null","stimulus/SV_PolicingMSA/GA_1094/IMG_7_1094.jpg","null","","","","","","2","","","","",""
"dot matrix survey1","survey","137","511165","0.0-137.0","","656776a7904ae00d6b91d1dd","6568ad0e3da2cc66ce613b96","14","","","","","","","","","","","","13140","","{""P0_Q0"":null,""P0_Q1"":{""wealthy"":3,""safe"":4,""walkable"":1,""traditional"":3,""diverse"":1}}","","","","","","2","[]","","","",""
"dot matrix survey2","survey","138","520298","0.0-138.0","","656776a7904ae00d6b91d1dd","6568ad0e3da2cc66ce613b96","14","","","","","","","","","","","","9126","","{""P0_Q0"":null,""P0_Q1"":{""violence"":0,""crime"":0,""drug"":0,""schools"":3,""opportunities"":2}}","","","","","","2","[]","","","",""
"dot matrix survey3","survey","139","536199","0.0-139.0","","656776a7904ae00d6b91d1dd","6568ad0e3da2cc66ce613b96","14","","","","","","","","","","","","15895","","{""P0_Q0"":null,""P0_Q1"":{""movein"":2,""moveout"":1,""shopping"":3,""walk"":2,""park"":2,""school"":2}}","","","","","","2","[]","","","",""
"sliderTrial","html-slider-response","140","537991","0.0-140.0","","656776a7904ae00d6b91d1dd","6568ad0e3da2cc66ce613b96","14","","","","","","","","","","","","1790","[""SV_PolicingMSA/GA_1094/IMG_3_1094.jpg"",""SV_PolicingMSA/GA_1094/IMG_11_1094.jpg"",""SV_PolicingMSA/GA_1094/IMG_4_1094.jpg"",""SV_PolicingMSA/GA_1094/IMG_9_1094.jpg"",""SV_PolicingMSA/GA_1094/IMG_12_1094.jpg"",""SV_PolicingMSA/GA_1094/IMG_8_1094.jpg"",""SV_PolicingMSA/GA_1094/IMG_13_1094.jpg"",""SV_PolicingMSA/GA_1094/IMG_7_1094.jpg""]","4","","","","","","2","","4","[""./rc_img/cop_condGroup_6_SafeStreets_autoscaled.png"",""./rc_img/cop_condGroup_6_CommunitySafety_autoscaled.png""]","4",""
"sliderTrial","html-slider-response","141","539158","0.0-141.0","","656776a7904ae00d6b91d1dd","6568ad0e3da2cc66ce613b96","14","","","","","","","","","","","","1164","[""SV_PolicingMSA/GA_1094/IMG_3_1094.jpg"",""SV_PolicingMSA/GA_1094/IMG_11_1094.jpg"",""SV_PolicingMSA/GA_1094/IMG_4_1094.jpg"",""SV_PolicingMSA/GA_1094/IMG_9_1094.jpg"",""SV_PolicingMSA/GA_1094/IMG_12_1094.jpg"",""SV_PolicingMSA/GA_1094/IMG_8_1094.jpg"",""SV_PolicingMSA/GA_1094/IMG_13_1094.jpg"",""SV_PolicingMSA/GA_1094/IMG_7_1094.jpg""]","4","","","","","","2","","4","[""./rc_img/cop_condGroup_14_SafeStreets_autoscaled.png"",""./rc_img/cop_condGroup_14_CommunitySafety_autoscaled.png""]","4",""
"sliderTrial","html-slider-response","142","540408","0.0-142.0","","656776a7904ae00d6b91d1dd","6568ad0e3da2cc66ce613b96","14","","","","","","","","","","","","1247","[""SV_PolicingMSA/GA_1094/IMG_3_1094.jpg"",""SV_PolicingMSA/GA_1094/IMG_11_1094.jpg"",""SV_PolicingMSA/GA_1094/IMG_4_1094.jpg"",""SV_PolicingMSA/GA_1094/IMG_9_1094.jpg"",""SV_PolicingMSA/GA_1094/IMG_12_1094.jpg"",""SV_PolicingMSA/GA_1094/IMG_8_1094.jpg"",""SV_PolicingMSA/GA_1094/IMG_13_1094.jpg"",""SV_PolicingMSA/GA_1094/IMG_7_1094.jpg""]","4","","","","","","2","","4","[""./rc_img/cop_condGroup_3_SafeStreets_autoscaled.png"",""./rc_img/cop_condGroup_3_CommunitySafety_autoscaled.png""]","4",""
"sliderTrial","html-slider-response","143","541125","0.0-143.0","","656776a7904ae00d6b91d1dd","6568ad0e3da2cc66ce613b96","14","","","","","","","","","","","","715","[""SV_PolicingMSA/GA_1094/IMG_3_1094.jpg"",""SV_PolicingMSA/GA_1094/IMG_11_1094.jpg"",""SV_PolicingMSA/GA_1094/IMG_4_1094.jpg"",""SV_PolicingMSA/GA_1094/IMG_9_1094.jpg"",""SV_PolicingMSA/GA_1094/IMG_12_1094.jpg"",""SV_PolicingMSA/GA_1094/IMG_8_1094.jpg"",""SV_PolicingMSA/GA_1094/IMG_13_1094.jpg"",""SV_PolicingMSA/GA_1094/IMG_7_1094.jpg""]","4","","","","","","2","","4","[""./rc_img/cop_condGroup_10_CommunitySafety_autoscaled.png"",""./rc_img/cop_condGroup_10_SafeStreets_autoscaled.png""]","4",""
"sliderTrial","html-slider-response","144","542075","0.0-144.0","","656776a7904ae00d6b91d1dd","6568ad0e3da2cc66ce613b96","14","","","","","","","","","","","","948","[""SV_PolicingMSA/GA_1094/IMG_3_1094.jpg"",""SV_PolicingMSA/GA_1094/IMG_11_1094.jpg"",""SV_PolicingMSA/GA_1094/IMG_4_1094.jpg"",""SV_PolicingMSA/GA_1094/IMG_9_1094.jpg"",""SV_PolicingMSA/GA_1094/IMG_12_1094.jpg"",""SV_PolicingMSA/GA_1094/IMG_8_1094.jpg"",""SV_PolicingMSA/GA_1094/IMG_13_1094.jpg"",""SV_PolicingMSA/GA_1094/IMG_7_1094.jpg""]","4","","","","","","2","","4","[""./rc_img/cop_condGroup_13_SafeStreets_autoscaled.png"",""./rc_img/cop_condGroup_13_CommunitySafety_autoscaled.png""]","4",""
"demographics","survey-html-form","145","560908","0.0-145.0","","656776a7904ae00d6b91d1dd","6568ad0e3da2cc66ce613b96","14","","","","","","","","","","","","18830","","{""age"":""32"",""sex"":""female"",""gender"":""not-to-say"",""gender-self-describe"":"""",""zipcode"":""08876""}","","","","","","","","","","",""
"demographics-list","survey","146","586615","0.0-146.0","","656776a7904ae00d6b91d1dd","6568ad0e3da2cc66ce613b96","14","","","","","","","","","","","","25686","","{""P0_Q0"":null,""race-ethnicity"":[""White or of European ancestry""],""education"":""Some college"",""P1_Q0"":null,""ideology"":""Conservative"",""P2_Q0"":null,""num-moves"":1,""P3_Q0"":null,""social-ladder"":9}","","","","","","","[]","","","",""
"end-survey","survey-text","147","644124","0.0-147.0","","656776a7904ae00d6b91d1dd","6568ad0e3da2cc66ce613b96","14","","","","","","","","","","","","57499","","{""Q0"":""For all of the police officers, I genuinely had no preference on who would be policing which neighborhood. ""}","","","","","","","","","","","0"
"end-survey","html-button-response","148","648391","0.0-148.0","","656776a7904ae00d6b91d1dd","6568ad0e3da2cc66ce613b96","14","","","","","","","","","","","","4266","
    You've reached the end of the survey. <br><br> 
    <b>Do not close or refresh this window.</b><br>
    On the next page, you will be automatically redirected to Prolific. <br><br>

    <div class=""alert alert-warning""><b>
    </div>
","0","","","","","","","","","","",""
