"task","trial_type","trial_index","time_elapsed","internal_node_id","subject_id","study_id","session_id","section","width","height","webaudio","browser","browser_version","mobile","os","fullscreen","vsync_rate","webcam","microphone","rt","stimulus","response","success","timeout","failed_images","failed_audio","failed_video","block","accuracy","slider_start","choices","standardized_response","correct"
"pavlovia-init","pavlovia","0","1058","0.0-0.0","","656776a7904ae00d6b91d1dd","6568ae30b7219c39f9640f82","11","","","","","","","","","","","","","","","","","","","","","","","","",""
"browser-check","browser-check","1","2071","0.0-1.0","","656776a7904ae00d6b91d1dd","6568ae30b7219c39f9640f82","11","1312","879","true","edge-chromium","119.0.0","false","Windows 10","true","60.03","false","false","","","","","","","","","","","","","",""
"consent","html-button-response","2","15976","0.0-2.0","","656776a7904ae00d6b91d1dd","6568ae30b7219c39f9640f82","11","","","","","","","","","","","","13915","
        <div style=""font-size: 80%; max-width:700px"">
            <h2>CONSENT FORM</h2>
        
            <div style=""text-align: left"">
            <h4>DESCRIPTION</h4>
            <p>
            You will complete a short task where you give your impressions of various neighborhoods and assign individuals to those spaces, and answer some questions about your thoughts and opinions.<br>
            The University of Michigan Institutional Review Board Health Sciences and Behavioral Sciences has determined that this study is exempt from IRB oversight.
            </p>

            <h4>TIME INVOLVEMENT</h4>
            <p>Your participation will take approximately 15 minutes. You will receive $3.15 upon completion of the study.</p>
        
            <h4>RISKS AND BENEFITS</h4>
            <p>
            The risks associated with this study are minimal. The benefits which may reasonably be expected to result from this study are none. We cannot and do not guarantee or promise that you will receive any benefits from this study.
            </p>
          
            <h4>SUBJECT'S RIGHTS</h4>
            <p>
            If you have read this form and have decided to participate in this project, please understand your participation is voluntary and you have the right to withdraw your consent or discontinue participation at any time without penalty or loss of benefits to which you are otherwise entitled. The alternative is not to participate. You have the right to refuse to answer particular questions. Your individual privacy will be maintained in all published and written data resulting from the study.
            </p>

            <h4>HUMAN SUBJECT APPROVAL</h4>
            <p>
            This study is exempt from ongoing IRB review.
            </p>

            <h4>CONTACT INFORMATION</h4>
            If you have any questions, concerns or complaints about this research, its procedures, risks and benefits, contact the Protocol Director, Nicholas Camp, npcamp@umich.edu, (443) 851-6783. <br>

            If you have questions about your rights as a research participant, or wish to obtain information, ask questions or discuss any concerns about this study with someone other than the researcher(s), please contact the following:<br><br>
            University of Michigan<br>
            Health Sciences and Behavioral Sciences Institutional Review Board (IRB-HSBS)<br>
            2800 Plymouth Road<br>
            Building 520, Room 1169Ann Arbor, MI 48109-2800<br>
            Telephone: 734-936-0933 or toll free (866) 936-0933<br>
            Fax: 734-936-1852<br>
            E-mail: irbhsbs@umich.edu<br><br>

            You can also contact the University of Michigan Compliance Hotline at 1-866-990-0111. You may also print this consent form to keep.
            <br><br>
            <div class=""alert alert-warning""><b>
            Do you consent to participate in this study? If you consent to participate in this study, please click “Accept and Continue”. If you select ""Decline and Exit"", you will be exited from the survey. <br>
            </b></div>
            </div>
        </div>
    ","1","","","","","","","","","","",""
"","preload","3","17500","0.0-3.0","","656776a7904ae00d6b91d1dd","6568ae30b7219c39f9640f82","11","","","","","","","","","","","","","","","true","false","[]","[]","[]","","","","","",""
"instructions","html-button-response","4","40442","0.0-4.0","","656776a7904ae00d6b91d1dd","6568ae30b7219c39f9640f82","11","","","","","","","","","","","","22941","
        <div class=""text-container"">
        <h1>Welcome to the study!</h1>
        
        <div class=""text-left"">
            <p>
                In this study, we are interested in what people can tell about spaces from Google Street View images. <br> Google Street View takes pictures of streets used for Google Earth and Google Maps. <br>You’ll see Google Street View images of different places and answer some questions about each one.<br>
            </p>
        </div>
        <img src = ""assets/img/example.png"" width = 500px, height = auto>
        <br>
    <br>
    ","0","","","","","","","","","","",""
"instructions","html-button-response","5","46019","0.0-5.0","","656776a7904ae00d6b91d1dd","6568ae30b7219c39f9640f82","11","","","","","","","","","","","","5576","
    <div class=""text-container"">
        <div class=""text-center"">
            <p>Please remember that your answers are completely anonymous.<br>Go with your gut response- there are no right or wrong answers!</p>
        </div>
    <br>
","0","","","","","","","","","","",""
"before_SVSlide_prompt","html-button-response","6","49403","0.0-6.0","","656776a7904ae00d6b91d1dd","6568ae30b7219c39f9640f82","11","","","","","","","","","","","","3384","Click [Next] to see the next neighborhood!","0","","","","","","","","","","",""
"street view slide show","image-button-response","7","50407","0.0-7.0","","656776a7904ae00d6b91d1dd","6568ae30b7219c39f9640f82","11","","","","","","","","","","","","null","stimulus/SV_PolicingMSA/NJ_1880/IMG_10_1880.jpg","null","","","","","","2","","","","",""
"street view slide show","image-button-response","8","51419","0.0-8.0","","656776a7904ae00d6b91d1dd","6568ae30b7219c39f9640f82","11","","","","","","","","","","","","null","stimulus/SV_PolicingMSA/NJ_1880/IMG_12_1880.jpg","null","","","","","","2","","","","",""
"street view slide show","image-button-response","9","52434","0.0-9.0","","656776a7904ae00d6b91d1dd","6568ae30b7219c39f9640f82","11","","","","","","","","","","","","null","stimulus/SV_PolicingMSA/NJ_1880/IMG_3_1880.jpg","null","","","","","","2","","","","",""
"street view slide show","image-button-response","10","53449","0.0-10.0","","656776a7904ae00d6b91d1dd","6568ae30b7219c39f9640f82","11","","","","","","","","","","","","null","stimulus/SV_PolicingMSA/NJ_1880/IMG_2_1880.jpg","null","","","","","","2","","","","",""
"street view slide show","image-button-response","11","54466","0.0-11.0","","656776a7904ae00d6b91d1dd","6568ae30b7219c39f9640f82","11","","","","","","","","","","","","null","stimulus/SV_PolicingMSA/NJ_1880/IMG_8_1880.jpg","null","","","","","","2","","","","",""
"street view slide show","image-button-response","12","55479","0.0-12.0","","656776a7904ae00d6b91d1dd","6568ae30b7219c39f9640f82","11","","","","","","","","","","","","null","stimulus/SV_PolicingMSA/NJ_1880/IMG_13_1880.jpg","null","","","","","","2","","","","",""
"street view slide show","image-button-response","13","56487","0.0-13.0","","656776a7904ae00d6b91d1dd","6568ae30b7219c39f9640f82","11","","","","","","","","","","","","null","stimulus/SV_PolicingMSA/NJ_1880/IMG_6_1880.jpg","null","","","","","","2","","","","",""
"street view slide show","image-button-response","14","57502","0.0-14.0","","656776a7904ae00d6b91d1dd","6568ae30b7219c39f9640f82","11","","","","","","","","","","","","null","stimulus/SV_PolicingMSA/NJ_1880/IMG_11_1880.jpg","null","","","","","","2","","","","",""
"dot matrix survey1","survey","15","96758","0.0-15.0","","656776a7904ae00d6b91d1dd","6568ae30b7219c39f9640f82","11","","","","","","","","","","","","39155","","{""P0_Q0"":null,""P0_Q1"":{""wealthy"":2,""safe"":2,""walkable"":3,""traditional"":3,""diverse"":2}}","","","","","","2","[]","","","",""
"dot matrix survey2","survey","16","129958","0.0-16.0","","656776a7904ae00d6b91d1dd","6568ae30b7219c39f9640f82","11","","","","","","","","","","","","33189","","{""P0_Q0"":null,""P0_Q1"":{""violence"":2,""crime"":2,""drug"":2,""schools"":2,""opportunities"":2}}","","","","","","2","[]","","","",""
"dot matrix survey3","survey","17","174217","0.0-17.0","","656776a7904ae00d6b91d1dd","6568ae30b7219c39f9640f82","11","","","","","","","","","","","","44252","","{""P0_Q0"":null,""P0_Q1"":{""movein"":1,""moveout"":2,""shopping"":2,""walk"":1,""park"":2,""school"":2}}","","","","","","2","[]","","","",""
"sliderTrial","html-slider-response","18","200507","0.0-18.0","","656776a7904ae00d6b91d1dd","6568ae30b7219c39f9640f82","11","","","","","","","","","","","","26288","[""SV_PolicingMSA/NJ_1880/IMG_10_1880.jpg"",""SV_PolicingMSA/NJ_1880/IMG_12_1880.jpg"",""SV_PolicingMSA/NJ_1880/IMG_3_1880.jpg"",""SV_PolicingMSA/NJ_1880/IMG_2_1880.jpg"",""SV_PolicingMSA/NJ_1880/IMG_8_1880.jpg"",""SV_PolicingMSA/NJ_1880/IMG_13_1880.jpg"",""SV_PolicingMSA/NJ_1880/IMG_6_1880.jpg"",""SV_PolicingMSA/NJ_1880/IMG_11_1880.jpg""]","4","","","","","","2","","4","[""./rc_img/cop_condGroup_20_CommunitySafety_autoscaled.png"",""./rc_img/cop_condGroup_20_SafeStreets_autoscaled.png""]","4",""
"sliderTrial","html-slider-response","19","212205","0.0-19.0","","656776a7904ae00d6b91d1dd","6568ae30b7219c39f9640f82","11","","","","","","","","","","","","11696","[""SV_PolicingMSA/NJ_1880/IMG_10_1880.jpg"",""SV_PolicingMSA/NJ_1880/IMG_12_1880.jpg"",""SV_PolicingMSA/NJ_1880/IMG_3_1880.jpg"",""SV_PolicingMSA/NJ_1880/IMG_2_1880.jpg"",""SV_PolicingMSA/NJ_1880/IMG_8_1880.jpg"",""SV_PolicingMSA/NJ_1880/IMG_13_1880.jpg"",""SV_PolicingMSA/NJ_1880/IMG_6_1880.jpg"",""SV_PolicingMSA/NJ_1880/IMG_11_1880.jpg""]","4","","","","","","2","","4","[""./rc_img/cop_condGroup_4_SafeStreets_autoscaled.png"",""./rc_img/cop_condGroup_4_CommunitySafety_autoscaled.png""]","4",""
"sliderTrial","html-slider-response","20","221126","0.0-20.0","","656776a7904ae00d6b91d1dd","6568ae30b7219c39f9640f82","11","","","","","","","","","","","","8919","[""SV_PolicingMSA/NJ_1880/IMG_10_1880.jpg"",""SV_PolicingMSA/NJ_1880/IMG_12_1880.jpg"",""SV_PolicingMSA/NJ_1880/IMG_3_1880.jpg"",""SV_PolicingMSA/NJ_1880/IMG_2_1880.jpg"",""SV_PolicingMSA/NJ_1880/IMG_8_1880.jpg"",""SV_PolicingMSA/NJ_1880/IMG_13_1880.jpg"",""SV_PolicingMSA/NJ_1880/IMG_6_1880.jpg"",""SV_PolicingMSA/NJ_1880/IMG_11_1880.jpg""]","5","","","","","","2","","4","[""./rc_img/cop_condGroup_16_SafeStreets_autoscaled.png"",""./rc_img/cop_condGroup_16_CommunitySafety_autoscaled.png""]","3",""
"sliderTrial","html-slider-response","21","229391","0.0-21.0","","656776a7904ae00d6b91d1dd","6568ae30b7219c39f9640f82","11","","","","","","","","","","","","8264","[""SV_PolicingMSA/NJ_1880/IMG_10_1880.jpg"",""SV_PolicingMSA/NJ_1880/IMG_12_1880.jpg"",""SV_PolicingMSA/NJ_1880/IMG_3_1880.jpg"",""SV_PolicingMSA/NJ_1880/IMG_2_1880.jpg"",""SV_PolicingMSA/NJ_1880/IMG_8_1880.jpg"",""SV_PolicingMSA/NJ_1880/IMG_13_1880.jpg"",""SV_PolicingMSA/NJ_1880/IMG_6_1880.jpg"",""SV_PolicingMSA/NJ_1880/IMG_11_1880.jpg""]","3","","","","","","2","","4","[""./rc_img/cop_condGroup_11_CommunitySafety_autoscaled.png"",""./rc_img/cop_condGroup_11_SafeStreets_autoscaled.png""]","3",""
"sliderTrial","html-slider-response","22","233592","0.0-22.0","","656776a7904ae00d6b91d1dd","6568ae30b7219c39f9640f82","11","","","","","","","","","","","","4200","[""SV_PolicingMSA/NJ_1880/IMG_10_1880.jpg"",""SV_PolicingMSA/NJ_1880/IMG_12_1880.jpg"",""SV_PolicingMSA/NJ_1880/IMG_3_1880.jpg"",""SV_PolicingMSA/NJ_1880/IMG_2_1880.jpg"",""SV_PolicingMSA/NJ_1880/IMG_8_1880.jpg"",""SV_PolicingMSA/NJ_1880/IMG_13_1880.jpg"",""SV_PolicingMSA/NJ_1880/IMG_6_1880.jpg"",""SV_PolicingMSA/NJ_1880/IMG_11_1880.jpg""]","5","","","","","","2","","4","[""./rc_img/cop_condGroup_3_SafeStreets_autoscaled.png"",""./rc_img/cop_condGroup_3_CommunitySafety_autoscaled.png""]","3",""
"before_SVSlide_prompt","html-button-response","23","236945","0.0-23.0","","656776a7904ae00d6b91d1dd","6568ae30b7219c39f9640f82","11","","","","","","","","","","","","3352","Click [Next] to see the next neighborhood!","0","","","","","","","","","","",""
"street view slide show","image-button-response","24","237947","0.0-24.0","","656776a7904ae00d6b91d1dd","6568ae30b7219c39f9640f82","11","","","","","","","","","","","","null","stimulus/SV_PolicingMSA/NY_4752/IMG_2_4752.jpg","null","","","","","","5","","","","",""
"street view slide show","image-button-response","25","238954","0.0-25.0","","656776a7904ae00d6b91d1dd","6568ae30b7219c39f9640f82","11","","","","","","","","","","","","null","stimulus/SV_PolicingMSA/NY_4752/IMG_7_4752.jpg","null","","","","","","5","","","","",""
"street view slide show","image-button-response","26","239969","0.0-26.0","","656776a7904ae00d6b91d1dd","6568ae30b7219c39f9640f82","11","","","","","","","","","","","","null","stimulus/SV_PolicingMSA/NY_4752/IMG_12_4752.jpg","null","","","","","","5","","","","",""
"street view slide show","image-button-response","27","240987","0.0-27.0","","656776a7904ae00d6b91d1dd","6568ae30b7219c39f9640f82","11","","","","","","","","","","","","null","stimulus/SV_PolicingMSA/NY_4752/IMG_4_4752.jpg","null","","","","","","5","","","","",""
"street view slide show","image-button-response","28","241989","0.0-28.0","","656776a7904ae00d6b91d1dd","6568ae30b7219c39f9640f82","11","","","","","","","","","","","","null","stimulus/SV_PolicingMSA/NY_4752/IMG_9_4752.jpg","null","","","","","","5","","","","",""
"street view slide show","image-button-response","29","243006","0.0-29.0","","656776a7904ae00d6b91d1dd","6568ae30b7219c39f9640f82","11","","","","","","","","","","","","null","stimulus/SV_PolicingMSA/NY_4752/IMG_6_4752.jpg","null","","","","","","5","","","","",""
"street view slide show","image-button-response","30","244023","0.0-30.0","","656776a7904ae00d6b91d1dd","6568ae30b7219c39f9640f82","11","","","","","","","","","","","","null","stimulus/SV_PolicingMSA/NY_4752/IMG_3_4752.jpg","null","","","","","","5","","","","",""
"street view slide show","image-button-response","31","245040","0.0-31.0","","656776a7904ae00d6b91d1dd","6568ae30b7219c39f9640f82","11","","","","","","","","","","","","null","stimulus/SV_PolicingMSA/NY_4752/IMG_0_4752.jpg","null","","","","","","5","","","","",""
"dot matrix survey1","survey","32","271566","0.0-32.0","","656776a7904ae00d6b91d1dd","6568ae30b7219c39f9640f82","11","","","","","","","","","","","","26493","","{""P0_Q0"":null,""P0_Q1"":{""wealthy"":1,""safe"":1,""walkable"":1,""traditional"":1,""diverse"":1}}","","","","","","5","[]","","","",""
"dot matrix survey2","survey","33","292279","0.0-33.0","","656776a7904ae00d6b91d1dd","6568ae30b7219c39f9640f82","11","","","","","","","","","","","","20705","","{""P0_Q0"":null,""P0_Q1"":{""violence"":3,""crime"":3,""drug"":3,""schools"":1,""opportunities"":1}}","","","","","","5","[]","","","",""
"dot matrix survey3","survey","34","321451","0.0-34.0","","656776a7904ae00d6b91d1dd","6568ae30b7219c39f9640f82","11","","","","","","","","","","","","29167","","{""P0_Q0"":null,""P0_Q1"":{""movein"":1,""moveout"":3,""shopping"":0,""walk"":0,""park"":0,""school"":1}}","","","","","","5","[]","","","",""
"sliderTrial","html-slider-response","35","328620","0.0-35.0","","656776a7904ae00d6b91d1dd","6568ae30b7219c39f9640f82","11","","","","","","","","","","","","7168","[""SV_PolicingMSA/NY_4752/IMG_2_4752.jpg"",""SV_PolicingMSA/NY_4752/IMG_7_4752.jpg"",""SV_PolicingMSA/NY_4752/IMG_12_4752.jpg"",""SV_PolicingMSA/NY_4752/IMG_4_4752.jpg"",""SV_PolicingMSA/NY_4752/IMG_9_4752.jpg"",""SV_PolicingMSA/NY_4752/IMG_6_4752.jpg"",""SV_PolicingMSA/NY_4752/IMG_3_4752.jpg"",""SV_PolicingMSA/NY_4752/IMG_0_4752.jpg""]","4","","","","","","5","","4","[""./rc_img/cop_condGroup_2_CommunitySafety_autoscaled.png"",""./rc_img/cop_condGroup_2_SafeStreets_autoscaled.png""]","4",""
"sliderTrial","html-slider-response","36","332373","0.0-36.0","","656776a7904ae00d6b91d1dd","6568ae30b7219c39f9640f82","11","","","","","","","","","","","","3751","[""SV_PolicingMSA/NY_4752/IMG_2_4752.jpg"",""SV_PolicingMSA/NY_4752/IMG_7_4752.jpg"",""SV_PolicingMSA/NY_4752/IMG_12_4752.jpg"",""SV_PolicingMSA/NY_4752/IMG_4_4752.jpg"",""SV_PolicingMSA/NY_4752/IMG_9_4752.jpg"",""SV_PolicingMSA/NY_4752/IMG_6_4752.jpg"",""SV_PolicingMSA/NY_4752/IMG_3_4752.jpg"",""SV_PolicingMSA/NY_4752/IMG_0_4752.jpg""]","4","","","","","","5","","4","[""./rc_img/cop_condGroup_17_SafeStreets_autoscaled.png"",""./rc_img/cop_condGroup_17_CommunitySafety_autoscaled.png""]","4",""
"sliderTrial","html-slider-response","37","335589","0.0-37.0","","656776a7904ae00d6b91d1dd","6568ae30b7219c39f9640f82","11","","","","","","","","","","","","3214","[""SV_PolicingMSA/NY_4752/IMG_2_4752.jpg"",""SV_PolicingMSA/NY_4752/IMG_7_4752.jpg"",""SV_PolicingMSA/NY_4752/IMG_12_4752.jpg"",""SV_PolicingMSA/NY_4752/IMG_4_4752.jpg"",""SV_PolicingMSA/NY_4752/IMG_9_4752.jpg"",""SV_PolicingMSA/NY_4752/IMG_6_4752.jpg"",""SV_PolicingMSA/NY_4752/IMG_3_4752.jpg"",""SV_PolicingMSA/NY_4752/IMG_0_4752.jpg""]","4","","","","","","5","","4","[""./rc_img/cop_condGroup_14_SafeStreets_autoscaled.png"",""./rc_img/cop_condGroup_14_CommunitySafety_autoscaled.png""]","4",""
"sliderTrial","html-slider-response","38","339014","0.0-38.0","","656776a7904ae00d6b91d1dd","6568ae30b7219c39f9640f82","11","","","","","","","","","","","","3424","[""SV_PolicingMSA/NY_4752/IMG_2_4752.jpg"",""SV_PolicingMSA/NY_4752/IMG_7_4752.jpg"",""SV_PolicingMSA/NY_4752/IMG_12_4752.jpg"",""SV_PolicingMSA/NY_4752/IMG_4_4752.jpg"",""SV_PolicingMSA/NY_4752/IMG_9_4752.jpg"",""SV_PolicingMSA/NY_4752/IMG_6_4752.jpg"",""SV_PolicingMSA/NY_4752/IMG_3_4752.jpg"",""SV_PolicingMSA/NY_4752/IMG_0_4752.jpg""]","4","","","","","","5","","4","[""./rc_img/cop_condGroup_1_SafeStreets_autoscaled.png"",""./rc_img/cop_condGroup_1_CommunitySafety_autoscaled.png""]","4",""
"sliderTrial","html-slider-response","39","341630","0.0-39.0","","656776a7904ae00d6b91d1dd","6568ae30b7219c39f9640f82","11","","","","","","","","","","","","2615","[""SV_PolicingMSA/NY_4752/IMG_2_4752.jpg"",""SV_PolicingMSA/NY_4752/IMG_7_4752.jpg"",""SV_PolicingMSA/NY_4752/IMG_12_4752.jpg"",""SV_PolicingMSA/NY_4752/IMG_4_4752.jpg"",""SV_PolicingMSA/NY_4752/IMG_9_4752.jpg"",""SV_PolicingMSA/NY_4752/IMG_6_4752.jpg"",""SV_PolicingMSA/NY_4752/IMG_3_4752.jpg"",""SV_PolicingMSA/NY_4752/IMG_0_4752.jpg""]","4","","","","","","5","","4","[""./rc_img/cop_condGroup_6_CommunitySafety_autoscaled.png"",""./rc_img/cop_condGroup_6_SafeStreets_autoscaled.png""]","4",""
"before_SVSlide_prompt","html-button-response","40","343798","0.0-40.0","","656776a7904ae00d6b91d1dd","6568ae30b7219c39f9640f82","11","","","","","","","","","","","","2168","Click [Next] to see the next neighborhood!","0","","","","","","","","","","",""
"street view slide show","image-button-response","41","344812","0.0-41.0","","656776a7904ae00d6b91d1dd","6568ae30b7219c39f9640f82","11","","","","","","","","","","","","null","stimulus/SV_PolicingMSA/NY_5291/IMG_14_5291.jpg","null","","","","","","4","","","","",""
"street view slide show","image-button-response","42","345829","0.0-42.0","","656776a7904ae00d6b91d1dd","6568ae30b7219c39f9640f82","11","","","","","","","","","","","","null","stimulus/SV_PolicingMSA/NY_5291/IMG_6_5291.jpg","null","","","","","","4","","","","",""
"street view slide show","image-button-response","43","346844","0.0-43.0","","656776a7904ae00d6b91d1dd","6568ae30b7219c39f9640f82","11","","","","","","","","","","","","null","stimulus/SV_PolicingMSA/NY_5291/IMG_3_5291.jpg","null","","","","","","4","","","","",""
"street view slide show","image-button-response","44","347860","0.0-44.0","","656776a7904ae00d6b91d1dd","6568ae30b7219c39f9640f82","11","","","","","","","","","","","","null","stimulus/SV_PolicingMSA/NY_5291/IMG_5_5291.jpg","null","","","","","","4","","","","",""
"street view slide show","image-button-response","45","348877","0.0-45.0","","656776a7904ae00d6b91d1dd","6568ae30b7219c39f9640f82","11","","","","","","","","","","","","null","stimulus/SV_PolicingMSA/NY_5291/IMG_8_5291.jpg","null","","","","","","4","","","","",""
"street view slide show","image-button-response","46","349895","0.0-46.0","","656776a7904ae00d6b91d1dd","6568ae30b7219c39f9640f82","11","","","","","","","","","","","","null","stimulus/SV_PolicingMSA/NY_5291/IMG_9_5291.jpg","null","","","","","","4","","","","",""
"street view slide show","image-button-response","47","350913","0.0-47.0","","656776a7904ae00d6b91d1dd","6568ae30b7219c39f9640f82","11","","","","","","","","","","","","null","stimulus/SV_PolicingMSA/NY_5291/IMG_4_5291.jpg","null","","","","","","4","","","","",""
"street view slide show","image-button-response","48","351930","0.0-48.0","","656776a7904ae00d6b91d1dd","6568ae30b7219c39f9640f82","11","","","","","","","","","","","","null","stimulus/SV_PolicingMSA/NY_5291/IMG_2_5291.jpg","null","","","","","","4","","","","",""
"dot matrix survey1","survey","49","372137","0.0-49.0","","656776a7904ae00d6b91d1dd","6568ae30b7219c39f9640f82","11","","","","","","","","","","","","20177","","{""P0_Q0"":null,""P0_Q1"":{""wealthy"":1,""safe"":3,""walkable"":2,""traditional"":3,""diverse"":2}}","","","","","","4","[]","","","",""
"dot matrix survey2","survey","50","389283","0.0-50.0","","656776a7904ae00d6b91d1dd","6568ae30b7219c39f9640f82","11","","","","","","","","","","","","17140","","{""P0_Q0"":null,""P0_Q1"":{""violence"":2,""crime"":2,""drug"":2,""schools"":2,""opportunities"":2}}","","","","","","4","[]","","","",""
"dot matrix survey3","survey","51","413877","0.0-51.0","","656776a7904ae00d6b91d1dd","6568ae30b7219c39f9640f82","11","","","","","","","","","","","","24589","","{""P0_Q0"":null,""P0_Q1"":{""movein"":2,""moveout"":2,""shopping"":2,""walk"":1,""park"":2,""school"":2}}","","","","","","4","[]","","","",""
"sliderTrial","html-slider-response","52","419759","0.0-52.0","","656776a7904ae00d6b91d1dd","6568ae30b7219c39f9640f82","11","","","","","","","","","","","","5880","[""SV_PolicingMSA/NY_5291/IMG_14_5291.jpg"",""SV_PolicingMSA/NY_5291/IMG_6_5291.jpg"",""SV_PolicingMSA/NY_5291/IMG_3_5291.jpg"",""SV_PolicingMSA/NY_5291/IMG_5_5291.jpg"",""SV_PolicingMSA/NY_5291/IMG_8_5291.jpg"",""SV_PolicingMSA/NY_5291/IMG_9_5291.jpg"",""SV_PolicingMSA/NY_5291/IMG_4_5291.jpg"",""SV_PolicingMSA/NY_5291/IMG_2_5291.jpg""]","3","","","","","","4","","4","[""./rc_img/cop_condGroup_9_CommunitySafety_autoscaled.png"",""./rc_img/cop_condGroup_9_SafeStreets_autoscaled.png""]","3",""
"sliderTrial","html-slider-response","53","423160","0.0-53.0","","656776a7904ae00d6b91d1dd","6568ae30b7219c39f9640f82","11","","","","","","","","","","","","3400","[""SV_PolicingMSA/NY_5291/IMG_14_5291.jpg"",""SV_PolicingMSA/NY_5291/IMG_6_5291.jpg"",""SV_PolicingMSA/NY_5291/IMG_3_5291.jpg"",""SV_PolicingMSA/NY_5291/IMG_5_5291.jpg"",""SV_PolicingMSA/NY_5291/IMG_8_5291.jpg"",""SV_PolicingMSA/NY_5291/IMG_9_5291.jpg"",""SV_PolicingMSA/NY_5291/IMG_4_5291.jpg"",""SV_PolicingMSA/NY_5291/IMG_2_5291.jpg""]","5","","","","","","4","","4","[""./rc_img/cop_condGroup_8_SafeStreets_autoscaled.png"",""./rc_img/cop_condGroup_8_CommunitySafety_autoscaled.png""]","3",""
"sliderTrial","html-slider-response","54","426969","0.0-54.0","","656776a7904ae00d6b91d1dd","6568ae30b7219c39f9640f82","11","","","","","","","","","","","","3808","[""SV_PolicingMSA/NY_5291/IMG_14_5291.jpg"",""SV_PolicingMSA/NY_5291/IMG_6_5291.jpg"",""SV_PolicingMSA/NY_5291/IMG_3_5291.jpg"",""SV_PolicingMSA/NY_5291/IMG_5_5291.jpg"",""SV_PolicingMSA/NY_5291/IMG_8_5291.jpg"",""SV_PolicingMSA/NY_5291/IMG_9_5291.jpg"",""SV_PolicingMSA/NY_5291/IMG_4_5291.jpg"",""SV_PolicingMSA/NY_5291/IMG_2_5291.jpg""]","5","","","","","","4","","4","[""./rc_img/cop_condGroup_19_SafeStreets_autoscaled.png"",""./rc_img/cop_condGroup_19_CommunitySafety_autoscaled.png""]","3",""
"sliderTrial","html-slider-response","55","430482","0.0-55.0","","656776a7904ae00d6b91d1dd","6568ae30b7219c39f9640f82","11","","","","","","","","","","","","3512","[""SV_PolicingMSA/NY_5291/IMG_14_5291.jpg"",""SV_PolicingMSA/NY_5291/IMG_6_5291.jpg"",""SV_PolicingMSA/NY_5291/IMG_3_5291.jpg"",""SV_PolicingMSA/NY_5291/IMG_5_5291.jpg"",""SV_PolicingMSA/NY_5291/IMG_8_5291.jpg"",""SV_PolicingMSA/NY_5291/IMG_9_5291.jpg"",""SV_PolicingMSA/NY_5291/IMG_4_5291.jpg"",""SV_PolicingMSA/NY_5291/IMG_2_5291.jpg""]","5","","","","","","4","","4","[""./rc_img/cop_condGroup_13_SafeStreets_autoscaled.png"",""./rc_img/cop_condGroup_13_CommunitySafety_autoscaled.png""]","3",""
"sliderTrial","html-slider-response","56","433682","0.0-56.0","","656776a7904ae00d6b91d1dd","6568ae30b7219c39f9640f82","11","","","","","","","","","","","","3199","[""SV_PolicingMSA/NY_5291/IMG_14_5291.jpg"",""SV_PolicingMSA/NY_5291/IMG_6_5291.jpg"",""SV_PolicingMSA/NY_5291/IMG_3_5291.jpg"",""SV_PolicingMSA/NY_5291/IMG_5_5291.jpg"",""SV_PolicingMSA/NY_5291/IMG_8_5291.jpg"",""SV_PolicingMSA/NY_5291/IMG_9_5291.jpg"",""SV_PolicingMSA/NY_5291/IMG_4_5291.jpg"",""SV_PolicingMSA/NY_5291/IMG_2_5291.jpg""]","3","","","","","","4","","4","[""./rc_img/cop_condGroup_10_CommunitySafety_autoscaled.png"",""./rc_img/cop_condGroup_10_SafeStreets_autoscaled.png""]","3",""
"before_SVSlide_prompt","html-button-response","57","436146","0.0-57.0","","656776a7904ae00d6b91d1dd","6568ae30b7219c39f9640f82","11","","","","","","","","","","","","2463","Click [Next] to see the next neighborhood!","0","","","","","","","","","","",""
"street view slide show","image-button-response","58","437154","0.0-58.0","","656776a7904ae00d6b91d1dd","6568ae30b7219c39f9640f82","11","","","","","","","","","","","","null","stimulus/SV_PolicingMSA/NJ_1052/IMG_10_1052.jpg","null","","","","","","3","","","","",""
"street view slide show","image-button-response","59","438169","0.0-59.0","","656776a7904ae00d6b91d1dd","6568ae30b7219c39f9640f82","11","","","","","","","","","","","","null","stimulus/SV_PolicingMSA/NJ_1052/IMG_13_1052.jpg","null","","","","","","3","","","","",""
"street view slide show","image-button-response","60","439187","0.0-60.0","","656776a7904ae00d6b91d1dd","6568ae30b7219c39f9640f82","11","","","","","","","","","","","","null","stimulus/SV_PolicingMSA/NJ_1052/IMG_5_1052.jpg","null","","","","","","3","","","","",""
"street view slide show","image-button-response","61","440205","0.0-61.0","","656776a7904ae00d6b91d1dd","6568ae30b7219c39f9640f82","11","","","","","","","","","","","","null","stimulus/SV_PolicingMSA/NJ_1052/IMG_11_1052.jpg","null","","","","","","3","","","","",""
"street view slide show","image-button-response","62","441222","0.0-62.0","","656776a7904ae00d6b91d1dd","6568ae30b7219c39f9640f82","11","","","","","","","","","","","","null","stimulus/SV_PolicingMSA/NJ_1052/IMG_12_1052.jpg","null","","","","","","3","","","","",""
"street view slide show","image-button-response","63","442240","0.0-63.0","","656776a7904ae00d6b91d1dd","6568ae30b7219c39f9640f82","11","","","","","","","","","","","","null","stimulus/SV_PolicingMSA/NJ_1052/IMG_4_1052.jpg","null","","","","","","3","","","","",""
"street view slide show","image-button-response","64","443257","0.0-64.0","","656776a7904ae00d6b91d1dd","6568ae30b7219c39f9640f82","11","","","","","","","","","","","","null","stimulus/SV_PolicingMSA/NJ_1052/IMG_3_1052.jpg","null","","","","","","3","","","","",""
"street view slide show","image-button-response","65","444275","0.0-65.0","","656776a7904ae00d6b91d1dd","6568ae30b7219c39f9640f82","11","","","","","","","","","","","","null","stimulus/SV_PolicingMSA/NJ_1052/IMG_0_1052.jpg","null","","","","","","3","","","","",""
"dot matrix survey1","survey","66","464371","0.0-66.0","","656776a7904ae00d6b91d1dd","6568ae30b7219c39f9640f82","11","","","","","","","","","","","","20051","","{""P0_Q0"":null,""P0_Q1"":{""wealthy"":1,""safe"":2,""walkable"":2,""traditional"":3,""diverse"":2}}","","","","","","3","[]","","","",""
"dot matrix survey2","survey","67","483887","0.0-67.0","","656776a7904ae00d6b91d1dd","6568ae30b7219c39f9640f82","11","","","","","","","","","","","","19509","","{""P0_Q0"":null,""P0_Q1"":{""violence"":1,""crime"":1,""drug"":2,""schools"":2,""opportunities"":2}}","","","","","","3","[]","","","",""
"dot matrix survey3","survey","68","503959","0.0-68.0","","656776a7904ae00d6b91d1dd","6568ae30b7219c39f9640f82","11","","","","","","","","","","","","20076","","{""P0_Q0"":null,""P0_Q1"":{""movein"":2,""moveout"":1,""shopping"":2,""walk"":1,""park"":2,""school"":2}}","","","","","","3","[]","","","",""
"sliderTrial","html-slider-response","69","509065","0.0-69.0","","656776a7904ae00d6b91d1dd","6568ae30b7219c39f9640f82","11","","","","","","","","","","","","5104","[""SV_PolicingMSA/NJ_1052/IMG_10_1052.jpg"",""SV_PolicingMSA/NJ_1052/IMG_13_1052.jpg"",""SV_PolicingMSA/NJ_1052/IMG_5_1052.jpg"",""SV_PolicingMSA/NJ_1052/IMG_11_1052.jpg"",""SV_PolicingMSA/NJ_1052/IMG_12_1052.jpg"",""SV_PolicingMSA/NJ_1052/IMG_4_1052.jpg"",""SV_PolicingMSA/NJ_1052/IMG_3_1052.jpg"",""SV_PolicingMSA/NJ_1052/IMG_0_1052.jpg""]","5","","","","","","3","","4","[""./rc_img/cop_condGroup_18_SafeStreets_autoscaled.png"",""./rc_img/cop_condGroup_18_CommunitySafety_autoscaled.png""]","3",""
"sliderTrial","html-slider-response","70","513050","0.0-70.0","","656776a7904ae00d6b91d1dd","6568ae30b7219c39f9640f82","11","","","","","","","","","","","","3983","[""SV_PolicingMSA/NJ_1052/IMG_10_1052.jpg"",""SV_PolicingMSA/NJ_1052/IMG_13_1052.jpg"",""SV_PolicingMSA/NJ_1052/IMG_5_1052.jpg"",""SV_PolicingMSA/NJ_1052/IMG_11_1052.jpg"",""SV_PolicingMSA/NJ_1052/IMG_12_1052.jpg"",""SV_PolicingMSA/NJ_1052/IMG_4_1052.jpg"",""SV_PolicingMSA/NJ_1052/IMG_3_1052.jpg"",""SV_PolicingMSA/NJ_1052/IMG_0_1052.jpg""]","5","","","","","","3","","4","[""./rc_img/cop_condGroup_12_SafeStreets_autoscaled.png"",""./rc_img/cop_condGroup_12_CommunitySafety_autoscaled.png""]","3",""
"sliderTrial","html-slider-response","71","518088","0.0-71.0","","656776a7904ae00d6b91d1dd","6568ae30b7219c39f9640f82","11","","","","","","","","","","","","5037","[""SV_PolicingMSA/NJ_1052/IMG_10_1052.jpg"",""SV_PolicingMSA/NJ_1052/IMG_13_1052.jpg"",""SV_PolicingMSA/NJ_1052/IMG_5_1052.jpg"",""SV_PolicingMSA/NJ_1052/IMG_11_1052.jpg"",""SV_PolicingMSA/NJ_1052/IMG_12_1052.jpg"",""SV_PolicingMSA/NJ_1052/IMG_4_1052.jpg"",""SV_PolicingMSA/NJ_1052/IMG_3_1052.jpg"",""SV_PolicingMSA/NJ_1052/IMG_0_1052.jpg""]","4","","","","","","3","","4","[""./rc_img/cop_condGroup_7_SafeStreets_autoscaled.png"",""./rc_img/cop_condGroup_7_CommunitySafety_autoscaled.png""]","4",""
"sliderTrial","html-slider-response","72","521666","0.0-72.0","","656776a7904ae00d6b91d1dd","6568ae30b7219c39f9640f82","11","","","","","","","","","","","","3577","[""SV_PolicingMSA/NJ_1052/IMG_10_1052.jpg"",""SV_PolicingMSA/NJ_1052/IMG_13_1052.jpg"",""SV_PolicingMSA/NJ_1052/IMG_5_1052.jpg"",""SV_PolicingMSA/NJ_1052/IMG_11_1052.jpg"",""SV_PolicingMSA/NJ_1052/IMG_12_1052.jpg"",""SV_PolicingMSA/NJ_1052/IMG_4_1052.jpg"",""SV_PolicingMSA/NJ_1052/IMG_3_1052.jpg"",""SV_PolicingMSA/NJ_1052/IMG_0_1052.jpg""]","5","","","","","","3","","4","[""./rc_img/cop_condGroup_5_SafeStreets_autoscaled.png"",""./rc_img/cop_condGroup_5_CommunitySafety_autoscaled.png""]","3",""
"sliderTrial","html-slider-response","73","527300","0.0-73.0","","656776a7904ae00d6b91d1dd","6568ae30b7219c39f9640f82","11","","","","","","","","","","","","5633","[""SV_PolicingMSA/NJ_1052/IMG_10_1052.jpg"",""SV_PolicingMSA/NJ_1052/IMG_13_1052.jpg"",""SV_PolicingMSA/NJ_1052/IMG_5_1052.jpg"",""SV_PolicingMSA/NJ_1052/IMG_11_1052.jpg"",""SV_PolicingMSA/NJ_1052/IMG_12_1052.jpg"",""SV_PolicingMSA/NJ_1052/IMG_4_1052.jpg"",""SV_PolicingMSA/NJ_1052/IMG_3_1052.jpg"",""SV_PolicingMSA/NJ_1052/IMG_0_1052.jpg""]","4","","","","","","3","","4","[""./rc_img/cop_condGroup_15_CommunitySafety_autoscaled.png"",""./rc_img/cop_condGroup_15_SafeStreets_autoscaled.png""]","4",""
"half-way","html-button-response","74","540229","0.0-74.0","","656776a7904ae00d6b91d1dd","6568ae30b7219c39f9640f82","11","","","","","","","","","","","","12928","
    <h3>You are now half way through the study.</h3>
    <p>Please take a quick, 15-second break before you continue.</p>
    <img src='assets/img/countdown-15.gif'>
    <p>The study will automatically advance forward after the countdown is complete. <br> However, you may click ""Next"" to advance forward now if you wish.</p>
    ","0","","","","","","","","","","",""
"before_SVSlide_prompt","html-button-response","75","543415","0.0-75.0","","656776a7904ae00d6b91d1dd","6568ae30b7219c39f9640f82","11","","","","","","","","","","","","3185","Click [Next] to see the next neighborhood!","0","","","","","","","","","","",""
"street view slide show","image-button-response","76","544430","0.0-76.0","","656776a7904ae00d6b91d1dd","6568ae30b7219c39f9640f82","11","","","","","","","","","","","","null","stimulus/SV_PolicingMSA/NY_2731/IMG_2_2731.jpg","null","","","","","","3","","","","",""
"street view slide show","image-button-response","77","545436","0.0-77.0","","656776a7904ae00d6b91d1dd","6568ae30b7219c39f9640f82","11","","","","","","","","","","","","null","stimulus/SV_PolicingMSA/NY_2731/IMG_9_2731.jpg","null","","","","","","3","","","","",""
"street view slide show","image-button-response","78","546451","0.0-78.0","","656776a7904ae00d6b91d1dd","6568ae30b7219c39f9640f82","11","","","","","","","","","","","","null","stimulus/SV_PolicingMSA/NY_2731/IMG_3_2731.jpg","null","","","","","","3","","","","",""
"street view slide show","image-button-response","79","547453","0.0-79.0","","656776a7904ae00d6b91d1dd","6568ae30b7219c39f9640f82","11","","","","","","","","","","","","null","stimulus/SV_PolicingMSA/NY_2731/IMG_11_2731.jpg","null","","","","","","3","","","","",""
"street view slide show","image-button-response","80","548469","0.0-80.0","","656776a7904ae00d6b91d1dd","6568ae30b7219c39f9640f82","11","","","","","","","","","","","","null","stimulus/SV_PolicingMSA/NY_2731/IMG_5_2731.jpg","null","","","","","","3","","","","",""
"street view slide show","image-button-response","81","549472","0.0-81.0","","656776a7904ae00d6b91d1dd","6568ae30b7219c39f9640f82","11","","","","","","","","","","","","null","stimulus/SV_PolicingMSA/NY_2731/IMG_8_2731.jpg","null","","","","","","3","","","","",""
"street view slide show","image-button-response","82","550488","0.0-82.0","","656776a7904ae00d6b91d1dd","6568ae30b7219c39f9640f82","11","","","","","","","","","","","","null","stimulus/SV_PolicingMSA/NY_2731/IMG_12_2731.jpg","null","","","","","","3","","","","",""
"street view slide show","image-button-response","83","551492","0.0-83.0","","656776a7904ae00d6b91d1dd","6568ae30b7219c39f9640f82","11","","","","","","","","","","","","null","stimulus/SV_PolicingMSA/NY_2731/IMG_10_2731.jpg","null","","","","","","3","","","","",""
"dot matrix survey1","survey","84","572746","0.0-84.0","","656776a7904ae00d6b91d1dd","6568ae30b7219c39f9640f82","11","","","","","","","","","","","","21220","","{""P0_Q0"":null,""P0_Q1"":{""wealthy"":1,""safe"":2,""walkable"":2,""traditional"":1,""diverse"":2}}","","","","","","3","[]","","","",""
"dot matrix survey2","survey","85","583916","0.0-85.0","","656776a7904ae00d6b91d1dd","6568ae30b7219c39f9640f82","11","","","","","","","","","","","","11165","","{""P0_Q0"":null,""P0_Q1"":{""violence"":2,""crime"":2,""drug"":2,""schools"":2,""opportunities"":1}}","","","","","","3","[]","","","",""
"dot matrix survey3","survey","86","607405","0.0-86.0","","656776a7904ae00d6b91d1dd","6568ae30b7219c39f9640f82","11","","","","","","","","","","","","23484","","{""P0_Q0"":null,""P0_Q1"":{""movein"":1,""moveout"":2,""shopping"":1,""walk"":1,""park"":1,""school"":2}}","","","","","","3","[]","","","",""
"sliderTrial","html-slider-response","87","613594","0.0-87.0","","656776a7904ae00d6b91d1dd","6568ae30b7219c39f9640f82","11","","","","","","","","","","","","6188","[""SV_PolicingMSA/NY_2731/IMG_2_2731.jpg"",""SV_PolicingMSA/NY_2731/IMG_9_2731.jpg"",""SV_PolicingMSA/NY_2731/IMG_3_2731.jpg"",""SV_PolicingMSA/NY_2731/IMG_11_2731.jpg"",""SV_PolicingMSA/NY_2731/IMG_5_2731.jpg"",""SV_PolicingMSA/NY_2731/IMG_8_2731.jpg"",""SV_PolicingMSA/NY_2731/IMG_12_2731.jpg"",""SV_PolicingMSA/NY_2731/IMG_10_2731.jpg""]","4","","","","","","3","","4","[""./rc_img/cop_condGroup_2_CommunitySafety_autoscaled.png"",""./rc_img/cop_condGroup_2_SafeStreets_autoscaled.png""]","4",""
"sliderTrial","html-slider-response","88","616504","0.0-88.0","","656776a7904ae00d6b91d1dd","6568ae30b7219c39f9640f82","11","","","","","","","","","","","","2908","[""SV_PolicingMSA/NY_2731/IMG_2_2731.jpg"",""SV_PolicingMSA/NY_2731/IMG_9_2731.jpg"",""SV_PolicingMSA/NY_2731/IMG_3_2731.jpg"",""SV_PolicingMSA/NY_2731/IMG_11_2731.jpg"",""SV_PolicingMSA/NY_2731/IMG_5_2731.jpg"",""SV_PolicingMSA/NY_2731/IMG_8_2731.jpg"",""SV_PolicingMSA/NY_2731/IMG_12_2731.jpg"",""SV_PolicingMSA/NY_2731/IMG_10_2731.jpg""]","4","","","","","","3","","4","[""./rc_img/cop_condGroup_17_SafeStreets_autoscaled.png"",""./rc_img/cop_condGroup_17_CommunitySafety_autoscaled.png""]","4",""
"sliderTrial","html-slider-response","89","618761","0.0-89.0","","656776a7904ae00d6b91d1dd","6568ae30b7219c39f9640f82","11","","","","","","","","","","","","2256","[""SV_PolicingMSA/NY_2731/IMG_2_2731.jpg"",""SV_PolicingMSA/NY_2731/IMG_9_2731.jpg"",""SV_PolicingMSA/NY_2731/IMG_3_2731.jpg"",""SV_PolicingMSA/NY_2731/IMG_11_2731.jpg"",""SV_PolicingMSA/NY_2731/IMG_5_2731.jpg"",""SV_PolicingMSA/NY_2731/IMG_8_2731.jpg"",""SV_PolicingMSA/NY_2731/IMG_12_2731.jpg"",""SV_PolicingMSA/NY_2731/IMG_10_2731.jpg""]","4","","","","","","3","","4","[""./rc_img/cop_condGroup_14_SafeStreets_autoscaled.png"",""./rc_img/cop_condGroup_14_CommunitySafety_autoscaled.png""]","4",""
"sliderTrial","html-slider-response","90","621435","0.0-90.0","","656776a7904ae00d6b91d1dd","6568ae30b7219c39f9640f82","11","","","","","","","","","","","","2673","[""SV_PolicingMSA/NY_2731/IMG_2_2731.jpg"",""SV_PolicingMSA/NY_2731/IMG_9_2731.jpg"",""SV_PolicingMSA/NY_2731/IMG_3_2731.jpg"",""SV_PolicingMSA/NY_2731/IMG_11_2731.jpg"",""SV_PolicingMSA/NY_2731/IMG_5_2731.jpg"",""SV_PolicingMSA/NY_2731/IMG_8_2731.jpg"",""SV_PolicingMSA/NY_2731/IMG_12_2731.jpg"",""SV_PolicingMSA/NY_2731/IMG_10_2731.jpg""]","4","","","","","","3","","4","[""./rc_img/cop_condGroup_1_SafeStreets_autoscaled.png"",""./rc_img/cop_condGroup_1_CommunitySafety_autoscaled.png""]","4",""
"sliderTrial","html-slider-response","91","624388","0.0-91.0","","656776a7904ae00d6b91d1dd","6568ae30b7219c39f9640f82","11","","","","","","","","","","","","2952","[""SV_PolicingMSA/NY_2731/IMG_2_2731.jpg"",""SV_PolicingMSA/NY_2731/IMG_9_2731.jpg"",""SV_PolicingMSA/NY_2731/IMG_3_2731.jpg"",""SV_PolicingMSA/NY_2731/IMG_11_2731.jpg"",""SV_PolicingMSA/NY_2731/IMG_5_2731.jpg"",""SV_PolicingMSA/NY_2731/IMG_8_2731.jpg"",""SV_PolicingMSA/NY_2731/IMG_12_2731.jpg"",""SV_PolicingMSA/NY_2731/IMG_10_2731.jpg""]","4","","","","","","3","","4","[""./rc_img/cop_condGroup_6_CommunitySafety_autoscaled.png"",""./rc_img/cop_condGroup_6_SafeStreets_autoscaled.png""]","4",""
"before_SVSlide_prompt","html-button-response","92","628437","0.0-92.0","","656776a7904ae00d6b91d1dd","6568ae30b7219c39f9640f82","11","","","","","","","","","","","","4048","Click [Next] to see the next neighborhood!","0","","","","","","","","","","",""
"street view slide show","image-button-response","93","629453","0.0-93.0","","656776a7904ae00d6b91d1dd","6568ae30b7219c39f9640f82","11","","","","","","","","","","","","null","stimulus/SV_PolicingMSA/NY_2726/IMG_11_2726.jpg","null","","","","","","2","","","","",""
"street view slide show","image-button-response","94","630467","0.0-94.0","","656776a7904ae00d6b91d1dd","6568ae30b7219c39f9640f82","11","","","","","","","","","","","","null","stimulus/SV_PolicingMSA/NY_2726/IMG_14_2726.jpg","null","","","","","","2","","","","",""
"street view slide show","image-button-response","95","631484","0.0-95.0","","656776a7904ae00d6b91d1dd","6568ae30b7219c39f9640f82","11","","","","","","","","","","","","null","stimulus/SV_PolicingMSA/NY_2726/IMG_3_2726.jpg","null","","","","","","2","","","","",""
"street view slide show","image-button-response","96","632500","0.0-96.0","","656776a7904ae00d6b91d1dd","6568ae30b7219c39f9640f82","11","","","","","","","","","","","","null","stimulus/SV_PolicingMSA/NY_2726/IMG_1_2726.jpg","null","","","","","","2","","","","",""
"street view slide show","image-button-response","97","633518","0.0-97.0","","656776a7904ae00d6b91d1dd","6568ae30b7219c39f9640f82","11","","","","","","","","","","","","null","stimulus/SV_PolicingMSA/NY_2726/IMG_10_2726.jpg","null","","","","","","2","","","","",""
"street view slide show","image-button-response","98","634525","0.0-98.0","","656776a7904ae00d6b91d1dd","6568ae30b7219c39f9640f82","11","","","","","","","","","","","","null","stimulus/SV_PolicingMSA/NY_2726/IMG_12_2726.jpg","null","","","","","","2","","","","",""
"street view slide show","image-button-response","99","635540","0.0-99.0","","656776a7904ae00d6b91d1dd","6568ae30b7219c39f9640f82","11","","","","","","","","","","","","null","stimulus/SV_PolicingMSA/NY_2726/IMG_7_2726.jpg","null","","","","","","2","","","","",""
"street view slide show","image-button-response","100","636555","0.0-100.0","","656776a7904ae00d6b91d1dd","6568ae30b7219c39f9640f82","11","","","","","","","","","","","","null","stimulus/SV_PolicingMSA/NY_2726/IMG_2_2726.jpg","null","","","","","","2","","","","",""
"dot matrix survey1","survey","101","655777","0.0-101.0","","656776a7904ae00d6b91d1dd","6568ae30b7219c39f9640f82","11","","","","","","","","","","","","19201","","{""P0_Q0"":null,""P0_Q1"":{""wealthy"":1,""safe"":2,""walkable"":2,""traditional"":2,""diverse"":1}}","","","","","","2","[]","","","",""
"dot matrix survey2","survey","102","668951","0.0-102.0","","656776a7904ae00d6b91d1dd","6568ae30b7219c39f9640f82","11","","","","","","","","","","","","13168","","{""P0_Q0"":null,""P0_Q1"":{""violence"":2,""crime"":2,""drug"":2,""schools"":2,""opportunities"":1}}","","","","","","2","[]","","","",""
"dot matrix survey3","survey","103","689370","0.0-103.0","","656776a7904ae00d6b91d1dd","6568ae30b7219c39f9640f82","11","","","","","","","","","","","","20414","","{""P0_Q0"":null,""P0_Q1"":{""movein"":1,""moveout"":2,""shopping"":2,""walk"":1,""park"":1,""school"":2}}","","","","","","2","[]","","","",""
"sliderTrial","html-slider-response","104","696659","0.0-104.0","","656776a7904ae00d6b91d1dd","6568ae30b7219c39f9640f82","11","","","","","","","","","","","","7288","[""SV_PolicingMSA/NY_2726/IMG_11_2726.jpg"",""SV_PolicingMSA/NY_2726/IMG_14_2726.jpg"",""SV_PolicingMSA/NY_2726/IMG_3_2726.jpg"",""SV_PolicingMSA/NY_2726/IMG_1_2726.jpg"",""SV_PolicingMSA/NY_2726/IMG_10_2726.jpg"",""SV_PolicingMSA/NY_2726/IMG_12_2726.jpg"",""SV_PolicingMSA/NY_2726/IMG_7_2726.jpg"",""SV_PolicingMSA/NY_2726/IMG_2_2726.jpg""]","3","","","","","","2","","4","[""./rc_img/cop_condGroup_9_CommunitySafety_autoscaled.png"",""./rc_img/cop_condGroup_9_SafeStreets_autoscaled.png""]","3",""
"sliderTrial","html-slider-response","105","700093","0.0-105.0","","656776a7904ae00d6b91d1dd","6568ae30b7219c39f9640f82","11","","","","","","","","","","","","3433","[""SV_PolicingMSA/NY_2726/IMG_11_2726.jpg"",""SV_PolicingMSA/NY_2726/IMG_14_2726.jpg"",""SV_PolicingMSA/NY_2726/IMG_3_2726.jpg"",""SV_PolicingMSA/NY_2726/IMG_1_2726.jpg"",""SV_PolicingMSA/NY_2726/IMG_10_2726.jpg"",""SV_PolicingMSA/NY_2726/IMG_12_2726.jpg"",""SV_PolicingMSA/NY_2726/IMG_7_2726.jpg"",""SV_PolicingMSA/NY_2726/IMG_2_2726.jpg""]","5","","","","","","2","","4","[""./rc_img/cop_condGroup_8_SafeStreets_autoscaled.png"",""./rc_img/cop_condGroup_8_CommunitySafety_autoscaled.png""]","3",""
"sliderTrial","html-slider-response","106","702716","0.0-106.0","","656776a7904ae00d6b91d1dd","6568ae30b7219c39f9640f82","11","","","","","","","","","","","","2622","[""SV_PolicingMSA/NY_2726/IMG_11_2726.jpg"",""SV_PolicingMSA/NY_2726/IMG_14_2726.jpg"",""SV_PolicingMSA/NY_2726/IMG_3_2726.jpg"",""SV_PolicingMSA/NY_2726/IMG_1_2726.jpg"",""SV_PolicingMSA/NY_2726/IMG_10_2726.jpg"",""SV_PolicingMSA/NY_2726/IMG_12_2726.jpg"",""SV_PolicingMSA/NY_2726/IMG_7_2726.jpg"",""SV_PolicingMSA/NY_2726/IMG_2_2726.jpg""]","5","","","","","","2","","4","[""./rc_img/cop_condGroup_19_SafeStreets_autoscaled.png"",""./rc_img/cop_condGroup_19_CommunitySafety_autoscaled.png""]","3",""
"sliderTrial","html-slider-response","107","706637","0.0-107.0","","656776a7904ae00d6b91d1dd","6568ae30b7219c39f9640f82","11","","","","","","","","","","","","3920","[""SV_PolicingMSA/NY_2726/IMG_11_2726.jpg"",""SV_PolicingMSA/NY_2726/IMG_14_2726.jpg"",""SV_PolicingMSA/NY_2726/IMG_3_2726.jpg"",""SV_PolicingMSA/NY_2726/IMG_1_2726.jpg"",""SV_PolicingMSA/NY_2726/IMG_10_2726.jpg"",""SV_PolicingMSA/NY_2726/IMG_12_2726.jpg"",""SV_PolicingMSA/NY_2726/IMG_7_2726.jpg"",""SV_PolicingMSA/NY_2726/IMG_2_2726.jpg""]","4","","","","","","2","","4","[""./rc_img/cop_condGroup_13_SafeStreets_autoscaled.png"",""./rc_img/cop_condGroup_13_CommunitySafety_autoscaled.png""]","4",""
"sliderTrial","html-slider-response","108","710815","0.0-108.0","","656776a7904ae00d6b91d1dd","6568ae30b7219c39f9640f82","11","","","","","","","","","","","","4177","[""SV_PolicingMSA/NY_2726/IMG_11_2726.jpg"",""SV_PolicingMSA/NY_2726/IMG_14_2726.jpg"",""SV_PolicingMSA/NY_2726/IMG_3_2726.jpg"",""SV_PolicingMSA/NY_2726/IMG_1_2726.jpg"",""SV_PolicingMSA/NY_2726/IMG_10_2726.jpg"",""SV_PolicingMSA/NY_2726/IMG_12_2726.jpg"",""SV_PolicingMSA/NY_2726/IMG_7_2726.jpg"",""SV_PolicingMSA/NY_2726/IMG_2_2726.jpg""]","3","","","","","","2","","4","[""./rc_img/cop_condGroup_10_CommunitySafety_autoscaled.png"",""./rc_img/cop_condGroup_10_SafeStreets_autoscaled.png""]","3",""
"before_SVSlide_prompt","html-button-response","109","713305","0.0-109.0","","656776a7904ae00d6b91d1dd","6568ae30b7219c39f9640f82","11","","","","","","","","","","","","2489","Click [Next] to see the next neighborhood!","0","","","","","","","","","","",""
"street view slide show","image-button-response","110","714317","0.0-110.0","","656776a7904ae00d6b91d1dd","6568ae30b7219c39f9640f82","11","","","","","","","","","","","","null","stimulus/SV_PolicingMSA/NY_5249/IMG_1_5249.jpg","null","","","","","","1","","","","",""
"street view slide show","image-button-response","111","715321","0.0-111.0","","656776a7904ae00d6b91d1dd","6568ae30b7219c39f9640f82","11","","","","","","","","","","","","null","stimulus/SV_PolicingMSA/NY_5249/IMG_7_5249.jpg","null","","","","","","1","","","","",""
"street view slide show","image-button-response","112","716336","0.0-112.0","","656776a7904ae00d6b91d1dd","6568ae30b7219c39f9640f82","11","","","","","","","","","","","","null","stimulus/SV_PolicingMSA/NY_5249/IMG_8_5249.jpg","null","","","","","","1","","","","",""
"street view slide show","image-button-response","113","717339","0.0-113.0","","656776a7904ae00d6b91d1dd","6568ae30b7219c39f9640f82","11","","","","","","","","","","","","null","stimulus/SV_PolicingMSA/NY_5249/IMG_11_5249.jpg","null","","","","","","1","","","","",""
"street view slide show","image-button-response","114","718355","0.0-114.0","","656776a7904ae00d6b91d1dd","6568ae30b7219c39f9640f82","11","","","","","","","","","","","","null","stimulus/SV_PolicingMSA/NY_5249/IMG_10_5249.jpg","null","","","","","","1","","","","",""
"street view slide show","image-button-response","115","719359","0.0-115.0","","656776a7904ae00d6b91d1dd","6568ae30b7219c39f9640f82","11","","","","","","","","","","","","null","stimulus/SV_PolicingMSA/NY_5249/IMG_0_5249.jpg","null","","","","","","1","","","","",""
"street view slide show","image-button-response","116","720374","0.0-116.0","","656776a7904ae00d6b91d1dd","6568ae30b7219c39f9640f82","11","","","","","","","","","","","","null","stimulus/SV_PolicingMSA/NY_5249/IMG_4_5249.jpg","null","","","","","","1","","","","",""
"street view slide show","image-button-response","117","721377","0.0-117.0","","656776a7904ae00d6b91d1dd","6568ae30b7219c39f9640f82","11","","","","","","","","","","","","null","stimulus/SV_PolicingMSA/NY_5249/IMG_9_5249.jpg","null","","","","","","1","","","","",""
"dot matrix survey1","survey","118","738729","0.0-118.0","","656776a7904ae00d6b91d1dd","6568ae30b7219c39f9640f82","11","","","","","","","","","","","","17314","","{""P0_Q0"":null,""P0_Q1"":{""wealthy"":2,""safe"":2,""walkable"":2,""traditional"":3,""diverse"":2}}","","","","","","1","[]","","","",""
"dot matrix survey2","survey","119","755009","0.0-119.0","","656776a7904ae00d6b91d1dd","6568ae30b7219c39f9640f82","11","","","","","","","","","","","","16275","","{""P0_Q0"":null,""P0_Q1"":{""violence"":1,""crime"":1,""drug"":2,""schools"":2,""opportunities"":3}}","","","","","","1","[]","","","",""
"dot matrix survey3","survey","120","773052","0.0-120.0","","656776a7904ae00d6b91d1dd","6568ae30b7219c39f9640f82","11","","","","","","","","","","","","18037","","{""P0_Q0"":null,""P0_Q1"":{""movein"":2,""moveout"":1,""shopping"":2,""walk"":1,""park"":2,""school"":2}}","","","","","","1","[]","","","",""
"sliderTrial_attention","html-slider-response","121","783065","0.0-121.0","","656776a7904ae00d6b91d1dd","6568ae30b7219c39f9640f82","11","","","","","","","","","","","","null","[""SV_PolicingMSA/NY_5249/IMG_1_5249.jpg"",""SV_PolicingMSA/NY_5249/IMG_7_5249.jpg"",""SV_PolicingMSA/NY_5249/IMG_8_5249.jpg"",""SV_PolicingMSA/NY_5249/IMG_11_5249.jpg"",""SV_PolicingMSA/NY_5249/IMG_10_5249.jpg"",""SV_PolicingMSA/NY_5249/IMG_0_5249.jpg"",""SV_PolicingMSA/NY_5249/IMG_4_5249.jpg"",""SV_PolicingMSA/NY_5249/IMG_9_5249.jpg""]","null","","","","","","1","","4","[""./assets/img/attnchk.png"",""./assets/img/attnchk.png""]","","true"
"sliderTrial","html-slider-response","122","797544","0.0-122.0","","656776a7904ae00d6b91d1dd","6568ae30b7219c39f9640f82","11","","","","","","","","","","","","14473","[""SV_PolicingMSA/NY_5249/IMG_1_5249.jpg"",""SV_PolicingMSA/NY_5249/IMG_7_5249.jpg"",""SV_PolicingMSA/NY_5249/IMG_8_5249.jpg"",""SV_PolicingMSA/NY_5249/IMG_11_5249.jpg"",""SV_PolicingMSA/NY_5249/IMG_10_5249.jpg"",""SV_PolicingMSA/NY_5249/IMG_0_5249.jpg"",""SV_PolicingMSA/NY_5249/IMG_4_5249.jpg"",""SV_PolicingMSA/NY_5249/IMG_9_5249.jpg""]","4","","","","","","1","","4","[""./rc_img/cop_condGroup_18_SafeStreets_autoscaled.png"",""./rc_img/cop_condGroup_18_CommunitySafety_autoscaled.png""]","4",""
"sliderTrial","html-slider-response","123","812628","0.0-123.0","","656776a7904ae00d6b91d1dd","6568ae30b7219c39f9640f82","11","","","","","","","","","","","","15082","[""SV_PolicingMSA/NY_5249/IMG_1_5249.jpg"",""SV_PolicingMSA/NY_5249/IMG_7_5249.jpg"",""SV_PolicingMSA/NY_5249/IMG_8_5249.jpg"",""SV_PolicingMSA/NY_5249/IMG_11_5249.jpg"",""SV_PolicingMSA/NY_5249/IMG_10_5249.jpg"",""SV_PolicingMSA/NY_5249/IMG_0_5249.jpg"",""SV_PolicingMSA/NY_5249/IMG_4_5249.jpg"",""SV_PolicingMSA/NY_5249/IMG_9_5249.jpg""]","5","","","","","","1","","4","[""./rc_img/cop_condGroup_12_SafeStreets_autoscaled.png"",""./rc_img/cop_condGroup_12_CommunitySafety_autoscaled.png""]","3",""
"sliderTrial","html-slider-response","124","817517","0.0-124.0","","656776a7904ae00d6b91d1dd","6568ae30b7219c39f9640f82","11","","","","","","","","","","","","4888","[""SV_PolicingMSA/NY_5249/IMG_1_5249.jpg"",""SV_PolicingMSA/NY_5249/IMG_7_5249.jpg"",""SV_PolicingMSA/NY_5249/IMG_8_5249.jpg"",""SV_PolicingMSA/NY_5249/IMG_11_5249.jpg"",""SV_PolicingMSA/NY_5249/IMG_10_5249.jpg"",""SV_PolicingMSA/NY_5249/IMG_0_5249.jpg"",""SV_PolicingMSA/NY_5249/IMG_4_5249.jpg"",""SV_PolicingMSA/NY_5249/IMG_9_5249.jpg""]","5","","","","","","1","","4","[""./rc_img/cop_condGroup_7_SafeStreets_autoscaled.png"",""./rc_img/cop_condGroup_7_CommunitySafety_autoscaled.png""]","3",""
"sliderTrial","html-slider-response","125","821294","0.0-125.0","","656776a7904ae00d6b91d1dd","6568ae30b7219c39f9640f82","11","","","","","","","","","","","","3776","[""SV_PolicingMSA/NY_5249/IMG_1_5249.jpg"",""SV_PolicingMSA/NY_5249/IMG_7_5249.jpg"",""SV_PolicingMSA/NY_5249/IMG_8_5249.jpg"",""SV_PolicingMSA/NY_5249/IMG_11_5249.jpg"",""SV_PolicingMSA/NY_5249/IMG_10_5249.jpg"",""SV_PolicingMSA/NY_5249/IMG_0_5249.jpg"",""SV_PolicingMSA/NY_5249/IMG_4_5249.jpg"",""SV_PolicingMSA/NY_5249/IMG_9_5249.jpg""]","4","","","","","","1","","4","[""./rc_img/cop_condGroup_5_SafeStreets_autoscaled.png"",""./rc_img/cop_condGroup_5_CommunitySafety_autoscaled.png""]","4",""
"sliderTrial","html-slider-response","126","830367","0.0-126.0","","656776a7904ae00d6b91d1dd","6568ae30b7219c39f9640f82","11","","","","","","","","","","","","9072","[""SV_PolicingMSA/NY_5249/IMG_1_5249.jpg"",""SV_PolicingMSA/NY_5249/IMG_7_5249.jpg"",""SV_PolicingMSA/NY_5249/IMG_8_5249.jpg"",""SV_PolicingMSA/NY_5249/IMG_11_5249.jpg"",""SV_PolicingMSA/NY_5249/IMG_10_5249.jpg"",""SV_PolicingMSA/NY_5249/IMG_0_5249.jpg"",""SV_PolicingMSA/NY_5249/IMG_4_5249.jpg"",""SV_PolicingMSA/NY_5249/IMG_9_5249.jpg""]","4","","","","","","1","","4","[""./rc_img/cop_condGroup_15_CommunitySafety_autoscaled.png"",""./rc_img/cop_condGroup_15_SafeStreets_autoscaled.png""]","4",""
"before_SVSlide_prompt","html-button-response","127","833191","0.0-127.0","","656776a7904ae00d6b91d1dd","6568ae30b7219c39f9640f82","11","","","","","","","","","","","","2823","Click [Next] to see the next neighborhood!","0","","","","","","","","","","",""
"street view slide show","image-button-response","128","834200","0.0-128.0","","656776a7904ae00d6b91d1dd","6568ae30b7219c39f9640f82","11","","","","","","","","","","","","null","stimulus/SV_PolicingMSA/NJ_979/IMG_2_979.jpg","null","","","","","","0","","","","",""
"street view slide show","image-button-response","129","835206","0.0-129.0","","656776a7904ae00d6b91d1dd","6568ae30b7219c39f9640f82","11","","","","","","","","","","","","null","stimulus/SV_PolicingMSA/NJ_979/IMG_1_979.jpg","null","","","","","","0","","","","",""
"street view slide show","image-button-response","130","836221","0.0-130.0","","656776a7904ae00d6b91d1dd","6568ae30b7219c39f9640f82","11","","","","","","","","","","","","null","stimulus/SV_PolicingMSA/NJ_979/IMG_3_979.jpg","null","","","","","","0","","","","",""
"street view slide show","image-button-response","131","837239","0.0-131.0","","656776a7904ae00d6b91d1dd","6568ae30b7219c39f9640f82","11","","","","","","","","","","","","null","stimulus/SV_PolicingMSA/NJ_979/IMG_10_979.jpg","null","","","","","","0","","","","",""
"street view slide show","image-button-response","132","838257","0.0-132.0","","656776a7904ae00d6b91d1dd","6568ae30b7219c39f9640f82","11","","","","","","","","","","","","null","stimulus/SV_PolicingMSA/NJ_979/IMG_8_979.jpg","null","","","","","","0","","","","",""
"street view slide show","image-button-response","133","839276","0.0-133.0","","656776a7904ae00d6b91d1dd","6568ae30b7219c39f9640f82","11","","","","","","","","","","","","null","stimulus/SV_PolicingMSA/NJ_979/IMG_13_979.jpg","null","","","","","","0","","","","",""
"street view slide show","image-button-response","134","840292","0.0-134.0","","656776a7904ae00d6b91d1dd","6568ae30b7219c39f9640f82","11","","","","","","","","","","","","null","stimulus/SV_PolicingMSA/NJ_979/IMG_7_979.jpg","null","","","","","","0","","","","",""
"street view slide show","image-button-response","135","841297","0.0-135.0","","656776a7904ae00d6b91d1dd","6568ae30b7219c39f9640f82","11","","","","","","","","","","","","null","stimulus/SV_PolicingMSA/NJ_979/IMG_12_979.jpg","null","","","","","","0","","","","",""
"dot matrix survey1","survey","136","861136","0.0-136.0","","656776a7904ae00d6b91d1dd","6568ae30b7219c39f9640f82","11","","","","","","","","","","","","19814","","{""P0_Q0"":null,""P0_Q1"":{""wealthy"":1,""safe"":2,""walkable"":2,""traditional"":1,""diverse"":2}}","","","","","","0","[]","","","",""
"dot matrix survey2","survey","137","873161","0.0-137.0","","656776a7904ae00d6b91d1dd","6568ae30b7219c39f9640f82","11","","","","","","","","","","","","12020","","{""P0_Q0"":null,""P0_Q1"":{""violence"":2,""crime"":2,""drug"":2,""schools"":2,""opportunities"":2}}","","","","","","0","[]","","","",""
"dot matrix survey3","survey","138","889987","0.0-138.0","","656776a7904ae00d6b91d1dd","6568ae30b7219c39f9640f82","11","","","","","","","","","","","","16820","","{""P0_Q0"":null,""P0_Q1"":{""movein"":2,""moveout"":2,""shopping"":1,""walk"":1,""park"":1,""school"":2}}","","","","","","0","[]","","","",""
"sliderTrial_attention","html-slider-response","139","900004","0.0-139.0","","656776a7904ae00d6b91d1dd","6568ae30b7219c39f9640f82","11","","","","","","","","","","","","null","[""SV_PolicingMSA/NJ_979/IMG_2_979.jpg"",""SV_PolicingMSA/NJ_979/IMG_1_979.jpg"",""SV_PolicingMSA/NJ_979/IMG_3_979.jpg"",""SV_PolicingMSA/NJ_979/IMG_10_979.jpg"",""SV_PolicingMSA/NJ_979/IMG_8_979.jpg"",""SV_PolicingMSA/NJ_979/IMG_13_979.jpg"",""SV_PolicingMSA/NJ_979/IMG_7_979.jpg"",""SV_PolicingMSA/NJ_979/IMG_12_979.jpg""]","null","","","","","","0","","4","[""./assets/img/attnchk.png"",""./assets/img/attnchk.png""]","","true"
