"task","trial_type","trial_index","time_elapsed","internal_node_id","subject_id","study_id","session_id","section","width","height","webaudio","browser","browser_version","mobile","os","fullscreen","vsync_rate","webcam","microphone","rt","stimulus","response","success","timeout","failed_images","failed_audio","failed_video","block","accuracy","slider_start","choices","standardized_response","correct","num_attention_checks_correct"
"pavlovia-init","pavlovia","0","1008","0.0-0.0","","656776a7904ae00d6b91d1dd","6568a9ef36db0d5f2be75e1c","8","","","","","","","","","","","","","","","","","","","","","","","","","",""
"browser-check","browser-check","1","2016","0.0-1.0","","656776a7904ae00d6b91d1dd","6568a9ef36db0d5f2be75e1c","8","1600","783","true","chrome","119.0.0","false","Windows 10","true","59.96","false","true","","","","","","","","","","","","","","",""
"consent","html-button-response","2","11231","0.0-2.0","","656776a7904ae00d6b91d1dd","6568a9ef36db0d5f2be75e1c","8","","","","","","","","","","","","9212","
        <div style=""font-size: 80%; max-width:700px"">
            <h2>CONSENT FORM</h2>
        
            <div style=""text-align: left"">
            <h4>DESCRIPTION</h4>
            <p>
            You will complete a short task where you give your impressions of various neighborhoods and assign individuals to those spaces, and answer some questions about your thoughts and opinions.<br>
            The University of Michigan Institutional Review Board Health Sciences and Behavioral Sciences has determined that this study is exempt from IRB oversight.
            </p>

            <h4>TIME INVOLVEMENT</h4>
            <p>Your participation will take approximately 15 minutes. You will receive $3.15 upon completion of the study.</p>
        
            <h4>RISKS AND BENEFITS</h4>
            <p>
            The risks associated with this study are minimal. The benefits which may reasonably be expected to result from this study are none. We cannot and do not guarantee or promise that you will receive any benefits from this study.
            </p>
          
            <h4>SUBJECT'S RIGHTS</h4>
            <p>
            If you have read this form and have decided to participate in this project, please understand your participation is voluntary and you have the right to withdraw your consent or discontinue participation at any time without penalty or loss of benefits to which you are otherwise entitled. The alternative is not to participate. You have the right to refuse to answer particular questions. Your individual privacy will be maintained in all published and written data resulting from the study.
            </p>

            <h4>HUMAN SUBJECT APPROVAL</h4>
            <p>
            This study is exempt from ongoing IRB review.
            </p>

            <h4>CONTACT INFORMATION</h4>
            If you have any questions, concerns or complaints about this research, its procedures, risks and benefits, contact the Protocol Director, Nicholas Camp, npcamp@umich.edu, (443) 851-6783. <br>

            If you have questions about your rights as a research participant, or wish to obtain information, ask questions or discuss any concerns about this study with someone other than the researcher(s), please contact the following:<br><br>
            University of Michigan<br>
            Health Sciences and Behavioral Sciences Institutional Review Board (IRB-HSBS)<br>
            2800 Plymouth Road<br>
            Building 520, Room 1169Ann Arbor, MI 48109-2800<br>
            Telephone: 734-936-0933 or toll free (866) 936-0933<br>
            Fax: 734-936-1852<br>
            E-mail: irbhsbs@umich.edu<br><br>

            You can also contact the University of Michigan Compliance Hotline at 1-866-990-0111. You may also print this consent form to keep.
            <br><br>
            <div class=""alert alert-warning""><b>
            Do you consent to participate in this study? If you consent to participate in this study, please click “Accept and Continue”. If you select ""Decline and Exit"", you will be exited from the survey. <br>
            </b></div>
            </div>
        </div>
    ","1","","","","","","","","","","","",""
"","preload","3","16485","0.0-3.0","","656776a7904ae00d6b91d1dd","6568a9ef36db0d5f2be75e1c","8","","","","","","","","","","","","","","","true","false","[]","[]","[]","","","","","","",""
"instructions","html-button-response","4","66375","0.0-4.0","","656776a7904ae00d6b91d1dd","6568a9ef36db0d5f2be75e1c","8","","","","","","","","","","","","49889","
        <div class=""text-container"">
        <h1>Welcome to the study!</h1>
        
        <div class=""text-left"">
            <p>
                In this study, we are interested in what people can tell about spaces from Google Street View images. <br> Google Street View takes pictures of streets used for Google Earth and Google Maps. <br>You’ll see Google Street View images of different places and answer some questions about each one.<br>
            </p>
        </div>
        <img src = ""assets/img/example.png"" width = 500px, height = auto>
        <br>
    <br>
    ","0","","","","","","","","","","","",""
"instructions","html-button-response","5","69671","0.0-5.0","","656776a7904ae00d6b91d1dd","6568a9ef36db0d5f2be75e1c","8","","","","","","","","","","","","3295","
    <div class=""text-container"">
        <div class=""text-center"">
            <p>Please remember that your answers are completely anonymous.<br>Go with your gut response- there are no right or wrong answers!</p>
        </div>
    <br>
","0","","","","","","","","","","","",""
"before_SVSlide_prompt","html-button-response","6","71111","0.0-6.0","","656776a7904ae00d6b91d1dd","6568a9ef36db0d5f2be75e1c","8","","","","","","","","","","","","1439","Click [Next] to see the next neighborhood!","0","","","","","","","","","","","",""
"street view slide show","image-button-response","7","72120","0.0-7.0","","656776a7904ae00d6b91d1dd","6568a9ef36db0d5f2be75e1c","8","","","","","","","","","","","","null","stimulus/SV_PolicingMSA/TX_575/IMG_3_575.jpg","null","","","","","","3","","","","","",""
"street view slide show","image-button-response","8","73131","0.0-8.0","","656776a7904ae00d6b91d1dd","6568a9ef36db0d5f2be75e1c","8","","","","","","","","","","","","null","stimulus/SV_PolicingMSA/TX_575/IMG_12_575.jpg","null","","","","","","3","","","","","",""
"street view slide show","image-button-response","9","74147","0.0-9.0","","656776a7904ae00d6b91d1dd","6568a9ef36db0d5f2be75e1c","8","","","","","","","","","","","","null","stimulus/SV_PolicingMSA/TX_575/IMG_10_575.jpg","null","","","","","","3","","","","","",""
"street view slide show","image-button-response","10","75158","0.0-10.0","","656776a7904ae00d6b91d1dd","6568a9ef36db0d5f2be75e1c","8","","","","","","","","","","","","null","stimulus/SV_PolicingMSA/TX_575/IMG_5_575.jpg","null","","","","","","3","","","","","",""
"street view slide show","image-button-response","11","76170","0.0-11.0","","656776a7904ae00d6b91d1dd","6568a9ef36db0d5f2be75e1c","8","","","","","","","","","","","","null","stimulus/SV_PolicingMSA/TX_575/IMG_14_575.jpg","null","","","","","","3","","","","","",""
"street view slide show","image-button-response","12","77181","0.0-12.0","","656776a7904ae00d6b91d1dd","6568a9ef36db0d5f2be75e1c","8","","","","","","","","","","","","null","stimulus/SV_PolicingMSA/TX_575/IMG_9_575.jpg","null","","","","","","3","","","","","",""
"street view slide show","image-button-response","13","78194","0.0-13.0","","656776a7904ae00d6b91d1dd","6568a9ef36db0d5f2be75e1c","8","","","","","","","","","","","","null","stimulus/SV_PolicingMSA/TX_575/IMG_6_575.jpg","null","","","","","","3","","","","","",""
"street view slide show","image-button-response","14","79205","0.0-14.0","","656776a7904ae00d6b91d1dd","6568a9ef36db0d5f2be75e1c","8","","","","","","","","","","","","null","stimulus/SV_PolicingMSA/TX_575/IMG_4_575.jpg","null","","","","","","3","","","","","",""
"dot matrix survey1","survey","15","135494","0.0-15.0","","656776a7904ae00d6b91d1dd","6568a9ef36db0d5f2be75e1c","8","","","","","","","","","","","","56205","","{""P0_Q0"":null,""P0_Q1"":{""wealthy"":2,""safe"":2,""walkable"":0,""traditional"":4,""diverse"":2}}","","","","","","3","[]","","","","",""
"dot matrix survey2","survey","16","196428","0.0-16.0","","656776a7904ae00d6b91d1dd","6568a9ef36db0d5f2be75e1c","8","","","","","","","","","","","","60922","","{""P0_Q0"":null,""P0_Q1"":{""violence"":2,""crime"":1,""drug"":2,""schools"":1,""opportunities"":1}}","","","","","","3","[]","","","","",""
"dot matrix survey3","survey","17","236497","0.0-17.0","","656776a7904ae00d6b91d1dd","6568a9ef36db0d5f2be75e1c","8","","","","","","","","","","","","40058","","{""P0_Q0"":null,""P0_Q1"":{""movein"":1,""moveout"":3,""shopping"":1,""walk"":1,""park"":2,""school"":2}}","","","","","","3","[]","","","","",""
"sliderTrial","html-slider-response","18","267535","0.0-18.0","","656776a7904ae00d6b91d1dd","6568a9ef36db0d5f2be75e1c","8","","","","","","","","","","","","31037","[""SV_PolicingMSA/TX_575/IMG_3_575.jpg"",""SV_PolicingMSA/TX_575/IMG_12_575.jpg"",""SV_PolicingMSA/TX_575/IMG_10_575.jpg"",""SV_PolicingMSA/TX_575/IMG_5_575.jpg"",""SV_PolicingMSA/TX_575/IMG_14_575.jpg"",""SV_PolicingMSA/TX_575/IMG_9_575.jpg"",""SV_PolicingMSA/TX_575/IMG_6_575.jpg"",""SV_PolicingMSA/TX_575/IMG_4_575.jpg""]","4","","","","","","3","","4","[""./rc_img/cop_condGroup_8_CommunitySafety_autoscaled.png"",""./rc_img/cop_condGroup_8_SafeStreets_autoscaled.png""]","4","",""
"sliderTrial","html-slider-response","19","280695","0.0-19.0","","656776a7904ae00d6b91d1dd","6568a9ef36db0d5f2be75e1c","8","","","","","","","","","","","","13158","[""SV_PolicingMSA/TX_575/IMG_3_575.jpg"",""SV_PolicingMSA/TX_575/IMG_12_575.jpg"",""SV_PolicingMSA/TX_575/IMG_10_575.jpg"",""SV_PolicingMSA/TX_575/IMG_5_575.jpg"",""SV_PolicingMSA/TX_575/IMG_14_575.jpg"",""SV_PolicingMSA/TX_575/IMG_9_575.jpg"",""SV_PolicingMSA/TX_575/IMG_6_575.jpg"",""SV_PolicingMSA/TX_575/IMG_4_575.jpg""]","5","","","","","","3","","4","[""./rc_img/cop_condGroup_6_SafeStreets_autoscaled.png"",""./rc_img/cop_condGroup_6_CommunitySafety_autoscaled.png""]","3","",""
"sliderTrial","html-slider-response","20","290095","0.0-20.0","","656776a7904ae00d6b91d1dd","6568a9ef36db0d5f2be75e1c","8","","","","","","","","","","","","9398","[""SV_PolicingMSA/TX_575/IMG_3_575.jpg"",""SV_PolicingMSA/TX_575/IMG_12_575.jpg"",""SV_PolicingMSA/TX_575/IMG_10_575.jpg"",""SV_PolicingMSA/TX_575/IMG_5_575.jpg"",""SV_PolicingMSA/TX_575/IMG_14_575.jpg"",""SV_PolicingMSA/TX_575/IMG_9_575.jpg"",""SV_PolicingMSA/TX_575/IMG_6_575.jpg"",""SV_PolicingMSA/TX_575/IMG_4_575.jpg""]","4","","","","","","3","","4","[""./rc_img/cop_condGroup_11_CommunitySafety_autoscaled.png"",""./rc_img/cop_condGroup_11_SafeStreets_autoscaled.png""]","4","",""
"sliderTrial","html-slider-response","21","292616","0.0-21.0","","656776a7904ae00d6b91d1dd","6568a9ef36db0d5f2be75e1c","8","","","","","","","","","","","","2518","[""SV_PolicingMSA/TX_575/IMG_3_575.jpg"",""SV_PolicingMSA/TX_575/IMG_12_575.jpg"",""SV_PolicingMSA/TX_575/IMG_10_575.jpg"",""SV_PolicingMSA/TX_575/IMG_5_575.jpg"",""SV_PolicingMSA/TX_575/IMG_14_575.jpg"",""SV_PolicingMSA/TX_575/IMG_9_575.jpg"",""SV_PolicingMSA/TX_575/IMG_6_575.jpg"",""SV_PolicingMSA/TX_575/IMG_4_575.jpg""]","4","","","","","","3","","4","[""./rc_img/cop_condGroup_14_SafeStreets_autoscaled.png"",""./rc_img/cop_condGroup_14_CommunitySafety_autoscaled.png""]","4","",""
"sliderTrial","html-slider-response","22","296679","0.0-22.0","","656776a7904ae00d6b91d1dd","6568a9ef36db0d5f2be75e1c","8","","","","","","","","","","","","4061","[""SV_PolicingMSA/TX_575/IMG_3_575.jpg"",""SV_PolicingMSA/TX_575/IMG_12_575.jpg"",""SV_PolicingMSA/TX_575/IMG_10_575.jpg"",""SV_PolicingMSA/TX_575/IMG_5_575.jpg"",""SV_PolicingMSA/TX_575/IMG_14_575.jpg"",""SV_PolicingMSA/TX_575/IMG_9_575.jpg"",""SV_PolicingMSA/TX_575/IMG_6_575.jpg"",""SV_PolicingMSA/TX_575/IMG_4_575.jpg""]","4","","","","","","3","","4","[""./rc_img/cop_condGroup_15_SafeStreets_autoscaled.png"",""./rc_img/cop_condGroup_15_CommunitySafety_autoscaled.png""]","4","",""
"before_SVSlide_prompt","html-button-response","23","299375","0.0-23.0","","656776a7904ae00d6b91d1dd","6568a9ef36db0d5f2be75e1c","8","","","","","","","","","","","","2695","Click [Next] to see the next neighborhood!","0","","","","","","","","","","","",""
"street view slide show","image-button-response","24","300384","0.0-24.0","","656776a7904ae00d6b91d1dd","6568a9ef36db0d5f2be75e1c","8","","","","","","","","","","","","null","stimulus/SV_PolicingMSA/TX_576/IMG_10_576.jpg","null","","","","","","2","","","","","",""
"street view slide show","image-button-response","25","301400","0.0-25.0","","656776a7904ae00d6b91d1dd","6568a9ef36db0d5f2be75e1c","8","","","","","","","","","","","","null","stimulus/SV_PolicingMSA/TX_576/IMG_0_576.jpg","null","","","","","","2","","","","","",""
"street view slide show","image-button-response","26","302407","0.0-26.0","","656776a7904ae00d6b91d1dd","6568a9ef36db0d5f2be75e1c","8","","","","","","","","","","","","null","stimulus/SV_PolicingMSA/TX_576/IMG_7_576.jpg","null","","","","","","2","","","","","",""
"street view slide show","image-button-response","27","303419","0.0-27.0","","656776a7904ae00d6b91d1dd","6568a9ef36db0d5f2be75e1c","8","","","","","","","","","","","","null","stimulus/SV_PolicingMSA/TX_576/IMG_6_576.jpg","null","","","","","","2","","","","","",""
"street view slide show","image-button-response","28","304430","0.0-28.0","","656776a7904ae00d6b91d1dd","6568a9ef36db0d5f2be75e1c","8","","","","","","","","","","","","null","stimulus/SV_PolicingMSA/TX_576/IMG_5_576.jpg","null","","","","","","2","","","","","",""
"street view slide show","image-button-response","29","305443","0.0-29.0","","656776a7904ae00d6b91d1dd","6568a9ef36db0d5f2be75e1c","8","","","","","","","","","","","","null","stimulus/SV_PolicingMSA/TX_576/IMG_13_576.jpg","null","","","","","","2","","","","","",""
"street view slide show","image-button-response","30","306450","0.0-30.0","","656776a7904ae00d6b91d1dd","6568a9ef36db0d5f2be75e1c","8","","","","","","","","","","","","null","stimulus/SV_PolicingMSA/TX_576/IMG_1_576.jpg","null","","","","","","2","","","","","",""
"street view slide show","image-button-response","31","307465","0.0-31.0","","656776a7904ae00d6b91d1dd","6568a9ef36db0d5f2be75e1c","8","","","","","","","","","","","","null","stimulus/SV_PolicingMSA/TX_576/IMG_11_576.jpg","null","","","","","","2","","","","","",""
"dot matrix survey1","survey","32","361262","0.0-32.0","","656776a7904ae00d6b91d1dd","6568a9ef36db0d5f2be75e1c","8","","","","","","","","","","","","53766","","{""P0_Q0"":null,""P0_Q1"":{""wealthy"":2,""safe"":2,""walkable"":2,""traditional"":2,""diverse"":1}}","","","","","","2","[]","","","","",""
"dot matrix survey2","survey","33","386564","0.0-33.0","","656776a7904ae00d6b91d1dd","6568a9ef36db0d5f2be75e1c","8","","","","","","","","","","","","25290","","{""P0_Q0"":null,""P0_Q1"":{""violence"":2,""crime"":2,""drug"":2,""schools"":2,""opportunities"":2}}","","","","","","2","[]","","","","",""
"dot matrix survey3","survey","34","413005","0.0-34.0","","656776a7904ae00d6b91d1dd","6568a9ef36db0d5f2be75e1c","8","","","","","","","","","","","","26430","","{""P0_Q0"":null,""P0_Q1"":{""movein"":2,""moveout"":2,""shopping"":1,""walk"":1,""park"":2,""school"":2}}","","","","","","2","[]","","","","",""
"sliderTrial","html-slider-response","35","417780","0.0-35.0","","656776a7904ae00d6b91d1dd","6568a9ef36db0d5f2be75e1c","8","","","","","","","","","","","","4773","[""SV_PolicingMSA/TX_576/IMG_10_576.jpg"",""SV_PolicingMSA/TX_576/IMG_0_576.jpg"",""SV_PolicingMSA/TX_576/IMG_7_576.jpg"",""SV_PolicingMSA/TX_576/IMG_6_576.jpg"",""SV_PolicingMSA/TX_576/IMG_5_576.jpg"",""SV_PolicingMSA/TX_576/IMG_13_576.jpg"",""SV_PolicingMSA/TX_576/IMG_1_576.jpg"",""SV_PolicingMSA/TX_576/IMG_11_576.jpg""]","4","","","","","","2","","4","[""./rc_img/cop_condGroup_4_CommunitySafety_autoscaled.png"",""./rc_img/cop_condGroup_4_SafeStreets_autoscaled.png""]","4","",""
"sliderTrial","html-slider-response","36","420572","0.0-36.0","","656776a7904ae00d6b91d1dd","6568a9ef36db0d5f2be75e1c","8","","","","","","","","","","","","2790","[""SV_PolicingMSA/TX_576/IMG_10_576.jpg"",""SV_PolicingMSA/TX_576/IMG_0_576.jpg"",""SV_PolicingMSA/TX_576/IMG_7_576.jpg"",""SV_PolicingMSA/TX_576/IMG_6_576.jpg"",""SV_PolicingMSA/TX_576/IMG_5_576.jpg"",""SV_PolicingMSA/TX_576/IMG_13_576.jpg"",""SV_PolicingMSA/TX_576/IMG_1_576.jpg"",""SV_PolicingMSA/TX_576/IMG_11_576.jpg""]","4","","","","","","2","","4","[""./rc_img/cop_condGroup_12_CommunitySafety_autoscaled.png"",""./rc_img/cop_condGroup_12_SafeStreets_autoscaled.png""]","4","",""
"sliderTrial","html-slider-response","37","425796","0.0-37.0","","656776a7904ae00d6b91d1dd","6568a9ef36db0d5f2be75e1c","8","","","","","","","","","","","","5222","[""SV_PolicingMSA/TX_576/IMG_10_576.jpg"",""SV_PolicingMSA/TX_576/IMG_0_576.jpg"",""SV_PolicingMSA/TX_576/IMG_7_576.jpg"",""SV_PolicingMSA/TX_576/IMG_6_576.jpg"",""SV_PolicingMSA/TX_576/IMG_5_576.jpg"",""SV_PolicingMSA/TX_576/IMG_13_576.jpg"",""SV_PolicingMSA/TX_576/IMG_1_576.jpg"",""SV_PolicingMSA/TX_576/IMG_11_576.jpg""]","4","","","","","","2","","4","[""./rc_img/cop_condGroup_18_CommunitySafety_autoscaled.png"",""./rc_img/cop_condGroup_18_SafeStreets_autoscaled.png""]","4","",""
"sliderTrial","html-slider-response","38","427613","0.0-38.0","","656776a7904ae00d6b91d1dd","6568a9ef36db0d5f2be75e1c","8","","","","","","","","","","","","1813","[""SV_PolicingMSA/TX_576/IMG_10_576.jpg"",""SV_PolicingMSA/TX_576/IMG_0_576.jpg"",""SV_PolicingMSA/TX_576/IMG_7_576.jpg"",""SV_PolicingMSA/TX_576/IMG_6_576.jpg"",""SV_PolicingMSA/TX_576/IMG_5_576.jpg"",""SV_PolicingMSA/TX_576/IMG_13_576.jpg"",""SV_PolicingMSA/TX_576/IMG_1_576.jpg"",""SV_PolicingMSA/TX_576/IMG_11_576.jpg""]","4","","","","","","2","","4","[""./rc_img/cop_condGroup_1_SafeStreets_autoscaled.png"",""./rc_img/cop_condGroup_1_CommunitySafety_autoscaled.png""]","4","",""
"sliderTrial","html-slider-response","39","429572","0.0-39.0","","656776a7904ae00d6b91d1dd","6568a9ef36db0d5f2be75e1c","8","","","","","","","","","","","","1958","[""SV_PolicingMSA/TX_576/IMG_10_576.jpg"",""SV_PolicingMSA/TX_576/IMG_0_576.jpg"",""SV_PolicingMSA/TX_576/IMG_7_576.jpg"",""SV_PolicingMSA/TX_576/IMG_6_576.jpg"",""SV_PolicingMSA/TX_576/IMG_5_576.jpg"",""SV_PolicingMSA/TX_576/IMG_13_576.jpg"",""SV_PolicingMSA/TX_576/IMG_1_576.jpg"",""SV_PolicingMSA/TX_576/IMG_11_576.jpg""]","4","","","","","","2","","4","[""./rc_img/cop_condGroup_2_SafeStreets_autoscaled.png"",""./rc_img/cop_condGroup_2_CommunitySafety_autoscaled.png""]","4","",""
"before_SVSlide_prompt","html-button-response","40","431228","0.0-40.0","","656776a7904ae00d6b91d1dd","6568a9ef36db0d5f2be75e1c","8","","","","","","","","","","","","1655","Click [Next] to see the next neighborhood!","0","","","","","","","","","","","",""
"street view slide show","image-button-response","41","432239","0.0-41.0","","656776a7904ae00d6b91d1dd","6568a9ef36db0d5f2be75e1c","8","","","","","","","","","","","","null","stimulus/SV_PolicingMSA/TX_109/IMG_7_109.jpg","null","","","","","","3","","","","","",""
"street view slide show","image-button-response","42","433249","0.0-42.0","","656776a7904ae00d6b91d1dd","6568a9ef36db0d5f2be75e1c","8","","","","","","","","","","","","null","stimulus/SV_PolicingMSA/TX_109/IMG_3_109.jpg","null","","","","","","3","","","","","",""
"street view slide show","image-button-response","43","434265","0.0-43.0","","656776a7904ae00d6b91d1dd","6568a9ef36db0d5f2be75e1c","8","","","","","","","","","","","","null","stimulus/SV_PolicingMSA/TX_109/IMG_10_109.jpg","null","","","","","","3","","","","","",""
"street view slide show","image-button-response","44","435272","0.0-44.0","","656776a7904ae00d6b91d1dd","6568a9ef36db0d5f2be75e1c","8","","","","","","","","","","","","null","stimulus/SV_PolicingMSA/TX_109/IMG_0_109.jpg","null","","","","","","3","","","","","",""
"street view slide show","image-button-response","45","436282","0.0-45.0","","656776a7904ae00d6b91d1dd","6568a9ef36db0d5f2be75e1c","8","","","","","","","","","","","","null","stimulus/SV_PolicingMSA/TX_109/IMG_4_109.jpg","null","","","","","","3","","","","","",""
"street view slide show","image-button-response","46","437287","0.0-46.0","","656776a7904ae00d6b91d1dd","6568a9ef36db0d5f2be75e1c","8","","","","","","","","","","","","null","stimulus/SV_PolicingMSA/TX_109/IMG_13_109.jpg","null","","","","","","3","","","","","",""
"street view slide show","image-button-response","47","438299","0.0-47.0","","656776a7904ae00d6b91d1dd","6568a9ef36db0d5f2be75e1c","8","","","","","","","","","","","","null","stimulus/SV_PolicingMSA/TX_109/IMG_6_109.jpg","null","","","","","","3","","","","","",""
"street view slide show","image-button-response","48","439310","0.0-48.0","","656776a7904ae00d6b91d1dd","6568a9ef36db0d5f2be75e1c","8","","","","","","","","","","","","null","stimulus/SV_PolicingMSA/TX_109/IMG_14_109.jpg","null","","","","","","3","","","","","",""
"dot matrix survey1","survey","49","468963","0.0-49.0","","656776a7904ae00d6b91d1dd","6568a9ef36db0d5f2be75e1c","8","","","","","","","","","","","","29614","","{""P0_Q0"":null,""P0_Q1"":{""wealthy"":1,""safe"":1,""walkable"":0,""traditional"":2,""diverse"":1}}","","","","","","3","[]","","","","",""
"dot matrix survey2","survey","50","486596","0.0-50.0","","656776a7904ae00d6b91d1dd","6568a9ef36db0d5f2be75e1c","8","","","","","","","","","","","","17626","","{""P0_Q0"":null,""P0_Q1"":{""violence"":3,""crime"":3,""drug"":3,""schools"":1,""opportunities"":1}}","","","","","","3","[]","","","","",""
"dot matrix survey3","survey","51","517663","0.0-51.0","","656776a7904ae00d6b91d1dd","6568a9ef36db0d5f2be75e1c","8","","","","","","","","","","","","31057","","{""P0_Q0"":null,""P0_Q1"":{""movein"":0,""moveout"":4,""shopping"":0,""walk"":0,""park"":0,""school"":0}}","","","","","","3","[]","","","","",""
"sliderTrial","html-slider-response","52","520271","0.0-52.0","","656776a7904ae00d6b91d1dd","6568a9ef36db0d5f2be75e1c","8","","","","","","","","","","","","2606","[""SV_PolicingMSA/TX_109/IMG_7_109.jpg"",""SV_PolicingMSA/TX_109/IMG_3_109.jpg"",""SV_PolicingMSA/TX_109/IMG_10_109.jpg"",""SV_PolicingMSA/TX_109/IMG_0_109.jpg"",""SV_PolicingMSA/TX_109/IMG_4_109.jpg"",""SV_PolicingMSA/TX_109/IMG_13_109.jpg"",""SV_PolicingMSA/TX_109/IMG_6_109.jpg"",""SV_PolicingMSA/TX_109/IMG_14_109.jpg""]","4","","","","","","3","","4","[""./rc_img/cop_condGroup_10_CommunitySafety_autoscaled.png"",""./rc_img/cop_condGroup_10_SafeStreets_autoscaled.png""]","4","",""
"sliderTrial","html-slider-response","53","521134","0.0-53.0","","656776a7904ae00d6b91d1dd","6568a9ef36db0d5f2be75e1c","8","","","","","","","","","","","","860","[""SV_PolicingMSA/TX_109/IMG_7_109.jpg"",""SV_PolicingMSA/TX_109/IMG_3_109.jpg"",""SV_PolicingMSA/TX_109/IMG_10_109.jpg"",""SV_PolicingMSA/TX_109/IMG_0_109.jpg"",""SV_PolicingMSA/TX_109/IMG_4_109.jpg"",""SV_PolicingMSA/TX_109/IMG_13_109.jpg"",""SV_PolicingMSA/TX_109/IMG_6_109.jpg"",""SV_PolicingMSA/TX_109/IMG_14_109.jpg""]","4","","","","","","3","","4","[""./rc_img/cop_condGroup_5_CommunitySafety_autoscaled.png"",""./rc_img/cop_condGroup_5_SafeStreets_autoscaled.png""]","4","",""
"sliderTrial","html-slider-response","54","521702","0.0-54.0","","656776a7904ae00d6b91d1dd","6568a9ef36db0d5f2be75e1c","8","","","","","","","","","","","","566","[""SV_PolicingMSA/TX_109/IMG_7_109.jpg"",""SV_PolicingMSA/TX_109/IMG_3_109.jpg"",""SV_PolicingMSA/TX_109/IMG_10_109.jpg"",""SV_PolicingMSA/TX_109/IMG_0_109.jpg"",""SV_PolicingMSA/TX_109/IMG_4_109.jpg"",""SV_PolicingMSA/TX_109/IMG_13_109.jpg"",""SV_PolicingMSA/TX_109/IMG_6_109.jpg"",""SV_PolicingMSA/TX_109/IMG_14_109.jpg""]","4","","","","","","3","","4","[""./rc_img/cop_condGroup_7_SafeStreets_autoscaled.png"",""./rc_img/cop_condGroup_7_CommunitySafety_autoscaled.png""]","4","",""
"sliderTrial","html-slider-response","55","522319","0.0-55.0","","656776a7904ae00d6b91d1dd","6568a9ef36db0d5f2be75e1c","8","","","","","","","","","","","","614","[""SV_PolicingMSA/TX_109/IMG_7_109.jpg"",""SV_PolicingMSA/TX_109/IMG_3_109.jpg"",""SV_PolicingMSA/TX_109/IMG_10_109.jpg"",""SV_PolicingMSA/TX_109/IMG_0_109.jpg"",""SV_PolicingMSA/TX_109/IMG_4_109.jpg"",""SV_PolicingMSA/TX_109/IMG_13_109.jpg"",""SV_PolicingMSA/TX_109/IMG_6_109.jpg"",""SV_PolicingMSA/TX_109/IMG_14_109.jpg""]","4","","","","","","3","","4","[""./rc_img/cop_condGroup_13_SafeStreets_autoscaled.png"",""./rc_img/cop_condGroup_13_CommunitySafety_autoscaled.png""]","4","",""
"sliderTrial","html-slider-response","56","523862","0.0-56.0","","656776a7904ae00d6b91d1dd","6568a9ef36db0d5f2be75e1c","8","","","","","","","","","","","","1541","[""SV_PolicingMSA/TX_109/IMG_7_109.jpg"",""SV_PolicingMSA/TX_109/IMG_3_109.jpg"",""SV_PolicingMSA/TX_109/IMG_10_109.jpg"",""SV_PolicingMSA/TX_109/IMG_0_109.jpg"",""SV_PolicingMSA/TX_109/IMG_4_109.jpg"",""SV_PolicingMSA/TX_109/IMG_13_109.jpg"",""SV_PolicingMSA/TX_109/IMG_6_109.jpg"",""SV_PolicingMSA/TX_109/IMG_14_109.jpg""]","4","","","","","","3","","4","[""./rc_img/cop_condGroup_19_SafeStreets_autoscaled.png"",""./rc_img/cop_condGroup_19_CommunitySafety_autoscaled.png""]","4","",""
"before_SVSlide_prompt","html-button-response","57","525254","0.0-57.0","","656776a7904ae00d6b91d1dd","6568a9ef36db0d5f2be75e1c","8","","","","","","","","","","","","1391","Click [Next] to see the next neighborhood!","0","","","","","","","","","","","",""
"street view slide show","image-button-response","58","526269","0.0-58.0","","656776a7904ae00d6b91d1dd","6568a9ef36db0d5f2be75e1c","8","","","","","","","","","","","","null","stimulus/SV_PolicingMSA/TX_134/IMG_11_134.jpg","null","","","","","","2","","","","","",""
"street view slide show","image-button-response","59","527271","0.0-59.0","","656776a7904ae00d6b91d1dd","6568a9ef36db0d5f2be75e1c","8","","","","","","","","","","","","null","stimulus/SV_PolicingMSA/TX_134/IMG_5_134.jpg","null","","","","","","2","","","","","",""
"street view slide show","image-button-response","60","528278","0.0-60.0","","656776a7904ae00d6b91d1dd","6568a9ef36db0d5f2be75e1c","8","","","","","","","","","","","","null","stimulus/SV_PolicingMSA/TX_134/IMG_8_134.jpg","null","","","","","","2","","","","","",""
"street view slide show","image-button-response","61","529282","0.0-61.0","","656776a7904ae00d6b91d1dd","6568a9ef36db0d5f2be75e1c","8","","","","","","","","","","","","null","stimulus/SV_PolicingMSA/TX_134/IMG_4_134.jpg","null","","","","","","2","","","","","",""
"street view slide show","image-button-response","62","530287","0.0-62.0","","656776a7904ae00d6b91d1dd","6568a9ef36db0d5f2be75e1c","8","","","","","","","","","","","","null","stimulus/SV_PolicingMSA/TX_134/IMG_3_134.jpg","null","","","","","","2","","","","","",""
"street view slide show","image-button-response","63","531301","0.0-63.0","","656776a7904ae00d6b91d1dd","6568a9ef36db0d5f2be75e1c","8","","","","","","","","","","","","null","stimulus/SV_PolicingMSA/TX_134/IMG_2_134.jpg","null","","","","","","2","","","","","",""
"street view slide show","image-button-response","64","532312","0.0-64.0","","656776a7904ae00d6b91d1dd","6568a9ef36db0d5f2be75e1c","8","","","","","","","","","","","","null","stimulus/SV_PolicingMSA/TX_134/IMG_0_134.jpg","null","","","","","","2","","","","","",""
"street view slide show","image-button-response","65","533328","0.0-65.0","","656776a7904ae00d6b91d1dd","6568a9ef36db0d5f2be75e1c","8","","","","","","","","","","","","null","stimulus/SV_PolicingMSA/TX_134/IMG_13_134.jpg","null","","","","","","2","","","","","",""
"dot matrix survey1","survey","66","557382","0.0-66.0","","656776a7904ae00d6b91d1dd","6568a9ef36db0d5f2be75e1c","8","","","","","","","","","","","","24023","","{""P0_Q0"":null,""P0_Q1"":{""wealthy"":0,""safe"":0,""walkable"":0,""traditional"":2,""diverse"":0}}","","","","","","2","[]","","","","",""
"dot matrix survey2","survey","67","571494","0.0-67.0","","656776a7904ae00d6b91d1dd","6568a9ef36db0d5f2be75e1c","8","","","","","","","","","","","","14105","","{""P0_Q0"":null,""P0_Q1"":{""violence"":4,""crime"":4,""drug"":4,""schools"":0,""opportunities"":0}}","","","","","","2","[]","","","","",""
"dot matrix survey3","survey","68","588414","0.0-68.0","","656776a7904ae00d6b91d1dd","6568a9ef36db0d5f2be75e1c","8","","","","","","","","","","","","16913","","{""P0_Q0"":null,""P0_Q1"":{""movein"":0,""moveout"":4,""shopping"":0,""walk"":0,""park"":0,""school"":0}}","","","","","","2","[]","","","","",""
"sliderTrial","html-slider-response","69","591015","0.0-69.0","","656776a7904ae00d6b91d1dd","6568a9ef36db0d5f2be75e1c","8","","","","","","","","","","","","2600","[""SV_PolicingMSA/TX_134/IMG_11_134.jpg"",""SV_PolicingMSA/TX_134/IMG_5_134.jpg"",""SV_PolicingMSA/TX_134/IMG_8_134.jpg"",""SV_PolicingMSA/TX_134/IMG_4_134.jpg"",""SV_PolicingMSA/TX_134/IMG_3_134.jpg"",""SV_PolicingMSA/TX_134/IMG_2_134.jpg"",""SV_PolicingMSA/TX_134/IMG_0_134.jpg"",""SV_PolicingMSA/TX_134/IMG_13_134.jpg""]","4","","","","","","2","","4","[""./rc_img/cop_condGroup_9_SafeStreets_autoscaled.png"",""./rc_img/cop_condGroup_9_CommunitySafety_autoscaled.png""]","4","",""
"sliderTrial","html-slider-response","70","591655","0.0-70.0","","656776a7904ae00d6b91d1dd","6568a9ef36db0d5f2be75e1c","8","","","","","","","","","","","","638","[""SV_PolicingMSA/TX_134/IMG_11_134.jpg"",""SV_PolicingMSA/TX_134/IMG_5_134.jpg"",""SV_PolicingMSA/TX_134/IMG_8_134.jpg"",""SV_PolicingMSA/TX_134/IMG_4_134.jpg"",""SV_PolicingMSA/TX_134/IMG_3_134.jpg"",""SV_PolicingMSA/TX_134/IMG_2_134.jpg"",""SV_PolicingMSA/TX_134/IMG_0_134.jpg"",""SV_PolicingMSA/TX_134/IMG_13_134.jpg""]","4","","","","","","2","","4","[""./rc_img/cop_condGroup_3_CommunitySafety_autoscaled.png"",""./rc_img/cop_condGroup_3_SafeStreets_autoscaled.png""]","4","",""
"sliderTrial","html-slider-response","71","592607","0.0-71.0","","656776a7904ae00d6b91d1dd","6568a9ef36db0d5f2be75e1c","8","","","","","","","","","","","","950","[""SV_PolicingMSA/TX_134/IMG_11_134.jpg"",""SV_PolicingMSA/TX_134/IMG_5_134.jpg"",""SV_PolicingMSA/TX_134/IMG_8_134.jpg"",""SV_PolicingMSA/TX_134/IMG_4_134.jpg"",""SV_PolicingMSA/TX_134/IMG_3_134.jpg"",""SV_PolicingMSA/TX_134/IMG_2_134.jpg"",""SV_PolicingMSA/TX_134/IMG_0_134.jpg"",""SV_PolicingMSA/TX_134/IMG_13_134.jpg""]","4","","","","","","2","","4","[""./rc_img/cop_condGroup_16_CommunitySafety_autoscaled.png"",""./rc_img/cop_condGroup_16_SafeStreets_autoscaled.png""]","4","",""
"sliderTrial","html-slider-response","72","593415","0.0-72.0","","656776a7904ae00d6b91d1dd","6568a9ef36db0d5f2be75e1c","8","","","","","","","","","","","","806","[""SV_PolicingMSA/TX_134/IMG_11_134.jpg"",""SV_PolicingMSA/TX_134/IMG_5_134.jpg"",""SV_PolicingMSA/TX_134/IMG_8_134.jpg"",""SV_PolicingMSA/TX_134/IMG_4_134.jpg"",""SV_PolicingMSA/TX_134/IMG_3_134.jpg"",""SV_PolicingMSA/TX_134/IMG_2_134.jpg"",""SV_PolicingMSA/TX_134/IMG_0_134.jpg"",""SV_PolicingMSA/TX_134/IMG_13_134.jpg""]","4","","","","","","2","","4","[""./rc_img/cop_condGroup_17_CommunitySafety_autoscaled.png"",""./rc_img/cop_condGroup_17_SafeStreets_autoscaled.png""]","4","",""
"sliderTrial","html-slider-response","73","594375","0.0-73.0","","656776a7904ae00d6b91d1dd","6568a9ef36db0d5f2be75e1c","8","","","","","","","","","","","","958","[""SV_PolicingMSA/TX_134/IMG_11_134.jpg"",""SV_PolicingMSA/TX_134/IMG_5_134.jpg"",""SV_PolicingMSA/TX_134/IMG_8_134.jpg"",""SV_PolicingMSA/TX_134/IMG_4_134.jpg"",""SV_PolicingMSA/TX_134/IMG_3_134.jpg"",""SV_PolicingMSA/TX_134/IMG_2_134.jpg"",""SV_PolicingMSA/TX_134/IMG_0_134.jpg"",""SV_PolicingMSA/TX_134/IMG_13_134.jpg""]","4","","","","","","2","","4","[""./rc_img/cop_condGroup_20_SafeStreets_autoscaled.png"",""./rc_img/cop_condGroup_20_CommunitySafety_autoscaled.png""]","4","",""
"half-way","html-button-response","74","610127","0.0-74.0","","656776a7904ae00d6b91d1dd","6568a9ef36db0d5f2be75e1c","8","","","","","","","","","","","","null","
    <h3>You are now half way through the study.</h3>
    <p>Please take a quick, 15-second break before you continue.</p>
    <img src='assets/img/countdown-15.gif'>
    <p>The study will automatically advance forward after the countdown is complete. <br> However, you may click ""Next"" to advance forward now if you wish.</p>
    ","null","","","","","","","","","","","",""
"before_SVSlide_prompt","html-button-response","75","612031","0.0-75.0","","656776a7904ae00d6b91d1dd","6568a9ef36db0d5f2be75e1c","8","","","","","","","","","","","","1902","Click [Next] to see the next neighborhood!","0","","","","","","","","","","","",""
"street view slide show","image-button-response","76","613034","0.0-76.0","","656776a7904ae00d6b91d1dd","6568a9ef36db0d5f2be75e1c","8","","","","","","","","","","","","null","stimulus/SV_PolicingMSA/TX_348/IMG_3_348.jpg","null","","","","","","1","","","","","",""
"street view slide show","image-button-response","77","614037","0.0-77.0","","656776a7904ae00d6b91d1dd","6568a9ef36db0d5f2be75e1c","8","","","","","","","","","","","","null","stimulus/SV_PolicingMSA/TX_348/IMG_2_348.jpg","null","","","","","","1","","","","","",""
"street view slide show","image-button-response","78","615048","0.0-78.0","","656776a7904ae00d6b91d1dd","6568a9ef36db0d5f2be75e1c","8","","","","","","","","","","","","null","stimulus/SV_PolicingMSA/TX_348/IMG_11_348.jpg","null","","","","","","1","","","","","",""
"street view slide show","image-button-response","79","616060","0.0-79.0","","656776a7904ae00d6b91d1dd","6568a9ef36db0d5f2be75e1c","8","","","","","","","","","","","","null","stimulus/SV_PolicingMSA/TX_348/IMG_1_348.jpg","null","","","","","","1","","","","","",""
"street view slide show","image-button-response","80","617071","0.0-80.0","","656776a7904ae00d6b91d1dd","6568a9ef36db0d5f2be75e1c","8","","","","","","","","","","","","null","stimulus/SV_PolicingMSA/TX_348/IMG_6_348.jpg","null","","","","","","1","","","","","",""
"street view slide show","image-button-response","81","618079","0.0-81.0","","656776a7904ae00d6b91d1dd","6568a9ef36db0d5f2be75e1c","8","","","","","","","","","","","","null","stimulus/SV_PolicingMSA/TX_348/IMG_13_348.jpg","null","","","","","","1","","","","","",""
"street view slide show","image-button-response","82","619085","0.0-82.0","","656776a7904ae00d6b91d1dd","6568a9ef36db0d5f2be75e1c","8","","","","","","","","","","","","null","stimulus/SV_PolicingMSA/TX_348/IMG_5_348.jpg","null","","","","","","1","","","","","",""
"street view slide show","image-button-response","83","620088","0.0-83.0","","656776a7904ae00d6b91d1dd","6568a9ef36db0d5f2be75e1c","8","","","","","","","","","","","","null","stimulus/SV_PolicingMSA/TX_348/IMG_4_348.jpg","null","","","","","","1","","","","","",""
"dot matrix survey1","survey","84","646231","0.0-84.0","","656776a7904ae00d6b91d1dd","6568a9ef36db0d5f2be75e1c","8","","","","","","","","","","","","26128","","{""P0_Q0"":null,""P0_Q1"":{""wealthy"":0,""safe"":0,""walkable"":0,""traditional"":1,""diverse"":1}}","","","","","","1","[]","","","","",""
"dot matrix survey2","survey","85","672774","0.0-85.0","","656776a7904ae00d6b91d1dd","6568a9ef36db0d5f2be75e1c","8","","","","","","","","","","","","26536","","{""P0_Q0"":null,""P0_Q1"":{""violence"":4,""crime"":4,""drug"":4,""schools"":0,""opportunities"":0}}","","","","","","1","[]","","","","",""
"dot matrix survey3","survey","86","688585","0.0-86.0","","656776a7904ae00d6b91d1dd","6568a9ef36db0d5f2be75e1c","8","","","","","","","","","","","","15804","","{""P0_Q0"":null,""P0_Q1"":{""movein"":0,""moveout"":4,""shopping"":0,""walk"":0,""park"":0,""school"":0}}","","","","","","1","[]","","","","",""
"sliderTrial","html-slider-response","87","690151","0.0-87.0","","656776a7904ae00d6b91d1dd","6568a9ef36db0d5f2be75e1c","8","","","","","","","","","","","","1564","[""SV_PolicingMSA/TX_348/IMG_3_348.jpg"",""SV_PolicingMSA/TX_348/IMG_2_348.jpg"",""SV_PolicingMSA/TX_348/IMG_11_348.jpg"",""SV_PolicingMSA/TX_348/IMG_1_348.jpg"",""SV_PolicingMSA/TX_348/IMG_6_348.jpg"",""SV_PolicingMSA/TX_348/IMG_13_348.jpg"",""SV_PolicingMSA/TX_348/IMG_5_348.jpg"",""SV_PolicingMSA/TX_348/IMG_4_348.jpg""]","4","","","","","","1","","4","[""./rc_img/cop_condGroup_8_CommunitySafety_autoscaled.png"",""./rc_img/cop_condGroup_8_SafeStreets_autoscaled.png""]","4","",""
"sliderTrial","html-slider-response","88","690655","0.0-88.0","","656776a7904ae00d6b91d1dd","6568a9ef36db0d5f2be75e1c","8","","","","","","","","","","","","502","[""SV_PolicingMSA/TX_348/IMG_3_348.jpg"",""SV_PolicingMSA/TX_348/IMG_2_348.jpg"",""SV_PolicingMSA/TX_348/IMG_11_348.jpg"",""SV_PolicingMSA/TX_348/IMG_1_348.jpg"",""SV_PolicingMSA/TX_348/IMG_6_348.jpg"",""SV_PolicingMSA/TX_348/IMG_13_348.jpg"",""SV_PolicingMSA/TX_348/IMG_5_348.jpg"",""SV_PolicingMSA/TX_348/IMG_4_348.jpg""]","4","","","","","","1","","4","[""./rc_img/cop_condGroup_6_SafeStreets_autoscaled.png"",""./rc_img/cop_condGroup_6_CommunitySafety_autoscaled.png""]","4","",""
"sliderTrial_attention","html-slider-response","89","700673","0.0-89.0","","656776a7904ae00d6b91d1dd","6568a9ef36db0d5f2be75e1c","8","","","","","","","","","","","","null","[""SV_PolicingMSA/TX_348/IMG_3_348.jpg"",""SV_PolicingMSA/TX_348/IMG_2_348.jpg"",""SV_PolicingMSA/TX_348/IMG_11_348.jpg"",""SV_PolicingMSA/TX_348/IMG_1_348.jpg"",""SV_PolicingMSA/TX_348/IMG_6_348.jpg"",""SV_PolicingMSA/TX_348/IMG_13_348.jpg"",""SV_PolicingMSA/TX_348/IMG_5_348.jpg"",""SV_PolicingMSA/TX_348/IMG_4_348.jpg""]","null","","","","","","1","","4","[""./assets/img/attnchk.png"",""./assets/img/attnchk.png""]","","true",""
"sliderTrial","html-slider-response","90","713032","0.0-90.0","","656776a7904ae00d6b91d1dd","6568a9ef36db0d5f2be75e1c","8","","","","","","","","","","","","12355","[""SV_PolicingMSA/TX_348/IMG_3_348.jpg"",""SV_PolicingMSA/TX_348/IMG_2_348.jpg"",""SV_PolicingMSA/TX_348/IMG_11_348.jpg"",""SV_PolicingMSA/TX_348/IMG_1_348.jpg"",""SV_PolicingMSA/TX_348/IMG_6_348.jpg"",""SV_PolicingMSA/TX_348/IMG_13_348.jpg"",""SV_PolicingMSA/TX_348/IMG_5_348.jpg"",""SV_PolicingMSA/TX_348/IMG_4_348.jpg""]","7","","","","","","1","","4","[""./rc_img/cop_condGroup_11_CommunitySafety_autoscaled.png"",""./rc_img/cop_condGroup_11_SafeStreets_autoscaled.png""]","7","",""
"sliderTrial","html-slider-response","91","716888","0.0-91.0","","656776a7904ae00d6b91d1dd","6568a9ef36db0d5f2be75e1c","8","","","","","","","","","","","","3854","[""SV_PolicingMSA/TX_348/IMG_3_348.jpg"",""SV_PolicingMSA/TX_348/IMG_2_348.jpg"",""SV_PolicingMSA/TX_348/IMG_11_348.jpg"",""SV_PolicingMSA/TX_348/IMG_1_348.jpg"",""SV_PolicingMSA/TX_348/IMG_6_348.jpg"",""SV_PolicingMSA/TX_348/IMG_13_348.jpg"",""SV_PolicingMSA/TX_348/IMG_5_348.jpg"",""SV_PolicingMSA/TX_348/IMG_4_348.jpg""]","4","","","","","","1","","4","[""./rc_img/cop_condGroup_14_SafeStreets_autoscaled.png"",""./rc_img/cop_condGroup_14_CommunitySafety_autoscaled.png""]","4","",""
"sliderTrial","html-slider-response","92","718424","0.0-92.0","","656776a7904ae00d6b91d1dd","6568a9ef36db0d5f2be75e1c","8","","","","","","","","","","","","1534","[""SV_PolicingMSA/TX_348/IMG_3_348.jpg"",""SV_PolicingMSA/TX_348/IMG_2_348.jpg"",""SV_PolicingMSA/TX_348/IMG_11_348.jpg"",""SV_PolicingMSA/TX_348/IMG_1_348.jpg"",""SV_PolicingMSA/TX_348/IMG_6_348.jpg"",""SV_PolicingMSA/TX_348/IMG_13_348.jpg"",""SV_PolicingMSA/TX_348/IMG_5_348.jpg"",""SV_PolicingMSA/TX_348/IMG_4_348.jpg""]","4","","","","","","1","","4","[""./rc_img/cop_condGroup_15_SafeStreets_autoscaled.png"",""./rc_img/cop_condGroup_15_CommunitySafety_autoscaled.png""]","4","",""
"before_SVSlide_prompt","html-button-response","93","721512","0.0-93.0","","656776a7904ae00d6b91d1dd","6568a9ef36db0d5f2be75e1c","8","","","","","","","","","","","","3087","Click [Next] to see the next neighborhood!","0","","","","","","","","","","","",""
"street view slide show","image-button-response","94","722514","0.0-94.0","","656776a7904ae00d6b91d1dd","6568a9ef36db0d5f2be75e1c","8","","","","","","","","","","","","null","stimulus/SV_PolicingMSA/TX_130/IMG_14_130.jpg","null","","","","","","0","","","","","",""
"street view slide show","image-button-response","95","723525","0.0-95.0","","656776a7904ae00d6b91d1dd","6568a9ef36db0d5f2be75e1c","8","","","","","","","","","","","","null","stimulus/SV_PolicingMSA/TX_130/IMG_13_130.jpg","null","","","","","","0","","","","","",""
"street view slide show","image-button-response","96","724543","0.0-96.0","","656776a7904ae00d6b91d1dd","6568a9ef36db0d5f2be75e1c","8","","","","","","","","","","","","null","stimulus/SV_PolicingMSA/TX_130/IMG_12_130.jpg","null","","","","","","0","","","","","",""
"street view slide show","image-button-response","97","725555","0.0-97.0","","656776a7904ae00d6b91d1dd","6568a9ef36db0d5f2be75e1c","8","","","","","","","","","","","","null","stimulus/SV_PolicingMSA/TX_130/IMG_8_130.jpg","null","","","","","","0","","","","","",""
"street view slide show","image-button-response","98","726569","0.0-98.0","","656776a7904ae00d6b91d1dd","6568a9ef36db0d5f2be75e1c","8","","","","","","","","","","","","null","stimulus/SV_PolicingMSA/TX_130/IMG_4_130.jpg","null","","","","","","0","","","","","",""
"street view slide show","image-button-response","99","727580","0.0-99.0","","656776a7904ae00d6b91d1dd","6568a9ef36db0d5f2be75e1c","8","","","","","","","","","","","","null","stimulus/SV_PolicingMSA/TX_130/IMG_10_130.jpg","null","","","","","","0","","","","","",""
"street view slide show","image-button-response","100","728595","0.0-100.0","","656776a7904ae00d6b91d1dd","6568a9ef36db0d5f2be75e1c","8","","","","","","","","","","","","null","stimulus/SV_PolicingMSA/TX_130/IMG_0_130.jpg","null","","","","","","0","","","","","",""
"street view slide show","image-button-response","101","729606","0.0-101.0","","656776a7904ae00d6b91d1dd","6568a9ef36db0d5f2be75e1c","8","","","","","","","","","","","","null","stimulus/SV_PolicingMSA/TX_130/IMG_7_130.jpg","null","","","","","","0","","","","","",""
"dot matrix survey1","survey","102","765583","0.0-102.0","","656776a7904ae00d6b91d1dd","6568a9ef36db0d5f2be75e1c","8","","","","","","","","","","","","35950","","{""P0_Q0"":null,""P0_Q1"":{""wealthy"":1,""safe"":2,""walkable"":0,""traditional"":2,""diverse"":1}}","","","","","","0","[]","","","","",""
"dot matrix survey2","survey","103","783040","0.0-103.0","","656776a7904ae00d6b91d1dd","6568a9ef36db0d5f2be75e1c","8","","","","","","","","","","","","17450","","{""P0_Q0"":null,""P0_Q1"":{""violence"":3,""crime"":3,""drug"":3,""schools"":1,""opportunities"":1}}","","","","","","0","[]","","","","",""
"dot matrix survey3","survey","104","802961","0.0-104.0","","656776a7904ae00d6b91d1dd","6568a9ef36db0d5f2be75e1c","8","","","","","","","","","","","","19914","","{""P0_Q0"":null,""P0_Q1"":{""movein"":0,""moveout"":4,""shopping"":0,""walk"":0,""park"":0,""school"":0}}","","","","","","0","[]","","","","",""
"sliderTrial_attention","html-slider-response","105","812973","0.0-105.0","","656776a7904ae00d6b91d1dd","6568a9ef36db0d5f2be75e1c","8","","","","","","","","","","","","null","[""SV_PolicingMSA/TX_130/IMG_14_130.jpg"",""SV_PolicingMSA/TX_130/IMG_13_130.jpg"",""SV_PolicingMSA/TX_130/IMG_12_130.jpg"",""SV_PolicingMSA/TX_130/IMG_8_130.jpg"",""SV_PolicingMSA/TX_130/IMG_4_130.jpg"",""SV_PolicingMSA/TX_130/IMG_10_130.jpg"",""SV_PolicingMSA/TX_130/IMG_0_130.jpg"",""SV_PolicingMSA/TX_130/IMG_7_130.jpg""]","null","","","","","","0","","4","[""./assets/img/attnchk.png"",""./assets/img/attnchk.png""]","","true",""
"sliderTrial","html-slider-response","106","820506","0.0-106.0","","656776a7904ae00d6b91d1dd","6568a9ef36db0d5f2be75e1c","8","","","","","","","","","","","","7528","[""SV_PolicingMSA/TX_130/IMG_14_130.jpg"",""SV_PolicingMSA/TX_130/IMG_13_130.jpg"",""SV_PolicingMSA/TX_130/IMG_12_130.jpg"",""SV_PolicingMSA/TX_130/IMG_8_130.jpg"",""SV_PolicingMSA/TX_130/IMG_4_130.jpg"",""SV_PolicingMSA/TX_130/IMG_10_130.jpg"",""SV_PolicingMSA/TX_130/IMG_0_130.jpg"",""SV_PolicingMSA/TX_130/IMG_7_130.jpg""]","6","","","","","","0","","4","[""./rc_img/cop_condGroup_4_CommunitySafety_autoscaled.png"",""./rc_img/cop_condGroup_4_SafeStreets_autoscaled.png""]","6","",""
"sliderTrial","html-slider-response","107","823602","0.0-107.0","","656776a7904ae00d6b91d1dd","6568a9ef36db0d5f2be75e1c","8","","","","","","","","","","","","3094","[""SV_PolicingMSA/TX_130/IMG_14_130.jpg"",""SV_PolicingMSA/TX_130/IMG_13_130.jpg"",""SV_PolicingMSA/TX_130/IMG_12_130.jpg"",""SV_PolicingMSA/TX_130/IMG_8_130.jpg"",""SV_PolicingMSA/TX_130/IMG_4_130.jpg"",""SV_PolicingMSA/TX_130/IMG_10_130.jpg"",""SV_PolicingMSA/TX_130/IMG_0_130.jpg"",""SV_PolicingMSA/TX_130/IMG_7_130.jpg""]","4","","","","","","0","","4","[""./rc_img/cop_condGroup_12_CommunitySafety_autoscaled.png"",""./rc_img/cop_condGroup_12_SafeStreets_autoscaled.png""]","4","",""
"sliderTrial","html-slider-response","108","829498","0.0-108.0","","656776a7904ae00d6b91d1dd","6568a9ef36db0d5f2be75e1c","8","","","","","","","","","","","","5895","[""SV_PolicingMSA/TX_130/IMG_14_130.jpg"",""SV_PolicingMSA/TX_130/IMG_13_130.jpg"",""SV_PolicingMSA/TX_130/IMG_12_130.jpg"",""SV_PolicingMSA/TX_130/IMG_8_130.jpg"",""SV_PolicingMSA/TX_130/IMG_4_130.jpg"",""SV_PolicingMSA/TX_130/IMG_10_130.jpg"",""SV_PolicingMSA/TX_130/IMG_0_130.jpg"",""SV_PolicingMSA/TX_130/IMG_7_130.jpg""]","5","","","","","","0","","4","[""./rc_img/cop_condGroup_18_CommunitySafety_autoscaled.png"",""./rc_img/cop_condGroup_18_SafeStreets_autoscaled.png""]","5","",""
"sliderTrial","html-slider-response","109","832218","0.0-109.0","","656776a7904ae00d6b91d1dd","6568a9ef36db0d5f2be75e1c","8","","","","","","","","","","","","2718","[""SV_PolicingMSA/TX_130/IMG_14_130.jpg"",""SV_PolicingMSA/TX_130/IMG_13_130.jpg"",""SV_PolicingMSA/TX_130/IMG_12_130.jpg"",""SV_PolicingMSA/TX_130/IMG_8_130.jpg"",""SV_PolicingMSA/TX_130/IMG_4_130.jpg"",""SV_PolicingMSA/TX_130/IMG_10_130.jpg"",""SV_PolicingMSA/TX_130/IMG_0_130.jpg"",""SV_PolicingMSA/TX_130/IMG_7_130.jpg""]","4","","","","","","0","","4","[""./rc_img/cop_condGroup_1_SafeStreets_autoscaled.png"",""./rc_img/cop_condGroup_1_CommunitySafety_autoscaled.png""]","4","",""
"sliderTrial","html-slider-response","110","834114","0.0-110.0","","656776a7904ae00d6b91d1dd","6568a9ef36db0d5f2be75e1c","8","","","","","","","","","","","","1894","[""SV_PolicingMSA/TX_130/IMG_14_130.jpg"",""SV_PolicingMSA/TX_130/IMG_13_130.jpg"",""SV_PolicingMSA/TX_130/IMG_12_130.jpg"",""SV_PolicingMSA/TX_130/IMG_8_130.jpg"",""SV_PolicingMSA/TX_130/IMG_4_130.jpg"",""SV_PolicingMSA/TX_130/IMG_10_130.jpg"",""SV_PolicingMSA/TX_130/IMG_0_130.jpg"",""SV_PolicingMSA/TX_130/IMG_7_130.jpg""]","4","","","","","","0","","4","[""./rc_img/cop_condGroup_2_SafeStreets_autoscaled.png"",""./rc_img/cop_condGroup_2_CommunitySafety_autoscaled.png""]","4","",""
"before_SVSlide_prompt","html-button-response","111","835818","0.0-111.0","","656776a7904ae00d6b91d1dd","6568a9ef36db0d5f2be75e1c","8","","","","","","","","","","","","1703","Click [Next] to see the next neighborhood!","0","","","","","","","","","","","",""
"street view slide show","image-button-response","112","836824","0.0-112.0","","656776a7904ae00d6b91d1dd","6568a9ef36db0d5f2be75e1c","8","","","","","","","","","","","","null","stimulus/SV_PolicingMSA/TX_4061/IMG_5_4061.jpg","null","","","","","","5","","","","","",""
"street view slide show","image-button-response","113","837835","0.0-113.0","","656776a7904ae00d6b91d1dd","6568a9ef36db0d5f2be75e1c","8","","","","","","","","","","","","null","stimulus/SV_PolicingMSA/TX_4061/IMG_12_4061.jpg","null","","","","","","5","","","","","",""
"street view slide show","image-button-response","114","838850","0.0-114.0","","656776a7904ae00d6b91d1dd","6568a9ef36db0d5f2be75e1c","8","","","","","","","","","","","","null","stimulus/SV_PolicingMSA/TX_4061/IMG_1_4061.jpg","null","","","","","","5","","","","","",""
"street view slide show","image-button-response","115","839864","0.0-115.0","","656776a7904ae00d6b91d1dd","6568a9ef36db0d5f2be75e1c","8","","","","","","","","","","","","null","stimulus/SV_PolicingMSA/TX_4061/IMG_3_4061.jpg","null","","","","","","5","","","","","",""
"street view slide show","image-button-response","116","840877","0.0-116.0","","656776a7904ae00d6b91d1dd","6568a9ef36db0d5f2be75e1c","8","","","","","","","","","","","","null","stimulus/SV_PolicingMSA/TX_4061/IMG_14_4061.jpg","null","","","","","","5","","","","","",""
"street view slide show","image-button-response","117","841891","0.0-117.0","","656776a7904ae00d6b91d1dd","6568a9ef36db0d5f2be75e1c","8","","","","","","","","","","","","null","stimulus/SV_PolicingMSA/TX_4061/IMG_8_4061.jpg","null","","","","","","5","","","","","",""
"street view slide show","image-button-response","118","842903","0.0-118.0","","656776a7904ae00d6b91d1dd","6568a9ef36db0d5f2be75e1c","8","","","","","","","","","","","","null","stimulus/SV_PolicingMSA/TX_4061/IMG_4_4061.jpg","null","","","","","","5","","","","","",""
"street view slide show","image-button-response","119","843919","0.0-119.0","","656776a7904ae00d6b91d1dd","6568a9ef36db0d5f2be75e1c","8","","","","","","","","","","","","null","stimulus/SV_PolicingMSA/TX_4061/IMG_13_4061.jpg","null","","","","","","5","","","","","",""
"dot matrix survey1","survey","120","868418","0.0-120.0","","656776a7904ae00d6b91d1dd","6568a9ef36db0d5f2be75e1c","8","","","","","","","","","","","","24468","","{""P0_Q0"":null,""P0_Q1"":{""wealthy"":3,""safe"":2,""walkable"":2,""traditional"":2,""diverse"":2}}","","","","","","5","[]","","","","",""
"dot matrix survey2","survey","121","884609","0.0-121.0","","656776a7904ae00d6b91d1dd","6568a9ef36db0d5f2be75e1c","8","","","","","","","","","","","","16185","","{""P0_Q0"":null,""P0_Q1"":{""violence"":2,""crime"":2,""drug"":2,""schools"":2,""opportunities"":2}}","","","","","","5","[]","","","","",""
"dot matrix survey3","survey","122","913461","0.0-122.0","","656776a7904ae00d6b91d1dd","6568a9ef36db0d5f2be75e1c","8","","","","","","","","","","","","28845","","{""P0_Q0"":null,""P0_Q1"":{""movein"":2,""moveout"":2,""shopping"":2,""walk"":1,""park"":2,""school"":2}}","","","","","","5","[]","","","","",""
"sliderTrial","html-slider-response","123","918955","0.0-123.0","","656776a7904ae00d6b91d1dd","6568a9ef36db0d5f2be75e1c","8","","","","","","","","","","","","5491","[""SV_PolicingMSA/TX_4061/IMG_5_4061.jpg"",""SV_PolicingMSA/TX_4061/IMG_12_4061.jpg"",""SV_PolicingMSA/TX_4061/IMG_1_4061.jpg"",""SV_PolicingMSA/TX_4061/IMG_3_4061.jpg"",""SV_PolicingMSA/TX_4061/IMG_14_4061.jpg"",""SV_PolicingMSA/TX_4061/IMG_8_4061.jpg"",""SV_PolicingMSA/TX_4061/IMG_4_4061.jpg"",""SV_PolicingMSA/TX_4061/IMG_13_4061.jpg""]","4","","","","","","5","","4","[""./rc_img/cop_condGroup_10_CommunitySafety_autoscaled.png"",""./rc_img/cop_condGroup_10_SafeStreets_autoscaled.png""]","4","",""
"sliderTrial","html-slider-response","124","921707","0.0-124.0","","656776a7904ae00d6b91d1dd","6568a9ef36db0d5f2be75e1c","8","","","","","","","","","","","","2750","[""SV_PolicingMSA/TX_4061/IMG_5_4061.jpg"",""SV_PolicingMSA/TX_4061/IMG_12_4061.jpg"",""SV_PolicingMSA/TX_4061/IMG_1_4061.jpg"",""SV_PolicingMSA/TX_4061/IMG_3_4061.jpg"",""SV_PolicingMSA/TX_4061/IMG_14_4061.jpg"",""SV_PolicingMSA/TX_4061/IMG_8_4061.jpg"",""SV_PolicingMSA/TX_4061/IMG_4_4061.jpg"",""SV_PolicingMSA/TX_4061/IMG_13_4061.jpg""]","4","","","","","","5","","4","[""./rc_img/cop_condGroup_5_CommunitySafety_autoscaled.png"",""./rc_img/cop_condGroup_5_SafeStreets_autoscaled.png""]","4","",""
"sliderTrial","html-slider-response","125","925883","0.0-125.0","","656776a7904ae00d6b91d1dd","6568a9ef36db0d5f2be75e1c","8","","","","","","","","","","","","4174","[""SV_PolicingMSA/TX_4061/IMG_5_4061.jpg"",""SV_PolicingMSA/TX_4061/IMG_12_4061.jpg"",""SV_PolicingMSA/TX_4061/IMG_1_4061.jpg"",""SV_PolicingMSA/TX_4061/IMG_3_4061.jpg"",""SV_PolicingMSA/TX_4061/IMG_14_4061.jpg"",""SV_PolicingMSA/TX_4061/IMG_8_4061.jpg"",""SV_PolicingMSA/TX_4061/IMG_4_4061.jpg"",""SV_PolicingMSA/TX_4061/IMG_13_4061.jpg""]","4","","","","","","5","","4","[""./rc_img/cop_condGroup_7_SafeStreets_autoscaled.png"",""./rc_img/cop_condGroup_7_CommunitySafety_autoscaled.png""]","4","",""
"sliderTrial","html-slider-response","126","930980","0.0-126.0","","656776a7904ae00d6b91d1dd","6568a9ef36db0d5f2be75e1c","8","","","","","","","","","","","","5094","[""SV_PolicingMSA/TX_4061/IMG_5_4061.jpg"",""SV_PolicingMSA/TX_4061/IMG_12_4061.jpg"",""SV_PolicingMSA/TX_4061/IMG_1_4061.jpg"",""SV_PolicingMSA/TX_4061/IMG_3_4061.jpg"",""SV_PolicingMSA/TX_4061/IMG_14_4061.jpg"",""SV_PolicingMSA/TX_4061/IMG_8_4061.jpg"",""SV_PolicingMSA/TX_4061/IMG_4_4061.jpg"",""SV_PolicingMSA/TX_4061/IMG_13_4061.jpg""]","4","","","","","","5","","4","[""./rc_img/cop_condGroup_13_SafeStreets_autoscaled.png"",""./rc_img/cop_condGroup_13_CommunitySafety_autoscaled.png""]","4","",""
"sliderTrial","html-slider-response","127","932540","0.0-127.0","","656776a7904ae00d6b91d1dd","6568a9ef36db0d5f2be75e1c","8","","","","","","","","","","","","1558","[""SV_PolicingMSA/TX_4061/IMG_5_4061.jpg"",""SV_PolicingMSA/TX_4061/IMG_12_4061.jpg"",""SV_PolicingMSA/TX_4061/IMG_1_4061.jpg"",""SV_PolicingMSA/TX_4061/IMG_3_4061.jpg"",""SV_PolicingMSA/TX_4061/IMG_14_4061.jpg"",""SV_PolicingMSA/TX_4061/IMG_8_4061.jpg"",""SV_PolicingMSA/TX_4061/IMG_4_4061.jpg"",""SV_PolicingMSA/TX_4061/IMG_13_4061.jpg""]","4","","","","","","5","","4","[""./rc_img/cop_condGroup_19_SafeStreets_autoscaled.png"",""./rc_img/cop_condGroup_19_CommunitySafety_autoscaled.png""]","4","",""
"before_SVSlide_prompt","html-button-response","128","934012","0.0-128.0","","656776a7904ae00d6b91d1dd","6568a9ef36db0d5f2be75e1c","8","","","","","","","","","","","","1471","Click [Next] to see the next neighborhood!","0","","","","","","","","","","","",""
"street view slide show","image-button-response","129","935014","0.0-129.0","","656776a7904ae00d6b91d1dd","6568a9ef36db0d5f2be75e1c","8","","","","","","","","","","","","null","stimulus/SV_PolicingMSA/TX_298/IMG_0_298.jpg","null","","","","","","4","","","","","",""
"street view slide show","image-button-response","130","936020","0.0-130.0","","656776a7904ae00d6b91d1dd","6568a9ef36db0d5f2be75e1c","8","","","","","","","","","","","","null","stimulus/SV_PolicingMSA/TX_298/IMG_2_298.jpg","null","","","","","","4","","","","","",""
"street view slide show","image-button-response","131","937031","0.0-131.0","","656776a7904ae00d6b91d1dd","6568a9ef36db0d5f2be75e1c","8","","","","","","","","","","","","null","stimulus/SV_PolicingMSA/TX_298/IMG_13_298.jpg","null","","","","","","4","","","","","",""
"street view slide show","image-button-response","132","938046","0.0-132.0","","656776a7904ae00d6b91d1dd","6568a9ef36db0d5f2be75e1c","8","","","","","","","","","","","","null","stimulus/SV_PolicingMSA/TX_298/IMG_6_298.jpg","null","","","","","","4","","","","","",""
"street view slide show","image-button-response","133","939057","0.0-133.0","","656776a7904ae00d6b91d1dd","6568a9ef36db0d5f2be75e1c","8","","","","","","","","","","","","null","stimulus/SV_PolicingMSA/TX_298/IMG_8_298.jpg","null","","","","","","4","","","","","",""
"street view slide show","image-button-response","134","940067","0.0-134.0","","656776a7904ae00d6b91d1dd","6568a9ef36db0d5f2be75e1c","8","","","","","","","","","","","","null","stimulus/SV_PolicingMSA/TX_298/IMG_3_298.jpg","null","","","","","","4","","","","","",""
"street view slide show","image-button-response","135","941080","0.0-135.0","","656776a7904ae00d6b91d1dd","6568a9ef36db0d5f2be75e1c","8","","","","","","","","","","","","null","stimulus/SV_PolicingMSA/TX_298/IMG_11_298.jpg","null","","","","","","4","","","","","",""
"street view slide show","image-button-response","136","942096","0.0-136.0","","656776a7904ae00d6b91d1dd","6568a9ef36db0d5f2be75e1c","8","","","","","","","","","","","","null","stimulus/SV_PolicingMSA/TX_298/IMG_7_298.jpg","null","","","","","","4","","","","","",""
"dot matrix survey1","survey","137","977291","0.0-137.0","","656776a7904ae00d6b91d1dd","6568a9ef36db0d5f2be75e1c","8","","","","","","","","","","","","35156","","{""P0_Q0"":null,""P0_Q1"":{""wealthy"":3,""safe"":3,""walkable"":0,""traditional"":2,""diverse"":2}}","","","","","","4","[]","","","","",""
"dot matrix survey2","survey","138","1003522","0.0-138.0","","656776a7904ae00d6b91d1dd","6568a9ef36db0d5f2be75e1c","8","","","","","","","","","","","","26224","","{""P0_Q0"":null,""P0_Q1"":{""violence"":1,""crime"":1,""drug"":2,""schools"":3,""opportunities"":3}}","","","","","","4","[]","","","","",""
"dot matrix survey3","survey","139","1034517","0.0-139.0","","656776a7904ae00d6b91d1dd","6568a9ef36db0d5f2be75e1c","8","","","","","","","","","","","","30987","","{""P0_Q0"":null,""P0_Q1"":{""movein"":3,""moveout"":1,""shopping"":2,""walk"":1,""park"":3,""school"":2}}","","","","","","4","[]","","","","",""
"sliderTrial","html-slider-response","140","1038085","0.0-140.0","","656776a7904ae00d6b91d1dd","6568a9ef36db0d5f2be75e1c","8","","","","","","","","","","","","3566","[""SV_PolicingMSA/TX_298/IMG_0_298.jpg"",""SV_PolicingMSA/TX_298/IMG_2_298.jpg"",""SV_PolicingMSA/TX_298/IMG_13_298.jpg"",""SV_PolicingMSA/TX_298/IMG_6_298.jpg"",""SV_PolicingMSA/TX_298/IMG_8_298.jpg"",""SV_PolicingMSA/TX_298/IMG_3_298.jpg"",""SV_PolicingMSA/TX_298/IMG_11_298.jpg"",""SV_PolicingMSA/TX_298/IMG_7_298.jpg""]","4","","","","","","4","","4","[""./rc_img/cop_condGroup_9_SafeStreets_autoscaled.png"",""./rc_img/cop_condGroup_9_CommunitySafety_autoscaled.png""]","4","",""
"sliderTrial","html-slider-response","141","1042292","0.0-141.0","","656776a7904ae00d6b91d1dd","6568a9ef36db0d5f2be75e1c","8","","","","","","","","","","","","4206","[""SV_PolicingMSA/TX_298/IMG_0_298.jpg"",""SV_PolicingMSA/TX_298/IMG_2_298.jpg"",""SV_PolicingMSA/TX_298/IMG_13_298.jpg"",""SV_PolicingMSA/TX_298/IMG_6_298.jpg"",""SV_PolicingMSA/TX_298/IMG_8_298.jpg"",""SV_PolicingMSA/TX_298/IMG_3_298.jpg"",""SV_PolicingMSA/TX_298/IMG_11_298.jpg"",""SV_PolicingMSA/TX_298/IMG_7_298.jpg""]","4","","","","","","4","","4","[""./rc_img/cop_condGroup_3_CommunitySafety_autoscaled.png"",""./rc_img/cop_condGroup_3_SafeStreets_autoscaled.png""]","4","",""
"sliderTrial","html-slider-response","142","1045004","0.0-142.0","","656776a7904ae00d6b91d1dd","6568a9ef36db0d5f2be75e1c","8","","","","","","","","","","","","2710","[""SV_PolicingMSA/TX_298/IMG_0_298.jpg"",""SV_PolicingMSA/TX_298/IMG_2_298.jpg"",""SV_PolicingMSA/TX_298/IMG_13_298.jpg"",""SV_PolicingMSA/TX_298/IMG_6_298.jpg"",""SV_PolicingMSA/TX_298/IMG_8_298.jpg"",""SV_PolicingMSA/TX_298/IMG_3_298.jpg"",""SV_PolicingMSA/TX_298/IMG_11_298.jpg"",""SV_PolicingMSA/TX_298/IMG_7_298.jpg""]","4","","","","","","4","","4","[""./rc_img/cop_condGroup_16_CommunitySafety_autoscaled.png"",""./rc_img/cop_condGroup_16_SafeStreets_autoscaled.png""]","4","",""
"sliderTrial","html-slider-response","143","1046548","0.0-143.0","","656776a7904ae00d6b91d1dd","6568a9ef36db0d5f2be75e1c","8","","","","","","","","","","","","1542","[""SV_PolicingMSA/TX_298/IMG_0_298.jpg"",""SV_PolicingMSA/TX_298/IMG_2_298.jpg"",""SV_PolicingMSA/TX_298/IMG_13_298.jpg"",""SV_PolicingMSA/TX_298/IMG_6_298.jpg"",""SV_PolicingMSA/TX_298/IMG_8_298.jpg"",""SV_PolicingMSA/TX_298/IMG_3_298.jpg"",""SV_PolicingMSA/TX_298/IMG_11_298.jpg"",""SV_PolicingMSA/TX_298/IMG_7_298.jpg""]","4","","","","","","4","","4","[""./rc_img/cop_condGroup_17_CommunitySafety_autoscaled.png"",""./rc_img/cop_condGroup_17_SafeStreets_autoscaled.png""]","4","",""
"sliderTrial","html-slider-response","144","1046596","0.0-144.0","","656776a7904ae00d6b91d1dd","6568a9ef36db0d5f2be75e1c","8","","","","","","","","","","","","46","[""SV_PolicingMSA/TX_298/IMG_0_298.jpg"",""SV_PolicingMSA/TX_298/IMG_2_298.jpg"",""SV_PolicingMSA/TX_298/IMG_13_298.jpg"",""SV_PolicingMSA/TX_298/IMG_6_298.jpg"",""SV_PolicingMSA/TX_298/IMG_8_298.jpg"",""SV_PolicingMSA/TX_298/IMG_3_298.jpg"",""SV_PolicingMSA/TX_298/IMG_11_298.jpg"",""SV_PolicingMSA/TX_298/IMG_7_298.jpg""]","4","","","","","","4","","4","[""./rc_img/cop_condGroup_20_SafeStreets_autoscaled.png"",""./rc_img/cop_condGroup_20_CommunitySafety_autoscaled.png""]","4","",""
"demographics","survey-html-form","145","1079414","0.0-145.0","","656776a7904ae00d6b91d1dd","6568a9ef36db0d5f2be75e1c","8","","","","","","","","","","","","32816","","{""age"":""61"",""sex"":""male"",""gender"":""man"",""gender-self-describe"":"""",""zipcode"":""20852""}","","","","","","","","","","","",""
"demographics-list","survey","146","1113789","0.0-146.0","","656776a7904ae00d6b91d1dd","6568a9ef36db0d5f2be75e1c","8","","","","","","","","","","","","34349","","{""P0_Q0"":null,""race-ethnicity"":[""White or of European ancestry""],""education"":""Graduate & professional degrees"",""P1_Q0"":null,""ideology"":""Liberal"",""P2_Q0"":null,""num-moves"":0,""P3_Q0"":null,""social-ladder"":5}","","","","","","","[]","","","","",""
"end-survey","survey-text","147","1170960","0.0-147.0","","656776a7904ae00d6b91d1dd","6568a9ef36db0d5f2be75e1c","8","","","","","","","","","","","","57125","","{""Q0"":""The cops were pretty much the same. Two persons smiling and not smiling.""}","","","","","","","","","","","","2"
"end-survey","html-button-response","148","1176031","0.0-148.0","","656776a7904ae00d6b91d1dd","6568a9ef36db0d5f2be75e1c","8","","","","","","","","","","","","5070","
    You've reached the end of the survey. <br><br> 
    <b>Do not close or refresh this window.</b><br>
    On the next page, you will be automatically redirected to Prolific. <br><br>

    <div class=""alert alert-warning""><b>
    </div>
","0","","","","","","","","","","","",""
