"task","trial_type","trial_index","time_elapsed","internal_node_id","subject_id","study_id","session_id","section","width","height","webaudio","browser","browser_version","mobile","os","fullscreen","vsync_rate","webcam","microphone","rt","stimulus","response","success","timeout","failed_images","failed_audio","failed_video","block","accuracy","slider_start","choices","standardized_response","correct","num_attention_checks_correct"
"pavlovia-init","pavlovia","0","2422","0.0-0.0","","656776a7904ae00d6b91d1dd","6568aa600592cb173acc433c","9","","","","","","","","","","","","","","","","","","","","","","","","","",""
"browser-check","browser-check","1","3418","0.0-1.0","","656776a7904ae00d6b91d1dd","6568aa600592cb173acc433c","9","958","993","true","chrome","118.0.0","false","Windows 10","true","60.87","true","true","","","","","","","","","","","","","","",""
"consent","html-button-response","2","313507","0.0-2.0","","656776a7904ae00d6b91d1dd","6568aa600592cb173acc433c","9","","","","","","","","","","","","310088","
        <div style=""font-size: 80%; max-width:700px"">
            <h2>CONSENT FORM</h2>
        
            <div style=""text-align: left"">
            <h4>DESCRIPTION</h4>
            <p>
            You will complete a short task where you give your impressions of various neighborhoods and assign individuals to those spaces, and answer some questions about your thoughts and opinions.<br>
            The University of Michigan Institutional Review Board Health Sciences and Behavioral Sciences has determined that this study is exempt from IRB oversight.
            </p>

            <h4>TIME INVOLVEMENT</h4>
            <p>Your participation will take approximately 15 minutes. You will receive $3.15 upon completion of the study.</p>
        
            <h4>RISKS AND BENEFITS</h4>
            <p>
            The risks associated with this study are minimal. The benefits which may reasonably be expected to result from this study are none. We cannot and do not guarantee or promise that you will receive any benefits from this study.
            </p>
          
            <h4>SUBJECT'S RIGHTS</h4>
            <p>
            If you have read this form and have decided to participate in this project, please understand your participation is voluntary and you have the right to withdraw your consent or discontinue participation at any time without penalty or loss of benefits to which you are otherwise entitled. The alternative is not to participate. You have the right to refuse to answer particular questions. Your individual privacy will be maintained in all published and written data resulting from the study.
            </p>

            <h4>HUMAN SUBJECT APPROVAL</h4>
            <p>
            This study is exempt from ongoing IRB review.
            </p>

            <h4>CONTACT INFORMATION</h4>
            If you have any questions, concerns or complaints about this research, its procedures, risks and benefits, contact the Protocol Director, Nicholas Camp, npcamp@umich.edu, (443) 851-6783. <br>

            If you have questions about your rights as a research participant, or wish to obtain information, ask questions or discuss any concerns about this study with someone other than the researcher(s), please contact the following:<br><br>
            University of Michigan<br>
            Health Sciences and Behavioral Sciences Institutional Review Board (IRB-HSBS)<br>
            2800 Plymouth Road<br>
            Building 520, Room 1169Ann Arbor, MI 48109-2800<br>
            Telephone: 734-936-0933 or toll free (866) 936-0933<br>
            Fax: 734-936-1852<br>
            E-mail: irbhsbs@umich.edu<br><br>

            You can also contact the University of Michigan Compliance Hotline at 1-866-990-0111. You may also print this consent form to keep.
            <br><br>
            <div class=""alert alert-warning""><b>
            Do you consent to participate in this study? If you consent to participate in this study, please click “Accept and Continue”. If you select ""Decline and Exit"", you will be exited from the survey. <br>
            </b></div>
            </div>
        </div>
    ","1","","","","","","","","","","","",""
"","preload","3","335258","0.0-3.0","","656776a7904ae00d6b91d1dd","6568aa600592cb173acc433c","9","","","","","","","","","","","","","","","true","false","[]","[]","[]","","","","","","",""
"instructions","html-button-response","4","367240","0.0-4.0","","656776a7904ae00d6b91d1dd","6568aa600592cb173acc433c","9","","","","","","","","","","","","31981","
        <div class=""text-container"">
        <h1>Welcome to the study!</h1>
        
        <div class=""text-left"">
            <p>
                In this study, we are interested in what people can tell about spaces from Google Street View images. <br> Google Street View takes pictures of streets used for Google Earth and Google Maps. <br>You’ll see Google Street View images of different places and answer some questions about each one.<br>
            </p>
        </div>
        <img src = ""assets/img/example.png"" width = 500px, height = auto>
        <br>
    <br>
    ","0","","","","","","","","","","","",""
"instructions","html-button-response","5","710175","0.0-5.0","","656776a7904ae00d6b91d1dd","6568aa600592cb173acc433c","9","","","","","","","","","","","","342934","
    <div class=""text-container"">
        <div class=""text-center"">
            <p>Please remember that your answers are completely anonymous.<br>Go with your gut response- there are no right or wrong answers!</p>
        </div>
    <br>
","0","","","","","","","","","","","",""
"before_SVSlide_prompt","html-button-response","6","711488","0.0-6.0","","656776a7904ae00d6b91d1dd","6568aa600592cb173acc433c","9","","","","","","","","","","","","1312","Click [Next] to see the next neighborhood!","0","","","","","","","","","","","",""
"street view slide show","image-button-response","7","712494","0.0-7.0","","656776a7904ae00d6b91d1dd","6568aa600592cb173acc433c","9","","","","","","","","","","","","null","stimulus/SV_PolicingMSA/NV_173/IMG_7_173.jpg","null","","","","","","3","","","","","",""
"street view slide show","image-button-response","8","713944","0.0-8.0","","656776a7904ae00d6b91d1dd","6568aa600592cb173acc433c","9","","","","","","","","","","","","null","stimulus/SV_PolicingMSA/NV_173/IMG_4_173.jpg","null","","","","","","3","","","","","",""
"street view slide show","image-button-response","9","714956","0.0-9.0","","656776a7904ae00d6b91d1dd","6568aa600592cb173acc433c","9","","","","","","","","","","","","null","stimulus/SV_PolicingMSA/NV_173/IMG_6_173.jpg","null","","","","","","3","","","","","",""
"street view slide show","image-button-response","10","715969","0.0-10.0","","656776a7904ae00d6b91d1dd","6568aa600592cb173acc433c","9","","","","","","","","","","","","null","stimulus/SV_PolicingMSA/NV_173/IMG_14_173.jpg","null","","","","","","3","","","","","",""
"street view slide show","image-button-response","11","716979","0.0-11.0","","656776a7904ae00d6b91d1dd","6568aa600592cb173acc433c","9","","","","","","","","","","","","null","stimulus/SV_PolicingMSA/NV_173/IMG_10_173.jpg","null","","","","","","3","","","","","",""
"street view slide show","image-button-response","12","717993","0.0-12.0","","656776a7904ae00d6b91d1dd","6568aa600592cb173acc433c","9","","","","","","","","","","","","null","stimulus/SV_PolicingMSA/NV_173/IMG_8_173.jpg","null","","","","","","3","","","","","",""
"street view slide show","image-button-response","13","719007","0.0-13.0","","656776a7904ae00d6b91d1dd","6568aa600592cb173acc433c","9","","","","","","","","","","","","null","stimulus/SV_PolicingMSA/NV_173/IMG_13_173.jpg","null","","","","","","3","","","","","",""
"street view slide show","image-button-response","14","720018","0.0-14.0","","656776a7904ae00d6b91d1dd","6568aa600592cb173acc433c","9","","","","","","","","","","","","null","stimulus/SV_PolicingMSA/NV_173/IMG_0_173.jpg","null","","","","","","3","","","","","",""
"dot matrix survey1","survey","15","839126","0.0-15.0","","656776a7904ae00d6b91d1dd","6568aa600592cb173acc433c","9","","","","","","","","","","","","119022","","{""P0_Q0"":null,""P0_Q1"":{""wealthy"":2,""safe"":2,""walkable"":2,""traditional"":2,""diverse"":2}}","","","","","","3","[]","","","","",""
"dot matrix survey2","survey","16","844506","0.0-16.0","","656776a7904ae00d6b91d1dd","6568aa600592cb173acc433c","9","","","","","","","","","","","","5368","","{""P0_Q0"":null,""P0_Q1"":{""violence"":2,""drug"":2,""crime"":2,""schools"":2,""opportunities"":2}}","","","","","","3","[]","","","","",""
"dot matrix survey3","survey","17","854343","0.0-17.0","","656776a7904ae00d6b91d1dd","6568aa600592cb173acc433c","9","","","","","","","","","","","","9829","","{""P0_Q0"":null,""P0_Q1"":{""movein"":2,""shopping"":2,""walk"":2,""school"":2,""park"":2,""moveout"":2}}","","","","","","3","[]","","","","",""
"sliderTrial","html-slider-response","18","857279","0.0-18.0","","656776a7904ae00d6b91d1dd","6568aa600592cb173acc433c","9","","","","","","","","","","","","2934","[""SV_PolicingMSA/NV_173/IMG_7_173.jpg"",""SV_PolicingMSA/NV_173/IMG_4_173.jpg"",""SV_PolicingMSA/NV_173/IMG_6_173.jpg"",""SV_PolicingMSA/NV_173/IMG_14_173.jpg"",""SV_PolicingMSA/NV_173/IMG_10_173.jpg"",""SV_PolicingMSA/NV_173/IMG_8_173.jpg"",""SV_PolicingMSA/NV_173/IMG_13_173.jpg"",""SV_PolicingMSA/NV_173/IMG_0_173.jpg""]","5","","","","","","3","","4","[""./rc_img/cop_condGroup_18_SafeStreets_autoscaled.png"",""./rc_img/cop_condGroup_18_CommunitySafety_autoscaled.png""]","3","",""
"sliderTrial","html-slider-response","19","859619","0.0-19.0","","656776a7904ae00d6b91d1dd","6568aa600592cb173acc433c","9","","","","","","","","","","","","2338","[""SV_PolicingMSA/NV_173/IMG_7_173.jpg"",""SV_PolicingMSA/NV_173/IMG_4_173.jpg"",""SV_PolicingMSA/NV_173/IMG_6_173.jpg"",""SV_PolicingMSA/NV_173/IMG_14_173.jpg"",""SV_PolicingMSA/NV_173/IMG_10_173.jpg"",""SV_PolicingMSA/NV_173/IMG_8_173.jpg"",""SV_PolicingMSA/NV_173/IMG_13_173.jpg"",""SV_PolicingMSA/NV_173/IMG_0_173.jpg""]","4","","","","","","3","","4","[""./rc_img/cop_condGroup_17_SafeStreets_autoscaled.png"",""./rc_img/cop_condGroup_17_CommunitySafety_autoscaled.png""]","4","",""
"sliderTrial","html-slider-response","20","860842","0.0-20.0","","656776a7904ae00d6b91d1dd","6568aa600592cb173acc433c","9","","","","","","","","","","","","1221","[""SV_PolicingMSA/NV_173/IMG_7_173.jpg"",""SV_PolicingMSA/NV_173/IMG_4_173.jpg"",""SV_PolicingMSA/NV_173/IMG_6_173.jpg"",""SV_PolicingMSA/NV_173/IMG_14_173.jpg"",""SV_PolicingMSA/NV_173/IMG_10_173.jpg"",""SV_PolicingMSA/NV_173/IMG_8_173.jpg"",""SV_PolicingMSA/NV_173/IMG_13_173.jpg"",""SV_PolicingMSA/NV_173/IMG_0_173.jpg""]","4","","","","","","3","","4","[""./rc_img/cop_condGroup_2_CommunitySafety_autoscaled.png"",""./rc_img/cop_condGroup_2_SafeStreets_autoscaled.png""]","4","",""
"sliderTrial","html-slider-response","21","862342","0.0-21.0","","656776a7904ae00d6b91d1dd","6568aa600592cb173acc433c","9","","","","","","","","","","","","1499","[""SV_PolicingMSA/NV_173/IMG_7_173.jpg"",""SV_PolicingMSA/NV_173/IMG_4_173.jpg"",""SV_PolicingMSA/NV_173/IMG_6_173.jpg"",""SV_PolicingMSA/NV_173/IMG_14_173.jpg"",""SV_PolicingMSA/NV_173/IMG_10_173.jpg"",""SV_PolicingMSA/NV_173/IMG_8_173.jpg"",""SV_PolicingMSA/NV_173/IMG_13_173.jpg"",""SV_PolicingMSA/NV_173/IMG_0_173.jpg""]","4","","","","","","3","","4","[""./rc_img/cop_condGroup_20_CommunitySafety_autoscaled.png"",""./rc_img/cop_condGroup_20_SafeStreets_autoscaled.png""]","4","",""
"sliderTrial","html-slider-response","22","863227","0.0-22.0","","656776a7904ae00d6b91d1dd","6568aa600592cb173acc433c","9","","","","","","","","","","","","883","[""SV_PolicingMSA/NV_173/IMG_7_173.jpg"",""SV_PolicingMSA/NV_173/IMG_4_173.jpg"",""SV_PolicingMSA/NV_173/IMG_6_173.jpg"",""SV_PolicingMSA/NV_173/IMG_14_173.jpg"",""SV_PolicingMSA/NV_173/IMG_10_173.jpg"",""SV_PolicingMSA/NV_173/IMG_8_173.jpg"",""SV_PolicingMSA/NV_173/IMG_13_173.jpg"",""SV_PolicingMSA/NV_173/IMG_0_173.jpg""]","4","","","","","","3","","4","[""./rc_img/cop_condGroup_19_SafeStreets_autoscaled.png"",""./rc_img/cop_condGroup_19_CommunitySafety_autoscaled.png""]","4","",""
"before_SVSlide_prompt","html-button-response","23","864749","0.0-23.0","","656776a7904ae00d6b91d1dd","6568aa600592cb173acc433c","9","","","","","","","","","","","","1521","Click [Next] to see the next neighborhood!","0","","","","","","","","","","","",""
"street view slide show","image-button-response","24","865752","0.0-24.0","","656776a7904ae00d6b91d1dd","6568aa600592cb173acc433c","9","","","","","","","","","","","","null","stimulus/SV_PolicingMSA/NV_0/IMG_5_0.jpg","null","","","","","","0","","","","","",""
"street view slide show","image-button-response","25","866759","0.0-25.0","","656776a7904ae00d6b91d1dd","6568aa600592cb173acc433c","9","","","","","","","","","","","","null","stimulus/SV_PolicingMSA/NV_0/IMG_0_0.jpg","null","","","","","","0","","","","","",""
"street view slide show","image-button-response","26","867771","0.0-26.0","","656776a7904ae00d6b91d1dd","6568aa600592cb173acc433c","9","","","","","","","","","","","","null","stimulus/SV_PolicingMSA/NV_0/IMG_4_0.jpg","null","","","","","","0","","","","","",""
"street view slide show","image-button-response","27","868788","0.0-27.0","","656776a7904ae00d6b91d1dd","6568aa600592cb173acc433c","9","","","","","","","","","","","","null","stimulus/SV_PolicingMSA/NV_0/IMG_12_0.jpg","null","","","","","","0","","","","","",""
"street view slide show","image-button-response","28","869804","0.0-28.0","","656776a7904ae00d6b91d1dd","6568aa600592cb173acc433c","9","","","","","","","","","","","","null","stimulus/SV_PolicingMSA/NV_0/IMG_13_0.jpg","null","","","","","","0","","","","","",""
"street view slide show","image-button-response","29","870814","0.0-29.0","","656776a7904ae00d6b91d1dd","6568aa600592cb173acc433c","9","","","","","","","","","","","","null","stimulus/SV_PolicingMSA/NV_0/IMG_7_0.jpg","null","","","","","","0","","","","","",""
"street view slide show","image-button-response","30","871824","0.0-30.0","","656776a7904ae00d6b91d1dd","6568aa600592cb173acc433c","9","","","","","","","","","","","","null","stimulus/SV_PolicingMSA/NV_0/IMG_11_0.jpg","null","","","","","","0","","","","","",""
"street view slide show","image-button-response","31","872827","0.0-31.0","","656776a7904ae00d6b91d1dd","6568aa600592cb173acc433c","9","","","","","","","","","","","","null","stimulus/SV_PolicingMSA/NV_0/IMG_14_0.jpg","null","","","","","","0","","","","","",""
"dot matrix survey1","survey","32","878512","0.0-32.0","","656776a7904ae00d6b91d1dd","6568aa600592cb173acc433c","9","","","","","","","","","","","","5655","","{""P0_Q0"":null,""P0_Q1"":{""diverse"":2,""traditional"":2,""wealthy"":2,""safe"":2,""walkable"":2}}","","","","","","0","[]","","","","",""
"dot matrix survey2","survey","33","883176","0.0-33.0","","656776a7904ae00d6b91d1dd","6568aa600592cb173acc433c","9","","","","","","","","","","","","4648","","{""P0_Q0"":null,""P0_Q1"":{""violence"":2,""crime"":2,""drug"":2,""schools"":2,""opportunities"":2}}","","","","","","0","[]","","","","",""
"dot matrix survey3","survey","34","889530","0.0-34.0","","656776a7904ae00d6b91d1dd","6568aa600592cb173acc433c","9","","","","","","","","","","","","6348","","{""P0_Q0"":null,""P0_Q1"":{""moveout"":2,""movein"":2,""shopping"":2,""walk"":2,""park"":2,""school"":2}}","","","","","","0","[]","","","","",""
"sliderTrial_attention","html-slider-response","35","899538","0.0-35.0","","656776a7904ae00d6b91d1dd","6568aa600592cb173acc433c","9","","","","","","","","","","","","null","[""SV_PolicingMSA/NV_0/IMG_5_0.jpg"",""SV_PolicingMSA/NV_0/IMG_0_0.jpg"",""SV_PolicingMSA/NV_0/IMG_4_0.jpg"",""SV_PolicingMSA/NV_0/IMG_12_0.jpg"",""SV_PolicingMSA/NV_0/IMG_13_0.jpg"",""SV_PolicingMSA/NV_0/IMG_7_0.jpg"",""SV_PolicingMSA/NV_0/IMG_11_0.jpg"",""SV_PolicingMSA/NV_0/IMG_14_0.jpg""]","null","","","","","","0","","4","[""./assets/img/attnchk.png"",""./assets/img/attnchk.png""]","","true",""
"sliderTrial","html-slider-response","36","901837","0.0-36.0","","656776a7904ae00d6b91d1dd","6568aa600592cb173acc433c","9","","","","","","","","","","","","2293","[""SV_PolicingMSA/NV_0/IMG_5_0.jpg"",""SV_PolicingMSA/NV_0/IMG_0_0.jpg"",""SV_PolicingMSA/NV_0/IMG_4_0.jpg"",""SV_PolicingMSA/NV_0/IMG_12_0.jpg"",""SV_PolicingMSA/NV_0/IMG_13_0.jpg"",""SV_PolicingMSA/NV_0/IMG_7_0.jpg"",""SV_PolicingMSA/NV_0/IMG_11_0.jpg"",""SV_PolicingMSA/NV_0/IMG_14_0.jpg""]","4","","","","","","0","","4","[""./rc_img/cop_condGroup_1_SafeStreets_autoscaled.png"",""./rc_img/cop_condGroup_1_CommunitySafety_autoscaled.png""]","4","",""
"sliderTrial","html-slider-response","37","902407","0.0-37.0","","656776a7904ae00d6b91d1dd","6568aa600592cb173acc433c","9","","","","","","","","","","","","568","[""SV_PolicingMSA/NV_0/IMG_5_0.jpg"",""SV_PolicingMSA/NV_0/IMG_0_0.jpg"",""SV_PolicingMSA/NV_0/IMG_4_0.jpg"",""SV_PolicingMSA/NV_0/IMG_12_0.jpg"",""SV_PolicingMSA/NV_0/IMG_13_0.jpg"",""SV_PolicingMSA/NV_0/IMG_7_0.jpg"",""SV_PolicingMSA/NV_0/IMG_11_0.jpg"",""SV_PolicingMSA/NV_0/IMG_14_0.jpg""]","4","","","","","","0","","4","[""./rc_img/cop_condGroup_5_SafeStreets_autoscaled.png"",""./rc_img/cop_condGroup_5_CommunitySafety_autoscaled.png""]","4","",""
"sliderTrial","html-slider-response","38","903082","0.0-38.0","","656776a7904ae00d6b91d1dd","6568aa600592cb173acc433c","9","","","","","","","","","","","","673","[""SV_PolicingMSA/NV_0/IMG_5_0.jpg"",""SV_PolicingMSA/NV_0/IMG_0_0.jpg"",""SV_PolicingMSA/NV_0/IMG_4_0.jpg"",""SV_PolicingMSA/NV_0/IMG_12_0.jpg"",""SV_PolicingMSA/NV_0/IMG_13_0.jpg"",""SV_PolicingMSA/NV_0/IMG_7_0.jpg"",""SV_PolicingMSA/NV_0/IMG_11_0.jpg"",""SV_PolicingMSA/NV_0/IMG_14_0.jpg""]","4","","","","","","0","","4","[""./rc_img/cop_condGroup_8_CommunitySafety_autoscaled.png"",""./rc_img/cop_condGroup_8_SafeStreets_autoscaled.png""]","4","",""
"sliderTrial","html-slider-response","39","903532","0.0-39.0","","656776a7904ae00d6b91d1dd","6568aa600592cb173acc433c","9","","","","","","","","","","","","448","[""SV_PolicingMSA/NV_0/IMG_5_0.jpg"",""SV_PolicingMSA/NV_0/IMG_0_0.jpg"",""SV_PolicingMSA/NV_0/IMG_4_0.jpg"",""SV_PolicingMSA/NV_0/IMG_12_0.jpg"",""SV_PolicingMSA/NV_0/IMG_13_0.jpg"",""SV_PolicingMSA/NV_0/IMG_7_0.jpg"",""SV_PolicingMSA/NV_0/IMG_11_0.jpg"",""SV_PolicingMSA/NV_0/IMG_14_0.jpg""]","4","","","","","","0","","4","[""./rc_img/cop_condGroup_12_SafeStreets_autoscaled.png"",""./rc_img/cop_condGroup_12_CommunitySafety_autoscaled.png""]","4","",""
"sliderTrial","html-slider-response","40","904064","0.0-40.0","","656776a7904ae00d6b91d1dd","6568aa600592cb173acc433c","9","","","","","","","","","","","","531","[""SV_PolicingMSA/NV_0/IMG_5_0.jpg"",""SV_PolicingMSA/NV_0/IMG_0_0.jpg"",""SV_PolicingMSA/NV_0/IMG_4_0.jpg"",""SV_PolicingMSA/NV_0/IMG_12_0.jpg"",""SV_PolicingMSA/NV_0/IMG_13_0.jpg"",""SV_PolicingMSA/NV_0/IMG_7_0.jpg"",""SV_PolicingMSA/NV_0/IMG_11_0.jpg"",""SV_PolicingMSA/NV_0/IMG_14_0.jpg""]","4","","","","","","0","","4","[""./rc_img/cop_condGroup_6_CommunitySafety_autoscaled.png"",""./rc_img/cop_condGroup_6_SafeStreets_autoscaled.png""]","4","",""
"before_SVSlide_prompt","html-button-response","41","905438","0.0-41.0","","656776a7904ae00d6b91d1dd","6568aa600592cb173acc433c","9","","","","","","","","","","","","1373","Click [Next] to see the next neighborhood!","0","","","","","","","","","","","",""
"street view slide show","image-button-response","42","906454","0.0-42.0","","656776a7904ae00d6b91d1dd","6568aa600592cb173acc433c","9","","","","","","","","","","","","null","stimulus/SV_PolicingMSA/NV_329/IMG_12_329.jpg","null","","","","","","2","","","","","",""
"street view slide show","image-button-response","43","907470","0.0-43.0","","656776a7904ae00d6b91d1dd","6568aa600592cb173acc433c","9","","","","","","","","","","","","null","stimulus/SV_PolicingMSA/NV_329/IMG_6_329.jpg","null","","","","","","2","","","","","",""
"street view slide show","image-button-response","44","908484","0.0-44.0","","656776a7904ae00d6b91d1dd","6568aa600592cb173acc433c","9","","","","","","","","","","","","null","stimulus/SV_PolicingMSA/NV_329/IMG_2_329.jpg","null","","","","","","2","","","","","",""
"street view slide show","image-button-response","45","909488","0.0-45.0","","656776a7904ae00d6b91d1dd","6568aa600592cb173acc433c","9","","","","","","","","","","","","null","stimulus/SV_PolicingMSA/NV_329/IMG_10_329.jpg","null","","","","","","2","","","","","",""
"street view slide show","image-button-response","46","910499","0.0-46.0","","656776a7904ae00d6b91d1dd","6568aa600592cb173acc433c","9","","","","","","","","","","","","null","stimulus/SV_PolicingMSA/NV_329/IMG_0_329.jpg","null","","","","","","2","","","","","",""
"street view slide show","image-button-response","47","911508","0.0-47.0","","656776a7904ae00d6b91d1dd","6568aa600592cb173acc433c","9","","","","","","","","","","","","null","stimulus/SV_PolicingMSA/NV_329/IMG_13_329.jpg","null","","","","","","2","","","","","",""
"street view slide show","image-button-response","48","912521","0.0-48.0","","656776a7904ae00d6b91d1dd","6568aa600592cb173acc433c","9","","","","","","","","","","","","null","stimulus/SV_PolicingMSA/NV_329/IMG_14_329.jpg","null","","","","","","2","","","","","",""
"street view slide show","image-button-response","49","913528","0.0-49.0","","656776a7904ae00d6b91d1dd","6568aa600592cb173acc433c","9","","","","","","","","","","","","null","stimulus/SV_PolicingMSA/NV_329/IMG_1_329.jpg","null","","","","","","2","","","","","",""
"dot matrix survey1","survey","50","919487","0.0-50.0","","656776a7904ae00d6b91d1dd","6568aa600592cb173acc433c","9","","","","","","","","","","","","5925","","{""P0_Q0"":null,""P0_Q1"":{""wealthy"":3,""safe"":3,""walkable"":3,""diverse"":3,""traditional"":3}}","","","","","","2","[]","","","","",""
"dot matrix survey2","survey","51","923881","0.0-51.0","","656776a7904ae00d6b91d1dd","6568aa600592cb173acc433c","9","","","","","","","","","","","","4388","","{""P0_Q0"":null,""P0_Q1"":{""violence"":3,""crime"":3,""drug"":3,""schools"":3,""opportunities"":3}}","","","","","","2","[]","","","","",""
"dot matrix survey3","survey","52","929318","0.0-52.0","","656776a7904ae00d6b91d1dd","6568aa600592cb173acc433c","9","","","","","","","","","","","","5430","","{""P0_Q0"":null,""P0_Q1"":{""movein"":3,""shopping"":3,""moveout"":3,""walk"":3,""park"":3,""school"":3}}","","","","","","2","[]","","","","",""
"sliderTrial","html-slider-response","53","931854","0.0-53.0","","656776a7904ae00d6b91d1dd","6568aa600592cb173acc433c","9","","","","","","","","","","","","2534","[""SV_PolicingMSA/NV_329/IMG_12_329.jpg"",""SV_PolicingMSA/NV_329/IMG_6_329.jpg"",""SV_PolicingMSA/NV_329/IMG_2_329.jpg"",""SV_PolicingMSA/NV_329/IMG_10_329.jpg"",""SV_PolicingMSA/NV_329/IMG_0_329.jpg"",""SV_PolicingMSA/NV_329/IMG_13_329.jpg"",""SV_PolicingMSA/NV_329/IMG_14_329.jpg"",""SV_PolicingMSA/NV_329/IMG_1_329.jpg""]","4","","","","","","2","","4","[""./rc_img/cop_condGroup_1_SafeStreets_autoscaled.png"",""./rc_img/cop_condGroup_1_CommunitySafety_autoscaled.png""]","4","",""
"sliderTrial","html-slider-response","54","932552","0.0-54.0","","656776a7904ae00d6b91d1dd","6568aa600592cb173acc433c","9","","","","","","","","","","","","697","[""SV_PolicingMSA/NV_329/IMG_12_329.jpg"",""SV_PolicingMSA/NV_329/IMG_6_329.jpg"",""SV_PolicingMSA/NV_329/IMG_2_329.jpg"",""SV_PolicingMSA/NV_329/IMG_10_329.jpg"",""SV_PolicingMSA/NV_329/IMG_0_329.jpg"",""SV_PolicingMSA/NV_329/IMG_13_329.jpg"",""SV_PolicingMSA/NV_329/IMG_14_329.jpg"",""SV_PolicingMSA/NV_329/IMG_1_329.jpg""]","4","","","","","","2","","4","[""./rc_img/cop_condGroup_5_SafeStreets_autoscaled.png"",""./rc_img/cop_condGroup_5_CommunitySafety_autoscaled.png""]","4","",""
"sliderTrial","html-slider-response","55","933459","0.0-55.0","","656776a7904ae00d6b91d1dd","6568aa600592cb173acc433c","9","","","","","","","","","","","","905","[""SV_PolicingMSA/NV_329/IMG_12_329.jpg"",""SV_PolicingMSA/NV_329/IMG_6_329.jpg"",""SV_PolicingMSA/NV_329/IMG_2_329.jpg"",""SV_PolicingMSA/NV_329/IMG_10_329.jpg"",""SV_PolicingMSA/NV_329/IMG_0_329.jpg"",""SV_PolicingMSA/NV_329/IMG_13_329.jpg"",""SV_PolicingMSA/NV_329/IMG_14_329.jpg"",""SV_PolicingMSA/NV_329/IMG_1_329.jpg""]","4","","","","","","2","","4","[""./rc_img/cop_condGroup_8_CommunitySafety_autoscaled.png"",""./rc_img/cop_condGroup_8_SafeStreets_autoscaled.png""]","4","",""
"sliderTrial","html-slider-response","56","934067","0.0-56.0","","656776a7904ae00d6b91d1dd","6568aa600592cb173acc433c","9","","","","","","","","","","","","607","[""SV_PolicingMSA/NV_329/IMG_12_329.jpg"",""SV_PolicingMSA/NV_329/IMG_6_329.jpg"",""SV_PolicingMSA/NV_329/IMG_2_329.jpg"",""SV_PolicingMSA/NV_329/IMG_10_329.jpg"",""SV_PolicingMSA/NV_329/IMG_0_329.jpg"",""SV_PolicingMSA/NV_329/IMG_13_329.jpg"",""SV_PolicingMSA/NV_329/IMG_14_329.jpg"",""SV_PolicingMSA/NV_329/IMG_1_329.jpg""]","4","","","","","","2","","4","[""./rc_img/cop_condGroup_12_SafeStreets_autoscaled.png"",""./rc_img/cop_condGroup_12_CommunitySafety_autoscaled.png""]","4","",""
"sliderTrial","html-slider-response","57","934374","0.0-57.0","","656776a7904ae00d6b91d1dd","6568aa600592cb173acc433c","9","","","","","","","","","","","","306","[""SV_PolicingMSA/NV_329/IMG_12_329.jpg"",""SV_PolicingMSA/NV_329/IMG_6_329.jpg"",""SV_PolicingMSA/NV_329/IMG_2_329.jpg"",""SV_PolicingMSA/NV_329/IMG_10_329.jpg"",""SV_PolicingMSA/NV_329/IMG_0_329.jpg"",""SV_PolicingMSA/NV_329/IMG_13_329.jpg"",""SV_PolicingMSA/NV_329/IMG_14_329.jpg"",""SV_PolicingMSA/NV_329/IMG_1_329.jpg""]","4","","","","","","2","","4","[""./rc_img/cop_condGroup_6_CommunitySafety_autoscaled.png"",""./rc_img/cop_condGroup_6_SafeStreets_autoscaled.png""]","4","",""
"before_SVSlide_prompt","html-button-response","58","935544","0.0-58.0","","656776a7904ae00d6b91d1dd","6568aa600592cb173acc433c","9","","","","","","","","","","","","1169","Click [Next] to see the next neighborhood!","0","","","","","","","","","","","",""
"street view slide show","image-button-response","59","936551","0.0-59.0","","656776a7904ae00d6b91d1dd","6568aa600592cb173acc433c","9","","","","","","","","","","","","null","stimulus/SV_PolicingMSA/NV_189/IMG_9_189.jpg","null","","","","","","1","","","","","",""
"street view slide show","image-button-response","60","937567","0.0-60.0","","656776a7904ae00d6b91d1dd","6568aa600592cb173acc433c","9","","","","","","","","","","","","null","stimulus/SV_PolicingMSA/NV_189/IMG_5_189.jpg","null","","","","","","1","","","","","",""
"street view slide show","image-button-response","61","938577","0.0-61.0","","656776a7904ae00d6b91d1dd","6568aa600592cb173acc433c","9","","","","","","","","","","","","null","stimulus/SV_PolicingMSA/NV_189/IMG_7_189.jpg","null","","","","","","1","","","","","",""
"street view slide show","image-button-response","62","939591","0.0-62.0","","656776a7904ae00d6b91d1dd","6568aa600592cb173acc433c","9","","","","","","","","","","","","null","stimulus/SV_PolicingMSA/NV_189/IMG_8_189.jpg","null","","","","","","1","","","","","",""
"street view slide show","image-button-response","63","940597","0.0-63.0","","656776a7904ae00d6b91d1dd","6568aa600592cb173acc433c","9","","","","","","","","","","","","null","stimulus/SV_PolicingMSA/NV_189/IMG_4_189.jpg","null","","","","","","1","","","","","",""
"street view slide show","image-button-response","64","941601","0.0-64.0","","656776a7904ae00d6b91d1dd","6568aa600592cb173acc433c","9","","","","","","","","","","","","null","stimulus/SV_PolicingMSA/NV_189/IMG_11_189.jpg","null","","","","","","1","","","","","",""
"street view slide show","image-button-response","65","942617","0.0-65.0","","656776a7904ae00d6b91d1dd","6568aa600592cb173acc433c","9","","","","","","","","","","","","null","stimulus/SV_PolicingMSA/NV_189/IMG_10_189.jpg","null","","","","","","1","","","","","",""
"street view slide show","image-button-response","66","943624","0.0-66.0","","656776a7904ae00d6b91d1dd","6568aa600592cb173acc433c","9","","","","","","","","","","","","null","stimulus/SV_PolicingMSA/NV_189/IMG_6_189.jpg","null","","","","","","1","","","","","",""
"dot matrix survey1","survey","67","947123","0.0-67.0","","656776a7904ae00d6b91d1dd","6568aa600592cb173acc433c","9","","","","","","","","","","","","3462","","{""P0_Q0"":null,""P0_Q1"":{""wealthy"":3,""safe"":3,""walkable"":3,""traditional"":3,""diverse"":3}}","","","","","","1","[]","","","","",""
"dot matrix survey2","survey","68","951706","0.0-68.0","","656776a7904ae00d6b91d1dd","6568aa600592cb173acc433c","9","","","","","","","","","","","","4575","","{""P0_Q0"":null,""P0_Q1"":{""crime"":3,""violence"":3,""drug"":3,""opportunities"":3,""schools"":3}}","","","","","","1","[]","","","","",""
"dot matrix survey3","survey","69","957805","0.0-69.0","","656776a7904ae00d6b91d1dd","6568aa600592cb173acc433c","9","","","","","","","","","","","","6091","","{""P0_Q0"":null,""P0_Q1"":{""movein"":3,""moveout"":3,""shopping"":3,""walk"":3,""park"":3,""school"":3}}","","","","","","1","[]","","","","",""
"sliderTrial","html-slider-response","70","959388","0.0-70.0","","656776a7904ae00d6b91d1dd","6568aa600592cb173acc433c","9","","","","","","","","","","","","1581","[""SV_PolicingMSA/NV_189/IMG_9_189.jpg"",""SV_PolicingMSA/NV_189/IMG_5_189.jpg"",""SV_PolicingMSA/NV_189/IMG_7_189.jpg"",""SV_PolicingMSA/NV_189/IMG_8_189.jpg"",""SV_PolicingMSA/NV_189/IMG_4_189.jpg"",""SV_PolicingMSA/NV_189/IMG_11_189.jpg"",""SV_PolicingMSA/NV_189/IMG_10_189.jpg"",""SV_PolicingMSA/NV_189/IMG_6_189.jpg""]","4","","","","","","1","","4","[""./rc_img/cop_condGroup_18_SafeStreets_autoscaled.png"",""./rc_img/cop_condGroup_18_CommunitySafety_autoscaled.png""]","4","",""
"sliderTrial","html-slider-response","71","960289","0.0-71.0","","656776a7904ae00d6b91d1dd","6568aa600592cb173acc433c","9","","","","","","","","","","","","898","[""SV_PolicingMSA/NV_189/IMG_9_189.jpg"",""SV_PolicingMSA/NV_189/IMG_5_189.jpg"",""SV_PolicingMSA/NV_189/IMG_7_189.jpg"",""SV_PolicingMSA/NV_189/IMG_8_189.jpg"",""SV_PolicingMSA/NV_189/IMG_4_189.jpg"",""SV_PolicingMSA/NV_189/IMG_11_189.jpg"",""SV_PolicingMSA/NV_189/IMG_10_189.jpg"",""SV_PolicingMSA/NV_189/IMG_6_189.jpg""]","4","","","","","","1","","4","[""./rc_img/cop_condGroup_17_SafeStreets_autoscaled.png"",""./rc_img/cop_condGroup_17_CommunitySafety_autoscaled.png""]","4","",""
"sliderTrial","html-slider-response","72","961189","0.0-72.0","","656776a7904ae00d6b91d1dd","6568aa600592cb173acc433c","9","","","","","","","","","","","","898","[""SV_PolicingMSA/NV_189/IMG_9_189.jpg"",""SV_PolicingMSA/NV_189/IMG_5_189.jpg"",""SV_PolicingMSA/NV_189/IMG_7_189.jpg"",""SV_PolicingMSA/NV_189/IMG_8_189.jpg"",""SV_PolicingMSA/NV_189/IMG_4_189.jpg"",""SV_PolicingMSA/NV_189/IMG_11_189.jpg"",""SV_PolicingMSA/NV_189/IMG_10_189.jpg"",""SV_PolicingMSA/NV_189/IMG_6_189.jpg""]","4","","","","","","1","","4","[""./rc_img/cop_condGroup_2_CommunitySafety_autoscaled.png"",""./rc_img/cop_condGroup_2_SafeStreets_autoscaled.png""]","4","",""
"sliderTrial_attention","html-slider-response","73","971205","0.0-73.0","","656776a7904ae00d6b91d1dd","6568aa600592cb173acc433c","9","","","","","","","","","","","","null","[""SV_PolicingMSA/NV_189/IMG_9_189.jpg"",""SV_PolicingMSA/NV_189/IMG_5_189.jpg"",""SV_PolicingMSA/NV_189/IMG_7_189.jpg"",""SV_PolicingMSA/NV_189/IMG_8_189.jpg"",""SV_PolicingMSA/NV_189/IMG_4_189.jpg"",""SV_PolicingMSA/NV_189/IMG_11_189.jpg"",""SV_PolicingMSA/NV_189/IMG_10_189.jpg"",""SV_PolicingMSA/NV_189/IMG_6_189.jpg""]","null","","","","","","1","","4","[""./assets/img/attnchk.png"",""./assets/img/attnchk.png""]","","true",""
"sliderTrial","html-slider-response","74","976429","0.0-74.0","","656776a7904ae00d6b91d1dd","6568aa600592cb173acc433c","9","","","","","","","","","","","","5218","[""SV_PolicingMSA/NV_189/IMG_9_189.jpg"",""SV_PolicingMSA/NV_189/IMG_5_189.jpg"",""SV_PolicingMSA/NV_189/IMG_7_189.jpg"",""SV_PolicingMSA/NV_189/IMG_8_189.jpg"",""SV_PolicingMSA/NV_189/IMG_4_189.jpg"",""SV_PolicingMSA/NV_189/IMG_11_189.jpg"",""SV_PolicingMSA/NV_189/IMG_10_189.jpg"",""SV_PolicingMSA/NV_189/IMG_6_189.jpg""]","4","","","","","","1","","4","[""./rc_img/cop_condGroup_20_CommunitySafety_autoscaled.png"",""./rc_img/cop_condGroup_20_SafeStreets_autoscaled.png""]","4","",""
"sliderTrial","html-slider-response","75","977209","0.0-75.0","","656776a7904ae00d6b91d1dd","6568aa600592cb173acc433c","9","","","","","","","","","","","","778","[""SV_PolicingMSA/NV_189/IMG_9_189.jpg"",""SV_PolicingMSA/NV_189/IMG_5_189.jpg"",""SV_PolicingMSA/NV_189/IMG_7_189.jpg"",""SV_PolicingMSA/NV_189/IMG_8_189.jpg"",""SV_PolicingMSA/NV_189/IMG_4_189.jpg"",""SV_PolicingMSA/NV_189/IMG_11_189.jpg"",""SV_PolicingMSA/NV_189/IMG_10_189.jpg"",""SV_PolicingMSA/NV_189/IMG_6_189.jpg""]","4","","","","","","1","","4","[""./rc_img/cop_condGroup_19_SafeStreets_autoscaled.png"",""./rc_img/cop_condGroup_19_CommunitySafety_autoscaled.png""]","4","",""
"half-way","html-button-response","76","980022","0.0-76.0","","656776a7904ae00d6b91d1dd","6568aa600592cb173acc433c","9","","","","","","","","","","","","2812","
    <h3>You are now half way through the study.</h3>
    <p>Please take a quick, 15-second break before you continue.</p>
    <img src='assets/img/countdown-15.gif'>
    <p>The study will automatically advance forward after the countdown is complete. <br> However, you may click ""Next"" to advance forward now if you wish.</p>
    ","0","","","","","","","","","","","",""
"before_SVSlide_prompt","html-button-response","77","981342","0.0-77.0","","656776a7904ae00d6b91d1dd","6568aa600592cb173acc433c","9","","","","","","","","","","","","1319","Click [Next] to see the next neighborhood!","0","","","","","","","","","","","",""
"street view slide show","image-button-response","78","982350","0.0-78.0","","656776a7904ae00d6b91d1dd","6568aa600592cb173acc433c","9","","","","","","","","","","","","null","stimulus/SV_PolicingMSA/NV_466/IMG_2_466.jpg","null","","","","","","3","","","","","",""
"street view slide show","image-button-response","79","983357","0.0-79.0","","656776a7904ae00d6b91d1dd","6568aa600592cb173acc433c","9","","","","","","","","","","","","null","stimulus/SV_PolicingMSA/NV_466/IMG_0_466.jpg","null","","","","","","3","","","","","",""
"street view slide show","image-button-response","80","984370","0.0-80.0","","656776a7904ae00d6b91d1dd","6568aa600592cb173acc433c","9","","","","","","","","","","","","null","stimulus/SV_PolicingMSA/NV_466/IMG_10_466.jpg","null","","","","","","3","","","","","",""
"street view slide show","image-button-response","81","985382","0.0-81.0","","656776a7904ae00d6b91d1dd","6568aa600592cb173acc433c","9","","","","","","","","","","","","null","stimulus/SV_PolicingMSA/NV_466/IMG_6_466.jpg","null","","","","","","3","","","","","",""
"street view slide show","image-button-response","82","986392","0.0-82.0","","656776a7904ae00d6b91d1dd","6568aa600592cb173acc433c","9","","","","","","","","","","","","null","stimulus/SV_PolicingMSA/NV_466/IMG_1_466.jpg","null","","","","","","3","","","","","",""
"street view slide show","image-button-response","83","987406","0.0-83.0","","656776a7904ae00d6b91d1dd","6568aa600592cb173acc433c","9","","","","","","","","","","","","null","stimulus/SV_PolicingMSA/NV_466/IMG_13_466.jpg","null","","","","","","3","","","","","",""
"street view slide show","image-button-response","84","988422","0.0-84.0","","656776a7904ae00d6b91d1dd","6568aa600592cb173acc433c","9","","","","","","","","","","","","null","stimulus/SV_PolicingMSA/NV_466/IMG_4_466.jpg","null","","","","","","3","","","","","",""
"street view slide show","image-button-response","85","989436","0.0-85.0","","656776a7904ae00d6b91d1dd","6568aa600592cb173acc433c","9","","","","","","","","","","","","null","stimulus/SV_PolicingMSA/NV_466/IMG_5_466.jpg","null","","","","","","3","","","","","",""
"dot matrix survey1","survey","86","994003","0.0-86.0","","656776a7904ae00d6b91d1dd","6568aa600592cb173acc433c","9","","","","","","","","","","","","4544","","{""P0_Q0"":null,""P0_Q1"":{""wealthy"":3,""safe"":3,""walkable"":3,""diverse"":3,""traditional"":3}}","","","","","","3","[]","","","","",""
"dot matrix survey2","survey","87","999475","0.0-87.0","","656776a7904ae00d6b91d1dd","6568aa600592cb173acc433c","9","","","","","","","","","","","","5466","","{""P0_Q0"":null,""P0_Q1"":{""violence"":3,""crime"":3,""drug"":3,""schools"":3,""opportunities"":3}}","","","","","","3","[]","","","","",""
"dot matrix survey3","survey","88","1006985","0.0-88.0","","656776a7904ae00d6b91d1dd","6568aa600592cb173acc433c","9","","","","","","","","","","","","7501","","{""P0_Q0"":null,""P0_Q1"":{""moveout"":3,""movein"":3,""school"":3,""park"":3,""walk"":3,""shopping"":3}}","","","","","","3","[]","","","","",""
"sliderTrial","html-slider-response","89","1009086","0.0-89.0","","656776a7904ae00d6b91d1dd","6568aa600592cb173acc433c","9","","","","","","","","","","","","2099","[""SV_PolicingMSA/NV_466/IMG_2_466.jpg"",""SV_PolicingMSA/NV_466/IMG_0_466.jpg"",""SV_PolicingMSA/NV_466/IMG_10_466.jpg"",""SV_PolicingMSA/NV_466/IMG_6_466.jpg"",""SV_PolicingMSA/NV_466/IMG_1_466.jpg"",""SV_PolicingMSA/NV_466/IMG_13_466.jpg"",""SV_PolicingMSA/NV_466/IMG_4_466.jpg"",""SV_PolicingMSA/NV_466/IMG_5_466.jpg""]","4","","","","","","3","","4","[""./rc_img/cop_condGroup_3_SafeStreets_autoscaled.png"",""./rc_img/cop_condGroup_3_CommunitySafety_autoscaled.png""]","4","",""
"sliderTrial","html-slider-response","90","1009678","0.0-90.0","","656776a7904ae00d6b91d1dd","6568aa600592cb173acc433c","9","","","","","","","","","","","","590","[""SV_PolicingMSA/NV_466/IMG_2_466.jpg"",""SV_PolicingMSA/NV_466/IMG_0_466.jpg"",""SV_PolicingMSA/NV_466/IMG_10_466.jpg"",""SV_PolicingMSA/NV_466/IMG_6_466.jpg"",""SV_PolicingMSA/NV_466/IMG_1_466.jpg"",""SV_PolicingMSA/NV_466/IMG_13_466.jpg"",""SV_PolicingMSA/NV_466/IMG_4_466.jpg"",""SV_PolicingMSA/NV_466/IMG_5_466.jpg""]","4","","","","","","3","","4","[""./rc_img/cop_condGroup_4_SafeStreets_autoscaled.png"",""./rc_img/cop_condGroup_4_CommunitySafety_autoscaled.png""]","4","",""
"sliderTrial","html-slider-response","91","1010241","0.0-91.0","","656776a7904ae00d6b91d1dd","6568aa600592cb173acc433c","9","","","","","","","","","","","","562","[""SV_PolicingMSA/NV_466/IMG_2_466.jpg"",""SV_PolicingMSA/NV_466/IMG_0_466.jpg"",""SV_PolicingMSA/NV_466/IMG_10_466.jpg"",""SV_PolicingMSA/NV_466/IMG_6_466.jpg"",""SV_PolicingMSA/NV_466/IMG_1_466.jpg"",""SV_PolicingMSA/NV_466/IMG_13_466.jpg"",""SV_PolicingMSA/NV_466/IMG_4_466.jpg"",""SV_PolicingMSA/NV_466/IMG_5_466.jpg""]","4","","","","","","3","","4","[""./rc_img/cop_condGroup_14_SafeStreets_autoscaled.png"",""./rc_img/cop_condGroup_14_CommunitySafety_autoscaled.png""]","4","",""
"sliderTrial","html-slider-response","92","1010879","0.0-92.0","","656776a7904ae00d6b91d1dd","6568aa600592cb173acc433c","9","","","","","","","","","","","","636","[""SV_PolicingMSA/NV_466/IMG_2_466.jpg"",""SV_PolicingMSA/NV_466/IMG_0_466.jpg"",""SV_PolicingMSA/NV_466/IMG_10_466.jpg"",""SV_PolicingMSA/NV_466/IMG_6_466.jpg"",""SV_PolicingMSA/NV_466/IMG_1_466.jpg"",""SV_PolicingMSA/NV_466/IMG_13_466.jpg"",""SV_PolicingMSA/NV_466/IMG_4_466.jpg"",""SV_PolicingMSA/NV_466/IMG_5_466.jpg""]","4","","","","","","3","","4","[""./rc_img/cop_condGroup_11_CommunitySafety_autoscaled.png"",""./rc_img/cop_condGroup_11_SafeStreets_autoscaled.png""]","4","",""
"sliderTrial","html-slider-response","93","1011486","0.0-93.0","","656776a7904ae00d6b91d1dd","6568aa600592cb173acc433c","9","","","","","","","","","","","","605","[""SV_PolicingMSA/NV_466/IMG_2_466.jpg"",""SV_PolicingMSA/NV_466/IMG_0_466.jpg"",""SV_PolicingMSA/NV_466/IMG_10_466.jpg"",""SV_PolicingMSA/NV_466/IMG_6_466.jpg"",""SV_PolicingMSA/NV_466/IMG_1_466.jpg"",""SV_PolicingMSA/NV_466/IMG_13_466.jpg"",""SV_PolicingMSA/NV_466/IMG_4_466.jpg"",""SV_PolicingMSA/NV_466/IMG_5_466.jpg""]","4","","","","","","3","","4","[""./rc_img/cop_condGroup_9_CommunitySafety_autoscaled.png"",""./rc_img/cop_condGroup_9_SafeStreets_autoscaled.png""]","4","",""
"before_SVSlide_prompt","html-button-response","94","1012769","0.0-94.0","","656776a7904ae00d6b91d1dd","6568aa600592cb173acc433c","9","","","","","","","","","","","","1283","Click [Next] to see the next neighborhood!","0","","","","","","","","","","","",""
"street view slide show","image-button-response","95","1013780","0.0-95.0","","656776a7904ae00d6b91d1dd","6568aa600592cb173acc433c","9","","","","","","","","","","","","null","stimulus/SV_PolicingMSA/NV_673/IMG_5_673.jpg","null","","","","","","5","","","","","",""
"street view slide show","image-button-response","96","1014792","0.0-96.0","","656776a7904ae00d6b91d1dd","6568aa600592cb173acc433c","9","","","","","","","","","","","","null","stimulus/SV_PolicingMSA/NV_673/IMG_1_673.jpg","null","","","","","","5","","","","","",""
"street view slide show","image-button-response","97","1015810","0.0-97.0","","656776a7904ae00d6b91d1dd","6568aa600592cb173acc433c","9","","","","","","","","","","","","null","stimulus/SV_PolicingMSA/NV_673/IMG_12_673.jpg","null","","","","","","5","","","","","",""
"street view slide show","image-button-response","98","1016822","0.0-98.0","","656776a7904ae00d6b91d1dd","6568aa600592cb173acc433c","9","","","","","","","","","","","","null","stimulus/SV_PolicingMSA/NV_673/IMG_7_673.jpg","null","","","","","","5","","","","","",""
"street view slide show","image-button-response","99","1017835","0.0-99.0","","656776a7904ae00d6b91d1dd","6568aa600592cb173acc433c","9","","","","","","","","","","","","null","stimulus/SV_PolicingMSA/NV_673/IMG_13_673.jpg","null","","","","","","5","","","","","",""
"street view slide show","image-button-response","100","1018849","0.0-100.0","","656776a7904ae00d6b91d1dd","6568aa600592cb173acc433c","9","","","","","","","","","","","","null","stimulus/SV_PolicingMSA/NV_673/IMG_8_673.jpg","null","","","","","","5","","","","","",""
"street view slide show","image-button-response","101","1019853","0.0-101.0","","656776a7904ae00d6b91d1dd","6568aa600592cb173acc433c","9","","","","","","","","","","","","null","stimulus/SV_PolicingMSA/NV_673/IMG_4_673.jpg","null","","","","","","5","","","","","",""
"street view slide show","image-button-response","102","1020866","0.0-102.0","","656776a7904ae00d6b91d1dd","6568aa600592cb173acc433c","9","","","","","","","","","","","","null","stimulus/SV_PolicingMSA/NV_673/IMG_14_673.jpg","null","","","","","","5","","","","","",""
"dot matrix survey1","survey","103","1027979","0.0-103.0","","656776a7904ae00d6b91d1dd","6568aa600592cb173acc433c","9","","","","","","","","","","","","7092","","{""P0_Q0"":null,""P0_Q1"":{""wealthy"":3,""safe"":3,""walkable"":3,""traditional"":3,""diverse"":3}}","","","","","","5","[]","","","","",""
"dot matrix survey2","survey","104","1031571","0.0-104.0","","656776a7904ae00d6b91d1dd","6568aa600592cb173acc433c","9","","","","","","","","","","","","3586","","{""P0_Q0"":null,""P0_Q1"":{""violence"":3,""crime"":3,""drug"":3,""schools"":3,""opportunities"":3}}","","","","","","5","[]","","","","",""
"dot matrix survey3","survey","105","1038130","0.0-105.0","","656776a7904ae00d6b91d1dd","6568aa600592cb173acc433c","9","","","","","","","","","","","","6551","","{""P0_Q0"":null,""P0_Q1"":{""movein"":3,""moveout"":3,""shopping"":3,""walk"":3,""park"":3,""school"":3}}","","","","","","5","[]","","","","",""
"sliderTrial","html-slider-response","106","1040055","0.0-106.0","","656776a7904ae00d6b91d1dd","6568aa600592cb173acc433c","9","","","","","","","","","","","","1923","[""SV_PolicingMSA/NV_673/IMG_5_673.jpg"",""SV_PolicingMSA/NV_673/IMG_1_673.jpg"",""SV_PolicingMSA/NV_673/IMG_12_673.jpg"",""SV_PolicingMSA/NV_673/IMG_7_673.jpg"",""SV_PolicingMSA/NV_673/IMG_13_673.jpg"",""SV_PolicingMSA/NV_673/IMG_8_673.jpg"",""SV_PolicingMSA/NV_673/IMG_4_673.jpg"",""SV_PolicingMSA/NV_673/IMG_14_673.jpg""]","4","","","","","","5","","4","[""./rc_img/cop_condGroup_3_SafeStreets_autoscaled.png"",""./rc_img/cop_condGroup_3_CommunitySafety_autoscaled.png""]","4","",""
"sliderTrial","html-slider-response","107","1041766","0.0-107.0","","656776a7904ae00d6b91d1dd","6568aa600592cb173acc433c","9","","","","","","","","","","","","1710","[""SV_PolicingMSA/NV_673/IMG_5_673.jpg"",""SV_PolicingMSA/NV_673/IMG_1_673.jpg"",""SV_PolicingMSA/NV_673/IMG_12_673.jpg"",""SV_PolicingMSA/NV_673/IMG_7_673.jpg"",""SV_PolicingMSA/NV_673/IMG_13_673.jpg"",""SV_PolicingMSA/NV_673/IMG_8_673.jpg"",""SV_PolicingMSA/NV_673/IMG_4_673.jpg"",""SV_PolicingMSA/NV_673/IMG_14_673.jpg""]","4","","","","","","5","","4","[""./rc_img/cop_condGroup_4_SafeStreets_autoscaled.png"",""./rc_img/cop_condGroup_4_CommunitySafety_autoscaled.png""]","4","",""
"sliderTrial","html-slider-response","108","1042463","0.0-108.0","","656776a7904ae00d6b91d1dd","6568aa600592cb173acc433c","9","","","","","","","","","","","","695","[""SV_PolicingMSA/NV_673/IMG_5_673.jpg"",""SV_PolicingMSA/NV_673/IMG_1_673.jpg"",""SV_PolicingMSA/NV_673/IMG_12_673.jpg"",""SV_PolicingMSA/NV_673/IMG_7_673.jpg"",""SV_PolicingMSA/NV_673/IMG_13_673.jpg"",""SV_PolicingMSA/NV_673/IMG_8_673.jpg"",""SV_PolicingMSA/NV_673/IMG_4_673.jpg"",""SV_PolicingMSA/NV_673/IMG_14_673.jpg""]","4","","","","","","5","","4","[""./rc_img/cop_condGroup_14_SafeStreets_autoscaled.png"",""./rc_img/cop_condGroup_14_CommunitySafety_autoscaled.png""]","4","",""
"sliderTrial","html-slider-response","109","1043176","0.0-109.0","","656776a7904ae00d6b91d1dd","6568aa600592cb173acc433c","9","","","","","","","","","","","","710","[""SV_PolicingMSA/NV_673/IMG_5_673.jpg"",""SV_PolicingMSA/NV_673/IMG_1_673.jpg"",""SV_PolicingMSA/NV_673/IMG_12_673.jpg"",""SV_PolicingMSA/NV_673/IMG_7_673.jpg"",""SV_PolicingMSA/NV_673/IMG_13_673.jpg"",""SV_PolicingMSA/NV_673/IMG_8_673.jpg"",""SV_PolicingMSA/NV_673/IMG_4_673.jpg"",""SV_PolicingMSA/NV_673/IMG_14_673.jpg""]","4","","","","","","5","","4","[""./rc_img/cop_condGroup_11_CommunitySafety_autoscaled.png"",""./rc_img/cop_condGroup_11_SafeStreets_autoscaled.png""]","4","",""
"sliderTrial","html-slider-response","110","1043828","0.0-110.0","","656776a7904ae00d6b91d1dd","6568aa600592cb173acc433c","9","","","","","","","","","","","","650","[""SV_PolicingMSA/NV_673/IMG_5_673.jpg"",""SV_PolicingMSA/NV_673/IMG_1_673.jpg"",""SV_PolicingMSA/NV_673/IMG_12_673.jpg"",""SV_PolicingMSA/NV_673/IMG_7_673.jpg"",""SV_PolicingMSA/NV_673/IMG_13_673.jpg"",""SV_PolicingMSA/NV_673/IMG_8_673.jpg"",""SV_PolicingMSA/NV_673/IMG_4_673.jpg"",""SV_PolicingMSA/NV_673/IMG_14_673.jpg""]","4","","","","","","5","","4","[""./rc_img/cop_condGroup_9_CommunitySafety_autoscaled.png"",""./rc_img/cop_condGroup_9_SafeStreets_autoscaled.png""]","4","",""
"before_SVSlide_prompt","html-button-response","111","1045403","0.0-111.0","","656776a7904ae00d6b91d1dd","6568aa600592cb173acc433c","9","","","","","","","","","","","","1574","Click [Next] to see the next neighborhood!","0","","","","","","","","","","","",""
"street view slide show","image-button-response","112","1046407","0.0-112.0","","656776a7904ae00d6b91d1dd","6568aa600592cb173acc433c","9","","","","","","","","","","","","null","stimulus/SV_PolicingMSA/NV_754/IMG_4_754.jpg","null","","","","","","4","","","","","",""
"street view slide show","image-button-response","113","1047413","0.0-113.0","","656776a7904ae00d6b91d1dd","6568aa600592cb173acc433c","9","","","","","","","","","","","","null","stimulus/SV_PolicingMSA/NV_754/IMG_1_754.jpg","null","","","","","","4","","","","","",""
"street view slide show","image-button-response","114","1048415","0.0-114.0","","656776a7904ae00d6b91d1dd","6568aa600592cb173acc433c","9","","","","","","","","","","","","null","stimulus/SV_PolicingMSA/NV_754/IMG_6_754.jpg","null","","","","","","4","","","","","",""
"street view slide show","image-button-response","115","1049427","0.0-115.0","","656776a7904ae00d6b91d1dd","6568aa600592cb173acc433c","9","","","","","","","","","","","","null","stimulus/SV_PolicingMSA/NV_754/IMG_2_754.jpg","null","","","","","","4","","","","","",""
"street view slide show","image-button-response","116","1050437","0.0-116.0","","656776a7904ae00d6b91d1dd","6568aa600592cb173acc433c","9","","","","","","","","","","","","null","stimulus/SV_PolicingMSA/NV_754/IMG_10_754.jpg","null","","","","","","4","","","","","",""
"street view slide show","image-button-response","117","1051455","0.0-117.0","","656776a7904ae00d6b91d1dd","6568aa600592cb173acc433c","9","","","","","","","","","","","","null","stimulus/SV_PolicingMSA/NV_754/IMG_8_754.jpg","null","","","","","","4","","","","","",""
"street view slide show","image-button-response","118","1052473","0.0-118.0","","656776a7904ae00d6b91d1dd","6568aa600592cb173acc433c","9","","","","","","","","","","","","null","stimulus/SV_PolicingMSA/NV_754/IMG_14_754.jpg","null","","","","","","4","","","","","",""
"street view slide show","image-button-response","119","1053485","0.0-119.0","","656776a7904ae00d6b91d1dd","6568aa600592cb173acc433c","9","","","","","","","","","","","","null","stimulus/SV_PolicingMSA/NV_754/IMG_0_754.jpg","null","","","","","","4","","","","","",""
"dot matrix survey1","survey","120","1059841","0.0-120.0","","656776a7904ae00d6b91d1dd","6568aa600592cb173acc433c","9","","","","","","","","","","","","6324","","{""P0_Q0"":null,""P0_Q1"":{""diverse"":2,""walkable"":2,""wealthy"":2,""safe"":2,""traditional"":2}}","","","","","","4","[]","","","","",""
"dot matrix survey2","survey","121","1066643","0.0-121.0","","656776a7904ae00d6b91d1dd","6568aa600592cb173acc433c","9","","","","","","","","","","","","6795","","{""P0_Q0"":null,""P0_Q1"":{""violence"":3,""opportunities"":3,""schools"":3,""crime"":3,""drug"":3}}","","","","","","4","[]","","","","",""
"dot matrix survey3","survey","122","1071475","0.0-122.0","","656776a7904ae00d6b91d1dd","6568aa600592cb173acc433c","9","","","","","","","","","","","","4823","","{""P0_Q0"":null,""P0_Q1"":{""movein"":3,""moveout"":3,""shopping"":3,""walk"":3,""park"":3,""school"":3}}","","","","","","4","[]","","","","",""
"sliderTrial","html-slider-response","123","1072750","0.0-123.0","","656776a7904ae00d6b91d1dd","6568aa600592cb173acc433c","9","","","","","","","","","","","","1274","[""SV_PolicingMSA/NV_754/IMG_4_754.jpg"",""SV_PolicingMSA/NV_754/IMG_1_754.jpg"",""SV_PolicingMSA/NV_754/IMG_6_754.jpg"",""SV_PolicingMSA/NV_754/IMG_2_754.jpg"",""SV_PolicingMSA/NV_754/IMG_10_754.jpg"",""SV_PolicingMSA/NV_754/IMG_8_754.jpg"",""SV_PolicingMSA/NV_754/IMG_14_754.jpg"",""SV_PolicingMSA/NV_754/IMG_0_754.jpg""]","4","","","","","","4","","4","[""./rc_img/cop_condGroup_10_CommunitySafety_autoscaled.png"",""./rc_img/cop_condGroup_10_SafeStreets_autoscaled.png""]","4","",""
"sliderTrial","html-slider-response","124","1073433","0.0-124.0","","656776a7904ae00d6b91d1dd","6568aa600592cb173acc433c","9","","","","","","","","","","","","681","[""SV_PolicingMSA/NV_754/IMG_4_754.jpg"",""SV_PolicingMSA/NV_754/IMG_1_754.jpg"",""SV_PolicingMSA/NV_754/IMG_6_754.jpg"",""SV_PolicingMSA/NV_754/IMG_2_754.jpg"",""SV_PolicingMSA/NV_754/IMG_10_754.jpg"",""SV_PolicingMSA/NV_754/IMG_8_754.jpg"",""SV_PolicingMSA/NV_754/IMG_14_754.jpg"",""SV_PolicingMSA/NV_754/IMG_0_754.jpg""]","4","","","","","","4","","4","[""./rc_img/cop_condGroup_15_SafeStreets_autoscaled.png"",""./rc_img/cop_condGroup_15_CommunitySafety_autoscaled.png""]","4","",""
"sliderTrial","html-slider-response","125","1074100","0.0-125.0","","656776a7904ae00d6b91d1dd","6568aa600592cb173acc433c","9","","","","","","","","","","","","665","[""SV_PolicingMSA/NV_754/IMG_4_754.jpg"",""SV_PolicingMSA/NV_754/IMG_1_754.jpg"",""SV_PolicingMSA/NV_754/IMG_6_754.jpg"",""SV_PolicingMSA/NV_754/IMG_2_754.jpg"",""SV_PolicingMSA/NV_754/IMG_10_754.jpg"",""SV_PolicingMSA/NV_754/IMG_8_754.jpg"",""SV_PolicingMSA/NV_754/IMG_14_754.jpg"",""SV_PolicingMSA/NV_754/IMG_0_754.jpg""]","4","","","","","","4","","4","[""./rc_img/cop_condGroup_13_CommunitySafety_autoscaled.png"",""./rc_img/cop_condGroup_13_SafeStreets_autoscaled.png""]","4","",""
"sliderTrial","html-slider-response","126","1074716","0.0-126.0","","656776a7904ae00d6b91d1dd","6568aa600592cb173acc433c","9","","","","","","","","","","","","614","[""SV_PolicingMSA/NV_754/IMG_4_754.jpg"",""SV_PolicingMSA/NV_754/IMG_1_754.jpg"",""SV_PolicingMSA/NV_754/IMG_6_754.jpg"",""SV_PolicingMSA/NV_754/IMG_2_754.jpg"",""SV_PolicingMSA/NV_754/IMG_10_754.jpg"",""SV_PolicingMSA/NV_754/IMG_8_754.jpg"",""SV_PolicingMSA/NV_754/IMG_14_754.jpg"",""SV_PolicingMSA/NV_754/IMG_0_754.jpg""]","4","","","","","","4","","4","[""./rc_img/cop_condGroup_16_SafeStreets_autoscaled.png"",""./rc_img/cop_condGroup_16_CommunitySafety_autoscaled.png""]","4","",""
"sliderTrial","html-slider-response","127","1075443","0.0-127.0","","656776a7904ae00d6b91d1dd","6568aa600592cb173acc433c","9","","","","","","","","","","","","726","[""SV_PolicingMSA/NV_754/IMG_4_754.jpg"",""SV_PolicingMSA/NV_754/IMG_1_754.jpg"",""SV_PolicingMSA/NV_754/IMG_6_754.jpg"",""SV_PolicingMSA/NV_754/IMG_2_754.jpg"",""SV_PolicingMSA/NV_754/IMG_10_754.jpg"",""SV_PolicingMSA/NV_754/IMG_8_754.jpg"",""SV_PolicingMSA/NV_754/IMG_14_754.jpg"",""SV_PolicingMSA/NV_754/IMG_0_754.jpg""]","4","","","","","","4","","4","[""./rc_img/cop_condGroup_7_CommunitySafety_autoscaled.png"",""./rc_img/cop_condGroup_7_SafeStreets_autoscaled.png""]","4","",""
"before_SVSlide_prompt","html-button-response","128","1076755","0.0-128.0","","656776a7904ae00d6b91d1dd","6568aa600592cb173acc433c","9","","","","","","","","","","","","1311","Click [Next] to see the next neighborhood!","0","","","","","","","","","","","",""
"street view slide show","image-button-response","129","1077761","0.0-129.0","","656776a7904ae00d6b91d1dd","6568aa600592cb173acc433c","9","","","","","","","","","","","","null","stimulus/SV_PolicingMSA/NV_84/IMG_4_84.jpg","null","","","","","","2","","","","","",""
"street view slide show","image-button-response","130","1078772","0.0-130.0","","656776a7904ae00d6b91d1dd","6568aa600592cb173acc433c","9","","","","","","","","","","","","null","stimulus/SV_PolicingMSA/NV_84/IMG_8_84.jpg","null","","","","","","2","","","","","",""
"street view slide show","image-button-response","131","1079776","0.0-131.0","","656776a7904ae00d6b91d1dd","6568aa600592cb173acc433c","9","","","","","","","","","","","","null","stimulus/SV_PolicingMSA/NV_84/IMG_5_84.jpg","null","","","","","","2","","","","","",""
"street view slide show","image-button-response","132","1080791","0.0-132.0","","656776a7904ae00d6b91d1dd","6568aa600592cb173acc433c","9","","","","","","","","","","","","null","stimulus/SV_PolicingMSA/NV_84/IMG_14_84.jpg","null","","","","","","2","","","","","",""
"street view slide show","image-button-response","133","1081797","0.0-133.0","","656776a7904ae00d6b91d1dd","6568aa600592cb173acc433c","9","","","","","","","","","","","","null","stimulus/SV_PolicingMSA/NV_84/IMG_11_84.jpg","null","","","","","","2","","","","","",""
"street view slide show","image-button-response","134","1082807","0.0-134.0","","656776a7904ae00d6b91d1dd","6568aa600592cb173acc433c","9","","","","","","","","","","","","null","stimulus/SV_PolicingMSA/NV_84/IMG_0_84.jpg","null","","","","","","2","","","","","",""
"street view slide show","image-button-response","135","1083814","0.0-135.0","","656776a7904ae00d6b91d1dd","6568aa600592cb173acc433c","9","","","","","","","","","","","","null","stimulus/SV_PolicingMSA/NV_84/IMG_3_84.jpg","null","","","","","","2","","","","","",""
"street view slide show","image-button-response","136","1084830","0.0-136.0","","656776a7904ae00d6b91d1dd","6568aa600592cb173acc433c","9","","","","","","","","","","","","null","stimulus/SV_PolicingMSA/NV_84/IMG_6_84.jpg","null","","","","","","2","","","","","",""
"dot matrix survey1","survey","137","1089671","0.0-137.0","","656776a7904ae00d6b91d1dd","6568aa600592cb173acc433c","9","","","","","","","","","","","","4824","","{""P0_Q0"":null,""P0_Q1"":{""wealthy"":3,""safe"":3,""walkable"":3,""diverse"":3,""traditional"":3}}","","","","","","2","[]","","","","",""
"dot matrix survey2","survey","138","1093562","0.0-138.0","","656776a7904ae00d6b91d1dd","6568aa600592cb173acc433c","9","","","","","","","","","","","","3884","","{""P0_Q0"":null,""P0_Q1"":{""violence"":3,""crime"":3,""drug"":3,""opportunities"":3,""schools"":3}}","","","","","","2","[]","","","","",""
"dot matrix survey3","survey","139","1098272","0.0-139.0","","656776a7904ae00d6b91d1dd","6568aa600592cb173acc433c","9","","","","","","","","","","","","4702","","{""P0_Q0"":null,""P0_Q1"":{""movein"":3,""moveout"":3,""shopping"":3,""walk"":3,""park"":3,""school"":3}}","","","","","","2","[]","","","","",""
"sliderTrial","html-slider-response","140","1099564","0.0-140.0","","656776a7904ae00d6b91d1dd","6568aa600592cb173acc433c","9","","","","","","","","","","","","1291","[""SV_PolicingMSA/NV_84/IMG_4_84.jpg"",""SV_PolicingMSA/NV_84/IMG_8_84.jpg"",""SV_PolicingMSA/NV_84/IMG_5_84.jpg"",""SV_PolicingMSA/NV_84/IMG_14_84.jpg"",""SV_PolicingMSA/NV_84/IMG_11_84.jpg"",""SV_PolicingMSA/NV_84/IMG_0_84.jpg"",""SV_PolicingMSA/NV_84/IMG_3_84.jpg"",""SV_PolicingMSA/NV_84/IMG_6_84.jpg""]","4","","","","","","2","","4","[""./rc_img/cop_condGroup_10_CommunitySafety_autoscaled.png"",""./rc_img/cop_condGroup_10_SafeStreets_autoscaled.png""]","4","",""
"sliderTrial","html-slider-response","141","1100404","0.0-141.0","","656776a7904ae00d6b91d1dd","6568aa600592cb173acc433c","9","","","","","","","","","","","","838","[""SV_PolicingMSA/NV_84/IMG_4_84.jpg"",""SV_PolicingMSA/NV_84/IMG_8_84.jpg"",""SV_PolicingMSA/NV_84/IMG_5_84.jpg"",""SV_PolicingMSA/NV_84/IMG_14_84.jpg"",""SV_PolicingMSA/NV_84/IMG_11_84.jpg"",""SV_PolicingMSA/NV_84/IMG_0_84.jpg"",""SV_PolicingMSA/NV_84/IMG_3_84.jpg"",""SV_PolicingMSA/NV_84/IMG_6_84.jpg""]","4","","","","","","2","","4","[""./rc_img/cop_condGroup_15_SafeStreets_autoscaled.png"",""./rc_img/cop_condGroup_15_CommunitySafety_autoscaled.png""]","4","",""
"sliderTrial","html-slider-response","142","1101297","0.0-142.0","","656776a7904ae00d6b91d1dd","6568aa600592cb173acc433c","9","","","","","","","","","","","","891","[""SV_PolicingMSA/NV_84/IMG_4_84.jpg"",""SV_PolicingMSA/NV_84/IMG_8_84.jpg"",""SV_PolicingMSA/NV_84/IMG_5_84.jpg"",""SV_PolicingMSA/NV_84/IMG_14_84.jpg"",""SV_PolicingMSA/NV_84/IMG_11_84.jpg"",""SV_PolicingMSA/NV_84/IMG_0_84.jpg"",""SV_PolicingMSA/NV_84/IMG_3_84.jpg"",""SV_PolicingMSA/NV_84/IMG_6_84.jpg""]","4","","","","","","2","","4","[""./rc_img/cop_condGroup_13_CommunitySafety_autoscaled.png"",""./rc_img/cop_condGroup_13_SafeStreets_autoscaled.png""]","4","",""
"sliderTrial","html-slider-response","143","1102024","0.0-143.0","","656776a7904ae00d6b91d1dd","6568aa600592cb173acc433c","9","","","","","","","","","","","","725","[""SV_PolicingMSA/NV_84/IMG_4_84.jpg"",""SV_PolicingMSA/NV_84/IMG_8_84.jpg"",""SV_PolicingMSA/NV_84/IMG_5_84.jpg"",""SV_PolicingMSA/NV_84/IMG_14_84.jpg"",""SV_PolicingMSA/NV_84/IMG_11_84.jpg"",""SV_PolicingMSA/NV_84/IMG_0_84.jpg"",""SV_PolicingMSA/NV_84/IMG_3_84.jpg"",""SV_PolicingMSA/NV_84/IMG_6_84.jpg""]","4","","","","","","2","","4","[""./rc_img/cop_condGroup_16_SafeStreets_autoscaled.png"",""./rc_img/cop_condGroup_16_CommunitySafety_autoscaled.png""]","4","",""
"sliderTrial","html-slider-response","144","1102654","0.0-144.0","","656776a7904ae00d6b91d1dd","6568aa600592cb173acc433c","9","","","","","","","","","","","","629","[""SV_PolicingMSA/NV_84/IMG_4_84.jpg"",""SV_PolicingMSA/NV_84/IMG_8_84.jpg"",""SV_PolicingMSA/NV_84/IMG_5_84.jpg"",""SV_PolicingMSA/NV_84/IMG_14_84.jpg"",""SV_PolicingMSA/NV_84/IMG_11_84.jpg"",""SV_PolicingMSA/NV_84/IMG_0_84.jpg"",""SV_PolicingMSA/NV_84/IMG_3_84.jpg"",""SV_PolicingMSA/NV_84/IMG_6_84.jpg""]","4","","","","","","2","","4","[""./rc_img/cop_condGroup_7_CommunitySafety_autoscaled.png"",""./rc_img/cop_condGroup_7_SafeStreets_autoscaled.png""]","4","",""
"demographics","survey-html-form","145","1116201","0.0-145.0","","656776a7904ae00d6b91d1dd","6568aa600592cb173acc433c","9","","","","","","","","","","","","13545","","{""age"":""56"",""sex"":""male"",""gender"":""man"",""gender-self-describe"":"""",""zipcode"":""20149""}","","","","","","","","","","","",""
"demographics-list","survey","146","1131231","0.0-146.0","","656776a7904ae00d6b91d1dd","6568aa600592cb173acc433c","9","","","","","","","","","","","","14999","","{""P0_Q0"":null,""race-ethnicity"":[""White or of European ancestry""],""education"":""Graduate & professional degrees"",""P1_Q0"":null,""ideology"":""Conservative"",""P2_Q0"":null,""num-moves"":1,""P3_Q0"":null,""social-ladder"":5}","","","","","","","[]","","","","",""
"end-survey","survey-text","147","1133488","0.0-147.0","","656776a7904ae00d6b91d1dd","6568aa600592cb173acc433c","9","","","","","","","","","","","","2247","","{""Q0"":""""}","","","","","","","","","","","","2"
"end-survey","html-button-response","148","1134734","0.0-148.0","","656776a7904ae00d6b91d1dd","6568aa600592cb173acc433c","9","","","","","","","","","","","","1244","
    You've reached the end of the survey. <br><br> 
    <b>Do not close or refresh this window.</b><br>
    On the next page, you will be automatically redirected to Prolific. <br><br>

    <div class=""alert alert-warning""><b>
    </div>
","0","","","","","","","","","","","",""
