"task","trial_type","trial_index","time_elapsed","internal_node_id","subject_id","study_id","session_id","section","width","height","webaudio","browser","browser_version","mobile","os","fullscreen","vsync_rate","webcam","microphone","rt","stimulus","response","success","timeout","failed_images","failed_audio","failed_video","block","accuracy","slider_start","choices","standardized_response","correct","num_attention_checks_correct"
"pavlovia-init","pavlovia","0","1443","0.0-0.0","","656776a7904ae00d6b91d1dd","6568ac7cab2ff39f3b46ba54","3","","","","","","","","","","","","","","","","","","","","","","","","","",""
"browser-check","browser-check","1","1805","0.0-1.0","","656776a7904ae00d6b91d1dd","6568ac7cab2ff39f3b46ba54","3","2560","1292","true","firefox","120.0.0","false","Windows 10","true","165.75","true","true","","","","","","","","","","","","","","",""
"consent","html-button-response","2","17789","0.0-2.0","","656776a7904ae00d6b91d1dd","6568ac7cab2ff39f3b46ba54","3","","","","","","","","","","","","15983","
        <div style=""font-size: 80%; max-width:700px"">
            <h2>CONSENT FORM</h2>
        
            <div style=""text-align: left"">
            <h4>DESCRIPTION</h4>
            <p>
            You will complete a short task where you give your impressions of various neighborhoods and assign individuals to those spaces, and answer some questions about your thoughts and opinions.<br>
            The University of Michigan Institutional Review Board Health Sciences and Behavioral Sciences has determined that this study is exempt from IRB oversight.
            </p>

            <h4>TIME INVOLVEMENT</h4>
            <p>Your participation will take approximately 15 minutes. You will receive $3.15 upon completion of the study.</p>
        
            <h4>RISKS AND BENEFITS</h4>
            <p>
            The risks associated with this study are minimal. The benefits which may reasonably be expected to result from this study are none. We cannot and do not guarantee or promise that you will receive any benefits from this study.
            </p>
          
            <h4>SUBJECT'S RIGHTS</h4>
            <p>
            If you have read this form and have decided to participate in this project, please understand your participation is voluntary and you have the right to withdraw your consent or discontinue participation at any time without penalty or loss of benefits to which you are otherwise entitled. The alternative is not to participate. You have the right to refuse to answer particular questions. Your individual privacy will be maintained in all published and written data resulting from the study.
            </p>

            <h4>HUMAN SUBJECT APPROVAL</h4>
            <p>
            This study is exempt from ongoing IRB review.
            </p>

            <h4>CONTACT INFORMATION</h4>
            If you have any questions, concerns or complaints about this research, its procedures, risks and benefits, contact the Protocol Director, Nicholas Camp, npcamp@umich.edu, (443) 851-6783. <br>

            If you have questions about your rights as a research participant, or wish to obtain information, ask questions or discuss any concerns about this study with someone other than the researcher(s), please contact the following:<br><br>
            University of Michigan<br>
            Health Sciences and Behavioral Sciences Institutional Review Board (IRB-HSBS)<br>
            2800 Plymouth Road<br>
            Building 520, Room 1169Ann Arbor, MI 48109-2800<br>
            Telephone: 734-936-0933 or toll free (866) 936-0933<br>
            Fax: 734-936-1852<br>
            E-mail: irbhsbs@umich.edu<br><br>

            You can also contact the University of Michigan Compliance Hotline at 1-866-990-0111. You may also print this consent form to keep.
            <br><br>
            <div class=""alert alert-warning""><b>
            Do you consent to participate in this study? If you consent to participate in this study, please click “Accept and Continue”. If you select ""Decline and Exit"", you will be exited from the survey. <br>
            </b></div>
            </div>
        </div>
    ","1","","","","","","","","","","","",""
"","preload","3","19368","0.0-3.0","","656776a7904ae00d6b91d1dd","6568ac7cab2ff39f3b46ba54","3","","","","","","","","","","","","","","","true","false","[]","[]","[]","","","","","","",""
"instructions","html-button-response","4","48758","0.0-4.0","","656776a7904ae00d6b91d1dd","6568ac7cab2ff39f3b46ba54","3","","","","","","","","","","","","29390","
        <div class=""text-container"">
        <h1>Welcome to the study!</h1>
        
        <div class=""text-left"">
            <p>
                In this study, we are interested in what people can tell about spaces from Google Street View images. <br> Google Street View takes pictures of streets used for Google Earth and Google Maps. <br>You’ll see Google Street View images of different places and answer some questions about each one.<br>
            </p>
        </div>
        <img src = ""assets/img/example.png"" width = 500px, height = auto>
        <br>
    <br>
    ","0","","","","","","","","","","","",""
"instructions","html-button-response","5","51451","0.0-5.0","","656776a7904ae00d6b91d1dd","6568ac7cab2ff39f3b46ba54","3","","","","","","","","","","","","2692","
    <div class=""text-container"">
        <div class=""text-center"">
            <p>Please remember that your answers are completely anonymous.<br>Go with your gut response- there are no right or wrong answers!</p>
        </div>
    <br>
","0","","","","","","","","","","","",""
"before_SVSlide_prompt","html-button-response","6","52539","0.0-6.0","","656776a7904ae00d6b91d1dd","6568ac7cab2ff39f3b46ba54","3","","","","","","","","","","","","1087","Click [Next] to see the next neighborhood!","0","","","","","","","","","","","",""
"street view slide show","image-button-response","7","53623","0.0-7.0","","656776a7904ae00d6b91d1dd","6568ac7cab2ff39f3b46ba54","3","","","","","","","","","","","","null","stimulus/SV_PolicingMSA/NY_3438/IMG_11_3438.jpg","null","","","","","","3","","","","","",""
"street view slide show","image-button-response","8","54633","0.0-8.0","","656776a7904ae00d6b91d1dd","6568ac7cab2ff39f3b46ba54","3","","","","","","","","","","","","null","stimulus/SV_PolicingMSA/NY_3438/IMG_10_3438.jpg","null","","","","","","3","","","","","",""
"street view slide show","image-button-response","9","55644","0.0-9.0","","656776a7904ae00d6b91d1dd","6568ac7cab2ff39f3b46ba54","3","","","","","","","","","","","","null","stimulus/SV_PolicingMSA/NY_3438/IMG_2_3438.jpg","null","","","","","","3","","","","","",""
"street view slide show","image-button-response","10","56657","0.0-10.0","","656776a7904ae00d6b91d1dd","6568ac7cab2ff39f3b46ba54","3","","","","","","","","","","","","null","stimulus/SV_PolicingMSA/NY_3438/IMG_9_3438.jpg","null","","","","","","3","","","","","",""
"street view slide show","image-button-response","11","57661","0.0-11.0","","656776a7904ae00d6b91d1dd","6568ac7cab2ff39f3b46ba54","3","","","","","","","","","","","","null","stimulus/SV_PolicingMSA/NY_3438/IMG_12_3438.jpg","null","","","","","","3","","","","","",""
"street view slide show","image-button-response","12","58674","0.0-12.0","","656776a7904ae00d6b91d1dd","6568ac7cab2ff39f3b46ba54","3","","","","","","","","","","","","null","stimulus/SV_PolicingMSA/NY_3438/IMG_3_3438.jpg","null","","","","","","3","","","","","",""
"street view slide show","image-button-response","13","59683","0.0-13.0","","656776a7904ae00d6b91d1dd","6568ac7cab2ff39f3b46ba54","3","","","","","","","","","","","","null","stimulus/SV_PolicingMSA/NY_3438/IMG_1_3438.jpg","null","","","","","","3","","","","","",""
"street view slide show","image-button-response","14","60698","0.0-14.0","","656776a7904ae00d6b91d1dd","6568ac7cab2ff39f3b46ba54","3","","","","","","","","","","","","null","stimulus/SV_PolicingMSA/NY_3438/IMG_8_3438.jpg","null","","","","","","3","","","","","",""
"dot matrix survey1","survey","15","79969","0.0-15.0","","656776a7904ae00d6b91d1dd","6568ac7cab2ff39f3b46ba54","3","","","","","","","","","","","","19249","","{""P0_Q0"":null,""P0_Q1"":{""wealthy"":0,""safe"":1,""walkable"":3,""traditional"":2,""diverse"":3}}","","","","","","3","[]","","","","",""
"dot matrix survey2","survey","16","111222","0.0-16.0","","656776a7904ae00d6b91d1dd","6568ac7cab2ff39f3b46ba54","3","","","","","","","","","","","","31243","","{""P0_Q0"":null,""P0_Q1"":{""violence"":3,""crime"":3,""drug"":3,""schools"":0,""opportunities"":1}}","","","","","","3","[]","","","","",""
"dot matrix survey3","survey","17","127789","0.0-17.0","","656776a7904ae00d6b91d1dd","6568ac7cab2ff39f3b46ba54","3","","","","","","","","","","","","16560","","{""P0_Q0"":null,""P0_Q1"":{""movein"":0,""moveout"":4,""shopping"":0,""walk"":0,""park"":0,""school"":0}}","","","","","","3","[]","","","","",""
"sliderTrial","html-slider-response","18","139710","0.0-18.0","","656776a7904ae00d6b91d1dd","6568ac7cab2ff39f3b46ba54","3","","","","","","","","","","","","11920","[""SV_PolicingMSA/NY_3438/IMG_11_3438.jpg"",""SV_PolicingMSA/NY_3438/IMG_10_3438.jpg"",""SV_PolicingMSA/NY_3438/IMG_2_3438.jpg"",""SV_PolicingMSA/NY_3438/IMG_9_3438.jpg"",""SV_PolicingMSA/NY_3438/IMG_12_3438.jpg"",""SV_PolicingMSA/NY_3438/IMG_3_3438.jpg"",""SV_PolicingMSA/NY_3438/IMG_1_3438.jpg"",""SV_PolicingMSA/NY_3438/IMG_8_3438.jpg""]","2","","","","","","3","","4","[""./rc_img/cop_condGroup_17_CommunitySafety_autoscaled.png"",""./rc_img/cop_condGroup_17_SafeStreets_autoscaled.png""]","2","",""
"sliderTrial","html-slider-response","19","146165","0.0-19.0","","656776a7904ae00d6b91d1dd","6568ac7cab2ff39f3b46ba54","3","","","","","","","","","","","","6454","[""SV_PolicingMSA/NY_3438/IMG_11_3438.jpg"",""SV_PolicingMSA/NY_3438/IMG_10_3438.jpg"",""SV_PolicingMSA/NY_3438/IMG_2_3438.jpg"",""SV_PolicingMSA/NY_3438/IMG_9_3438.jpg"",""SV_PolicingMSA/NY_3438/IMG_12_3438.jpg"",""SV_PolicingMSA/NY_3438/IMG_3_3438.jpg"",""SV_PolicingMSA/NY_3438/IMG_1_3438.jpg"",""SV_PolicingMSA/NY_3438/IMG_8_3438.jpg""]","1","","","","","","3","","4","[""./rc_img/cop_condGroup_16_CommunitySafety_autoscaled.png"",""./rc_img/cop_condGroup_16_SafeStreets_autoscaled.png""]","1","",""
"sliderTrial","html-slider-response","20","148915","0.0-20.0","","656776a7904ae00d6b91d1dd","6568ac7cab2ff39f3b46ba54","3","","","","","","","","","","","","2750","[""SV_PolicingMSA/NY_3438/IMG_11_3438.jpg"",""SV_PolicingMSA/NY_3438/IMG_10_3438.jpg"",""SV_PolicingMSA/NY_3438/IMG_2_3438.jpg"",""SV_PolicingMSA/NY_3438/IMG_9_3438.jpg"",""SV_PolicingMSA/NY_3438/IMG_12_3438.jpg"",""SV_PolicingMSA/NY_3438/IMG_3_3438.jpg"",""SV_PolicingMSA/NY_3438/IMG_1_3438.jpg"",""SV_PolicingMSA/NY_3438/IMG_8_3438.jpg""]","6","","","","","","3","","4","[""./rc_img/cop_condGroup_18_SafeStreets_autoscaled.png"",""./rc_img/cop_condGroup_18_CommunitySafety_autoscaled.png""]","2","",""
"sliderTrial","html-slider-response","21","155059","0.0-21.0","","656776a7904ae00d6b91d1dd","6568ac7cab2ff39f3b46ba54","3","","","","","","","","","","","","6142","[""SV_PolicingMSA/NY_3438/IMG_11_3438.jpg"",""SV_PolicingMSA/NY_3438/IMG_10_3438.jpg"",""SV_PolicingMSA/NY_3438/IMG_2_3438.jpg"",""SV_PolicingMSA/NY_3438/IMG_9_3438.jpg"",""SV_PolicingMSA/NY_3438/IMG_12_3438.jpg"",""SV_PolicingMSA/NY_3438/IMG_3_3438.jpg"",""SV_PolicingMSA/NY_3438/IMG_1_3438.jpg"",""SV_PolicingMSA/NY_3438/IMG_8_3438.jpg""]","4","","","","","","3","","4","[""./rc_img/cop_condGroup_19_SafeStreets_autoscaled.png"",""./rc_img/cop_condGroup_19_CommunitySafety_autoscaled.png""]","4","",""
"sliderTrial","html-slider-response","22","158075","0.0-22.0","","656776a7904ae00d6b91d1dd","6568ac7cab2ff39f3b46ba54","3","","","","","","","","","","","","3015","[""SV_PolicingMSA/NY_3438/IMG_11_3438.jpg"",""SV_PolicingMSA/NY_3438/IMG_10_3438.jpg"",""SV_PolicingMSA/NY_3438/IMG_2_3438.jpg"",""SV_PolicingMSA/NY_3438/IMG_9_3438.jpg"",""SV_PolicingMSA/NY_3438/IMG_12_3438.jpg"",""SV_PolicingMSA/NY_3438/IMG_3_3438.jpg"",""SV_PolicingMSA/NY_3438/IMG_1_3438.jpg"",""SV_PolicingMSA/NY_3438/IMG_8_3438.jpg""]","2","","","","","","3","","4","[""./rc_img/cop_condGroup_20_CommunitySafety_autoscaled.png"",""./rc_img/cop_condGroup_20_SafeStreets_autoscaled.png""]","2","",""
"before_SVSlide_prompt","html-button-response","23","159749","0.0-23.0","","656776a7904ae00d6b91d1dd","6568ac7cab2ff39f3b46ba54","3","","","","","","","","","","","","1673","Click [Next] to see the next neighborhood!","0","","","","","","","","","","","",""
"street view slide show","image-button-response","24","160762","0.0-24.0","","656776a7904ae00d6b91d1dd","6568ac7cab2ff39f3b46ba54","3","","","","","","","","","","","","null","stimulus/SV_PolicingMSA/NY_1585/IMG_1_1585.jpg","null","","","","","","0","","","","","",""
"street view slide show","image-button-response","25","161775","0.0-25.0","","656776a7904ae00d6b91d1dd","6568ac7cab2ff39f3b46ba54","3","","","","","","","","","","","","null","stimulus/SV_PolicingMSA/NY_1585/IMG_12_1585.jpg","null","","","","","","0","","","","","",""
"street view slide show","image-button-response","26","162789","0.0-26.0","","656776a7904ae00d6b91d1dd","6568ac7cab2ff39f3b46ba54","3","","","","","","","","","","","","null","stimulus/SV_PolicingMSA/NY_1585/IMG_14_1585.jpg","null","","","","","","0","","","","","",""
"street view slide show","image-button-response","27","163803","0.0-27.0","","656776a7904ae00d6b91d1dd","6568ac7cab2ff39f3b46ba54","3","","","","","","","","","","","","null","stimulus/SV_PolicingMSA/NY_1585/IMG_0_1585.jpg","null","","","","","","0","","","","","",""
"street view slide show","image-button-response","28","164816","0.0-28.0","","656776a7904ae00d6b91d1dd","6568ac7cab2ff39f3b46ba54","3","","","","","","","","","","","","null","stimulus/SV_PolicingMSA/NY_1585/IMG_6_1585.jpg","null","","","","","","0","","","","","",""
"street view slide show","image-button-response","29","165833","0.0-29.0","","656776a7904ae00d6b91d1dd","6568ac7cab2ff39f3b46ba54","3","","","","","","","","","","","","null","stimulus/SV_PolicingMSA/NY_1585/IMG_13_1585.jpg","null","","","","","","0","","","","","",""
"street view slide show","image-button-response","30","166834","0.0-30.0","","656776a7904ae00d6b91d1dd","6568ac7cab2ff39f3b46ba54","3","","","","","","","","","","","","null","stimulus/SV_PolicingMSA/NY_1585/IMG_11_1585.jpg","null","","","","","","0","","","","","",""
"street view slide show","image-button-response","31","167844","0.0-31.0","","656776a7904ae00d6b91d1dd","6568ac7cab2ff39f3b46ba54","3","","","","","","","","","","","","null","stimulus/SV_PolicingMSA/NY_1585/IMG_5_1585.jpg","null","","","","","","0","","","","","",""
"dot matrix survey1","survey","32","184916","0.0-32.0","","656776a7904ae00d6b91d1dd","6568ac7cab2ff39f3b46ba54","3","","","","","","","","","","","","17059","","{""P0_Q0"":null,""P0_Q1"":{""wealthy"":2,""safe"":3,""walkable"":3,""traditional"":2,""diverse"":1}}","","","","","","0","[]","","","","",""
"dot matrix survey2","survey","33","193921","0.0-33.0","","656776a7904ae00d6b91d1dd","6568ac7cab2ff39f3b46ba54","3","","","","","","","","","","","","8998","","{""P0_Q0"":null,""P0_Q1"":{""violence"":1,""crime"":1,""drug"":0,""schools"":3,""opportunities"":2}}","","","","","","0","[]","","","","",""
"dot matrix survey3","survey","34","206758","0.0-34.0","","656776a7904ae00d6b91d1dd","6568ac7cab2ff39f3b46ba54","3","","","","","","","","","","","","12831","","{""P0_Q0"":null,""P0_Q1"":{""movein"":3,""moveout"":0,""shopping"":3,""walk"":2,""park"":3,""school"":2}}","","","","","","0","[]","","","","",""
"sliderTrial","html-slider-response","35","210980","0.0-35.0","","656776a7904ae00d6b91d1dd","6568ac7cab2ff39f3b46ba54","3","","","","","","","","","","","","4220","[""SV_PolicingMSA/NY_1585/IMG_1_1585.jpg"",""SV_PolicingMSA/NY_1585/IMG_12_1585.jpg"",""SV_PolicingMSA/NY_1585/IMG_14_1585.jpg"",""SV_PolicingMSA/NY_1585/IMG_0_1585.jpg"",""SV_PolicingMSA/NY_1585/IMG_6_1585.jpg"",""SV_PolicingMSA/NY_1585/IMG_13_1585.jpg"",""SV_PolicingMSA/NY_1585/IMG_11_1585.jpg"",""SV_PolicingMSA/NY_1585/IMG_5_1585.jpg""]","1","","","","","","0","","4","[""./rc_img/cop_condGroup_4_CommunitySafety_autoscaled.png"",""./rc_img/cop_condGroup_4_SafeStreets_autoscaled.png""]","1","",""
"sliderTrial","html-slider-response","36","214058","0.0-36.0","","656776a7904ae00d6b91d1dd","6568ac7cab2ff39f3b46ba54","3","","","","","","","","","","","","3078","[""SV_PolicingMSA/NY_1585/IMG_1_1585.jpg"",""SV_PolicingMSA/NY_1585/IMG_12_1585.jpg"",""SV_PolicingMSA/NY_1585/IMG_14_1585.jpg"",""SV_PolicingMSA/NY_1585/IMG_0_1585.jpg"",""SV_PolicingMSA/NY_1585/IMG_6_1585.jpg"",""SV_PolicingMSA/NY_1585/IMG_13_1585.jpg"",""SV_PolicingMSA/NY_1585/IMG_11_1585.jpg"",""SV_PolicingMSA/NY_1585/IMG_5_1585.jpg""]","1","","","","","","0","","4","[""./rc_img/cop_condGroup_1_CommunitySafety_autoscaled.png"",""./rc_img/cop_condGroup_1_SafeStreets_autoscaled.png""]","1","",""
"sliderTrial","html-slider-response","37","218758","0.0-37.0","","656776a7904ae00d6b91d1dd","6568ac7cab2ff39f3b46ba54","3","","","","","","","","","","","","4699","[""SV_PolicingMSA/NY_1585/IMG_1_1585.jpg"",""SV_PolicingMSA/NY_1585/IMG_12_1585.jpg"",""SV_PolicingMSA/NY_1585/IMG_14_1585.jpg"",""SV_PolicingMSA/NY_1585/IMG_0_1585.jpg"",""SV_PolicingMSA/NY_1585/IMG_6_1585.jpg"",""SV_PolicingMSA/NY_1585/IMG_13_1585.jpg"",""SV_PolicingMSA/NY_1585/IMG_11_1585.jpg"",""SV_PolicingMSA/NY_1585/IMG_5_1585.jpg""]","3","","","","","","0","","4","[""./rc_img/cop_condGroup_3_CommunitySafety_autoscaled.png"",""./rc_img/cop_condGroup_3_SafeStreets_autoscaled.png""]","3","",""
"sliderTrial_attention","html-slider-response","38","229199","0.0-38.0","","656776a7904ae00d6b91d1dd","6568ac7cab2ff39f3b46ba54","3","","","","","","","","","","","","null","[""SV_PolicingMSA/NY_1585/IMG_1_1585.jpg"",""SV_PolicingMSA/NY_1585/IMG_12_1585.jpg"",""SV_PolicingMSA/NY_1585/IMG_14_1585.jpg"",""SV_PolicingMSA/NY_1585/IMG_0_1585.jpg"",""SV_PolicingMSA/NY_1585/IMG_6_1585.jpg"",""SV_PolicingMSA/NY_1585/IMG_13_1585.jpg"",""SV_PolicingMSA/NY_1585/IMG_11_1585.jpg"",""SV_PolicingMSA/NY_1585/IMG_5_1585.jpg""]","null","","","","","","0","","4","[""./assets/img/attnchk.png"",""./assets/img/attnchk.png""]","","true",""
"sliderTrial","html-slider-response","39","232468","0.0-39.0","","656776a7904ae00d6b91d1dd","6568ac7cab2ff39f3b46ba54","3","","","","","","","","","","","","3269","[""SV_PolicingMSA/NY_1585/IMG_1_1585.jpg"",""SV_PolicingMSA/NY_1585/IMG_12_1585.jpg"",""SV_PolicingMSA/NY_1585/IMG_14_1585.jpg"",""SV_PolicingMSA/NY_1585/IMG_0_1585.jpg"",""SV_PolicingMSA/NY_1585/IMG_6_1585.jpg"",""SV_PolicingMSA/NY_1585/IMG_13_1585.jpg"",""SV_PolicingMSA/NY_1585/IMG_11_1585.jpg"",""SV_PolicingMSA/NY_1585/IMG_5_1585.jpg""]","1","","","","","","0","","4","[""./rc_img/cop_condGroup_5_CommunitySafety_autoscaled.png"",""./rc_img/cop_condGroup_5_SafeStreets_autoscaled.png""]","1","",""
"sliderTrial","html-slider-response","40","234983","0.0-40.0","","656776a7904ae00d6b91d1dd","6568ac7cab2ff39f3b46ba54","3","","","","","","","","","","","","2513","[""SV_PolicingMSA/NY_1585/IMG_1_1585.jpg"",""SV_PolicingMSA/NY_1585/IMG_12_1585.jpg"",""SV_PolicingMSA/NY_1585/IMG_14_1585.jpg"",""SV_PolicingMSA/NY_1585/IMG_0_1585.jpg"",""SV_PolicingMSA/NY_1585/IMG_6_1585.jpg"",""SV_PolicingMSA/NY_1585/IMG_13_1585.jpg"",""SV_PolicingMSA/NY_1585/IMG_11_1585.jpg"",""SV_PolicingMSA/NY_1585/IMG_5_1585.jpg""]","5","","","","","","0","","4","[""./rc_img/cop_condGroup_2_SafeStreets_autoscaled.png"",""./rc_img/cop_condGroup_2_CommunitySafety_autoscaled.png""]","3","",""
"before_SVSlide_prompt","html-button-response","41","236178","0.0-41.0","","656776a7904ae00d6b91d1dd","6568ac7cab2ff39f3b46ba54","3","","","","","","","","","","","","1195","Click [Next] to see the next neighborhood!","0","","","","","","","","","","","",""
"street view slide show","image-button-response","42","237266","0.0-42.0","","656776a7904ae00d6b91d1dd","6568ac7cab2ff39f3b46ba54","3","","","","","","","","","","","","null","stimulus/SV_PolicingMSA/NY_4412/IMG_5_4412.jpg","null","","","","","","3","","","","","",""
"street view slide show","image-button-response","43","238276","0.0-43.0","","656776a7904ae00d6b91d1dd","6568ac7cab2ff39f3b46ba54","3","","","","","","","","","","","","null","stimulus/SV_PolicingMSA/NY_4412/IMG_4_4412.jpg","null","","","","","","3","","","","","",""
"street view slide show","image-button-response","44","239288","0.0-44.0","","656776a7904ae00d6b91d1dd","6568ac7cab2ff39f3b46ba54","3","","","","","","","","","","","","null","stimulus/SV_PolicingMSA/NY_4412/IMG_11_4412.jpg","null","","","","","","3","","","","","",""
"street view slide show","image-button-response","45","240299","0.0-45.0","","656776a7904ae00d6b91d1dd","6568ac7cab2ff39f3b46ba54","3","","","","","","","","","","","","null","stimulus/SV_PolicingMSA/NY_4412/IMG_14_4412.jpg","null","","","","","","3","","","","","",""
"street view slide show","image-button-response","46","241306","0.0-46.0","","656776a7904ae00d6b91d1dd","6568ac7cab2ff39f3b46ba54","3","","","","","","","","","","","","null","stimulus/SV_PolicingMSA/NY_4412/IMG_7_4412.jpg","null","","","","","","3","","","","","",""
"street view slide show","image-button-response","47","242322","0.0-47.0","","656776a7904ae00d6b91d1dd","6568ac7cab2ff39f3b46ba54","3","","","","","","","","","","","","null","stimulus/SV_PolicingMSA/NY_4412/IMG_1_4412.jpg","null","","","","","","3","","","","","",""
"street view slide show","image-button-response","48","243331","0.0-48.0","","656776a7904ae00d6b91d1dd","6568ac7cab2ff39f3b46ba54","3","","","","","","","","","","","","null","stimulus/SV_PolicingMSA/NY_4412/IMG_12_4412.jpg","null","","","","","","3","","","","","",""
"street view slide show","image-button-response","49","244346","0.0-49.0","","656776a7904ae00d6b91d1dd","6568ac7cab2ff39f3b46ba54","3","","","","","","","","","","","","null","stimulus/SV_PolicingMSA/NY_4412/IMG_9_4412.jpg","null","","","","","","3","","","","","",""
"dot matrix survey1","survey","50","258535","0.0-50.0","","656776a7904ae00d6b91d1dd","6568ac7cab2ff39f3b46ba54","3","","","","","","","","","","","","14179","","{""P0_Q0"":null,""P0_Q1"":{""wealthy"":2,""safe"":3,""walkable"":3,""traditional"":2,""diverse"":3}}","","","","","","3","[]","","","","",""
"dot matrix survey2","survey","51","267169","0.0-51.0","","656776a7904ae00d6b91d1dd","6568ac7cab2ff39f3b46ba54","3","","","","","","","","","","","","8628","","{""P0_Q0"":null,""P0_Q1"":{""violence"":1,""crime"":1,""drug"":0,""schools"":2,""opportunities"":2}}","","","","","","3","[]","","","","",""
"dot matrix survey3","survey","52","282689","0.0-52.0","","656776a7904ae00d6b91d1dd","6568ac7cab2ff39f3b46ba54","3","","","","","","","","","","","","15509","","{""P0_Q0"":null,""P0_Q1"":{""movein"":3,""moveout"":1,""shopping"":3,""walk"":2,""park"":2,""school"":2}}","","","","","","3","[]","","","","",""
"sliderTrial","html-slider-response","53","285884","0.0-53.0","","656776a7904ae00d6b91d1dd","6568ac7cab2ff39f3b46ba54","3","","","","","","","","","","","","3194","[""SV_PolicingMSA/NY_4412/IMG_5_4412.jpg"",""SV_PolicingMSA/NY_4412/IMG_4_4412.jpg"",""SV_PolicingMSA/NY_4412/IMG_11_4412.jpg"",""SV_PolicingMSA/NY_4412/IMG_14_4412.jpg"",""SV_PolicingMSA/NY_4412/IMG_7_4412.jpg"",""SV_PolicingMSA/NY_4412/IMG_1_4412.jpg"",""SV_PolicingMSA/NY_4412/IMG_12_4412.jpg"",""SV_PolicingMSA/NY_4412/IMG_9_4412.jpg""]","1","","","","","","3","","4","[""./rc_img/cop_condGroup_6_CommunitySafety_autoscaled.png"",""./rc_img/cop_condGroup_6_SafeStreets_autoscaled.png""]","1","",""
"sliderTrial","html-slider-response","54","288763","0.0-54.0","","656776a7904ae00d6b91d1dd","6568ac7cab2ff39f3b46ba54","3","","","","","","","","","","","","2878","[""SV_PolicingMSA/NY_4412/IMG_5_4412.jpg"",""SV_PolicingMSA/NY_4412/IMG_4_4412.jpg"",""SV_PolicingMSA/NY_4412/IMG_11_4412.jpg"",""SV_PolicingMSA/NY_4412/IMG_14_4412.jpg"",""SV_PolicingMSA/NY_4412/IMG_7_4412.jpg"",""SV_PolicingMSA/NY_4412/IMG_1_4412.jpg"",""SV_PolicingMSA/NY_4412/IMG_12_4412.jpg"",""SV_PolicingMSA/NY_4412/IMG_9_4412.jpg""]","1","","","","","","3","","4","[""./rc_img/cop_condGroup_7_CommunitySafety_autoscaled.png"",""./rc_img/cop_condGroup_7_SafeStreets_autoscaled.png""]","1","",""
"sliderTrial","html-slider-response","55","292107","0.0-55.0","","656776a7904ae00d6b91d1dd","6568ac7cab2ff39f3b46ba54","3","","","","","","","","","","","","3344","[""SV_PolicingMSA/NY_4412/IMG_5_4412.jpg"",""SV_PolicingMSA/NY_4412/IMG_4_4412.jpg"",""SV_PolicingMSA/NY_4412/IMG_11_4412.jpg"",""SV_PolicingMSA/NY_4412/IMG_14_4412.jpg"",""SV_PolicingMSA/NY_4412/IMG_7_4412.jpg"",""SV_PolicingMSA/NY_4412/IMG_1_4412.jpg"",""SV_PolicingMSA/NY_4412/IMG_12_4412.jpg"",""SV_PolicingMSA/NY_4412/IMG_9_4412.jpg""]","1","","","","","","3","","4","[""./rc_img/cop_condGroup_9_CommunitySafety_autoscaled.png"",""./rc_img/cop_condGroup_9_SafeStreets_autoscaled.png""]","1","",""
"sliderTrial","html-slider-response","56","298397","0.0-56.0","","656776a7904ae00d6b91d1dd","6568ac7cab2ff39f3b46ba54","3","","","","","","","","","","","","6288","[""SV_PolicingMSA/NY_4412/IMG_5_4412.jpg"",""SV_PolicingMSA/NY_4412/IMG_4_4412.jpg"",""SV_PolicingMSA/NY_4412/IMG_11_4412.jpg"",""SV_PolicingMSA/NY_4412/IMG_14_4412.jpg"",""SV_PolicingMSA/NY_4412/IMG_7_4412.jpg"",""SV_PolicingMSA/NY_4412/IMG_1_4412.jpg"",""SV_PolicingMSA/NY_4412/IMG_12_4412.jpg"",""SV_PolicingMSA/NY_4412/IMG_9_4412.jpg""]","2","","","","","","3","","4","[""./rc_img/cop_condGroup_11_CommunitySafety_autoscaled.png"",""./rc_img/cop_condGroup_11_SafeStreets_autoscaled.png""]","2","",""
"sliderTrial","html-slider-response","57","301901","0.0-57.0","","656776a7904ae00d6b91d1dd","6568ac7cab2ff39f3b46ba54","3","","","","","","","","","","","","3503","[""SV_PolicingMSA/NY_4412/IMG_5_4412.jpg"",""SV_PolicingMSA/NY_4412/IMG_4_4412.jpg"",""SV_PolicingMSA/NY_4412/IMG_11_4412.jpg"",""SV_PolicingMSA/NY_4412/IMG_14_4412.jpg"",""SV_PolicingMSA/NY_4412/IMG_7_4412.jpg"",""SV_PolicingMSA/NY_4412/IMG_1_4412.jpg"",""SV_PolicingMSA/NY_4412/IMG_12_4412.jpg"",""SV_PolicingMSA/NY_4412/IMG_9_4412.jpg""]","6","","","","","","3","","4","[""./rc_img/cop_condGroup_10_SafeStreets_autoscaled.png"",""./rc_img/cop_condGroup_10_CommunitySafety_autoscaled.png""]","2","",""
"before_SVSlide_prompt","html-button-response","58","303052","0.0-58.0","","656776a7904ae00d6b91d1dd","6568ac7cab2ff39f3b46ba54","3","","","","","","","","","","","","1150","Click [Next] to see the next neighborhood!","0","","","","","","","","","","","",""
"street view slide show","image-button-response","59","304063","0.0-59.0","","656776a7904ae00d6b91d1dd","6568ac7cab2ff39f3b46ba54","3","","","","","","","","","","","","null","stimulus/SV_PolicingMSA/NY_4265/IMG_1_4265.jpg","null","","","","","","2","","","","","",""
"street view slide show","image-button-response","60","305075","0.0-60.0","","656776a7904ae00d6b91d1dd","6568ac7cab2ff39f3b46ba54","3","","","","","","","","","","","","null","stimulus/SV_PolicingMSA/NY_4265/IMG_10_4265.jpg","null","","","","","","2","","","","","",""
"street view slide show","image-button-response","61","306174","0.0-61.0","","656776a7904ae00d6b91d1dd","6568ac7cab2ff39f3b46ba54","3","","","","","","","","","","","","null","stimulus/SV_PolicingMSA/NY_4265/IMG_9_4265.jpg","null","","","","","","2","","","","","",""
"street view slide show","image-button-response","62","307189","0.0-62.0","","656776a7904ae00d6b91d1dd","6568ac7cab2ff39f3b46ba54","3","","","","","","","","","","","","null","stimulus/SV_PolicingMSA/NY_4265/IMG_12_4265.jpg","null","","","","","","2","","","","","",""
"street view slide show","image-button-response","63","308198","0.0-63.0","","656776a7904ae00d6b91d1dd","6568ac7cab2ff39f3b46ba54","3","","","","","","","","","","","","null","stimulus/SV_PolicingMSA/NY_4265/IMG_0_4265.jpg","null","","","","","","2","","","","","",""
"street view slide show","image-button-response","64","309213","0.0-64.0","","656776a7904ae00d6b91d1dd","6568ac7cab2ff39f3b46ba54","3","","","","","","","","","","","","null","stimulus/SV_PolicingMSA/NY_4265/IMG_4_4265.jpg","null","","","","","","2","","","","","",""
"street view slide show","image-button-response","65","310329","0.0-65.0","","656776a7904ae00d6b91d1dd","6568ac7cab2ff39f3b46ba54","3","","","","","","","","","","","","null","stimulus/SV_PolicingMSA/NY_4265/IMG_7_4265.jpg","null","","","","","","2","","","","","",""
"street view slide show","image-button-response","66","311338","0.0-66.0","","656776a7904ae00d6b91d1dd","6568ac7cab2ff39f3b46ba54","3","","","","","","","","","","","","null","stimulus/SV_PolicingMSA/NY_4265/IMG_8_4265.jpg","null","","","","","","2","","","","","",""
"dot matrix survey1","survey","67","320511","0.0-67.0","","656776a7904ae00d6b91d1dd","6568ac7cab2ff39f3b46ba54","3","","","","","","","","","","","","9155","","{""P0_Q0"":null,""P0_Q1"":{""wealthy"":0,""safe"":0,""walkable"":0,""traditional"":1,""diverse"":2}}","","","","","","2","[]","","","","",""
"dot matrix survey2","survey","68","330188","0.0-68.0","","656776a7904ae00d6b91d1dd","6568ac7cab2ff39f3b46ba54","3","","","","","","","","","","","","9671","","{""P0_Q0"":null,""P0_Q1"":{""violence"":3,""crime"":3,""drug"":4,""schools"":1,""opportunities"":0}}","","","","","","2","[]","","","","",""
"dot matrix survey3","survey","69","340035","0.0-69.0","","656776a7904ae00d6b91d1dd","6568ac7cab2ff39f3b46ba54","3","","","","","","","","","","","","9836","","{""P0_Q0"":null,""P0_Q1"":{""movein"":0,""moveout"":4,""shopping"":0,""walk"":0,""park"":0,""school"":0}}","","","","","","2","[]","","","","",""
"sliderTrial","html-slider-response","70","344225","0.0-70.0","","656776a7904ae00d6b91d1dd","6568ac7cab2ff39f3b46ba54","3","","","","","","","","","","","","4188","[""SV_PolicingMSA/NY_4265/IMG_1_4265.jpg"",""SV_PolicingMSA/NY_4265/IMG_10_4265.jpg"",""SV_PolicingMSA/NY_4265/IMG_9_4265.jpg"",""SV_PolicingMSA/NY_4265/IMG_12_4265.jpg"",""SV_PolicingMSA/NY_4265/IMG_0_4265.jpg"",""SV_PolicingMSA/NY_4265/IMG_4_4265.jpg"",""SV_PolicingMSA/NY_4265/IMG_7_4265.jpg"",""SV_PolicingMSA/NY_4265/IMG_8_4265.jpg""]","6","","","","","","2","","4","[""./rc_img/cop_condGroup_12_SafeStreets_autoscaled.png"",""./rc_img/cop_condGroup_12_CommunitySafety_autoscaled.png""]","2","",""
"sliderTrial","html-slider-response","71","346986","0.0-71.0","","656776a7904ae00d6b91d1dd","6568ac7cab2ff39f3b46ba54","3","","","","","","","","","","","","2760","[""SV_PolicingMSA/NY_4265/IMG_1_4265.jpg"",""SV_PolicingMSA/NY_4265/IMG_10_4265.jpg"",""SV_PolicingMSA/NY_4265/IMG_9_4265.jpg"",""SV_PolicingMSA/NY_4265/IMG_12_4265.jpg"",""SV_PolicingMSA/NY_4265/IMG_0_4265.jpg"",""SV_PolicingMSA/NY_4265/IMG_4_4265.jpg"",""SV_PolicingMSA/NY_4265/IMG_7_4265.jpg"",""SV_PolicingMSA/NY_4265/IMG_8_4265.jpg""]","2","","","","","","2","","4","[""./rc_img/cop_condGroup_13_CommunitySafety_autoscaled.png"",""./rc_img/cop_condGroup_13_SafeStreets_autoscaled.png""]","2","",""
"sliderTrial","html-slider-response","72","350350","0.0-72.0","","656776a7904ae00d6b91d1dd","6568ac7cab2ff39f3b46ba54","3","","","","","","","","","","","","3362","[""SV_PolicingMSA/NY_4265/IMG_1_4265.jpg"",""SV_PolicingMSA/NY_4265/IMG_10_4265.jpg"",""SV_PolicingMSA/NY_4265/IMG_9_4265.jpg"",""SV_PolicingMSA/NY_4265/IMG_12_4265.jpg"",""SV_PolicingMSA/NY_4265/IMG_0_4265.jpg"",""SV_PolicingMSA/NY_4265/IMG_4_4265.jpg"",""SV_PolicingMSA/NY_4265/IMG_7_4265.jpg"",""SV_PolicingMSA/NY_4265/IMG_8_4265.jpg""]","2","","","","","","2","","4","[""./rc_img/cop_condGroup_15_CommunitySafety_autoscaled.png"",""./rc_img/cop_condGroup_15_SafeStreets_autoscaled.png""]","2","",""
"sliderTrial","html-slider-response","73","353377","0.0-73.0","","656776a7904ae00d6b91d1dd","6568ac7cab2ff39f3b46ba54","3","","","","","","","","","","","","3027","[""SV_PolicingMSA/NY_4265/IMG_1_4265.jpg"",""SV_PolicingMSA/NY_4265/IMG_10_4265.jpg"",""SV_PolicingMSA/NY_4265/IMG_9_4265.jpg"",""SV_PolicingMSA/NY_4265/IMG_12_4265.jpg"",""SV_PolicingMSA/NY_4265/IMG_0_4265.jpg"",""SV_PolicingMSA/NY_4265/IMG_4_4265.jpg"",""SV_PolicingMSA/NY_4265/IMG_7_4265.jpg"",""SV_PolicingMSA/NY_4265/IMG_8_4265.jpg""]","6","","","","","","2","","4","[""./rc_img/cop_condGroup_8_SafeStreets_autoscaled.png"",""./rc_img/cop_condGroup_8_CommunitySafety_autoscaled.png""]","2","",""
"sliderTrial","html-slider-response","74","355939","0.0-74.0","","656776a7904ae00d6b91d1dd","6568ac7cab2ff39f3b46ba54","3","","","","","","","","","","","","2561","[""SV_PolicingMSA/NY_4265/IMG_1_4265.jpg"",""SV_PolicingMSA/NY_4265/IMG_10_4265.jpg"",""SV_PolicingMSA/NY_4265/IMG_9_4265.jpg"",""SV_PolicingMSA/NY_4265/IMG_12_4265.jpg"",""SV_PolicingMSA/NY_4265/IMG_0_4265.jpg"",""SV_PolicingMSA/NY_4265/IMG_4_4265.jpg"",""SV_PolicingMSA/NY_4265/IMG_7_4265.jpg"",""SV_PolicingMSA/NY_4265/IMG_8_4265.jpg""]","6","","","","","","2","","4","[""./rc_img/cop_condGroup_14_SafeStreets_autoscaled.png"",""./rc_img/cop_condGroup_14_CommunitySafety_autoscaled.png""]","2","",""
"half-way","html-button-response","75","372474","0.0-75.0","","656776a7904ae00d6b91d1dd","6568ac7cab2ff39f3b46ba54","3","","","","","","","","","","","","null","
    <h3>You are now half way through the study.</h3>
    <p>Please take a quick, 15-second break before you continue.</p>
    <img src='assets/img/countdown-15.gif'>
    <p>The study will automatically advance forward after the countdown is complete. <br> However, you may click ""Next"" to advance forward now if you wish.</p>
    ","null","","","","","","","","","","","",""
"before_SVSlide_prompt","html-button-response","76","373806","0.0-76.0","","656776a7904ae00d6b91d1dd","6568ac7cab2ff39f3b46ba54","3","","","","","","","","","","","","1331","Click [Next] to see the next neighborhood!","0","","","","","","","","","","","",""
"street view slide show","image-button-response","77","374812","0.0-77.0","","656776a7904ae00d6b91d1dd","6568ac7cab2ff39f3b46ba54","3","","","","","","","","","","","","null","stimulus/SV_PolicingMSA/NY_1390/IMG_11_1390.jpg","null","","","","","","2","","","","","",""
"street view slide show","image-button-response","78","375824","0.0-78.0","","656776a7904ae00d6b91d1dd","6568ac7cab2ff39f3b46ba54","3","","","","","","","","","","","","null","stimulus/SV_PolicingMSA/NY_1390/IMG_8_1390.jpg","null","","","","","","2","","","","","",""
"street view slide show","image-button-response","79","376835","0.0-79.0","","656776a7904ae00d6b91d1dd","6568ac7cab2ff39f3b46ba54","3","","","","","","","","","","","","null","stimulus/SV_PolicingMSA/NY_1390/IMG_4_1390.jpg","null","","","","","","2","","","","","",""
"street view slide show","image-button-response","80","377847","0.0-80.0","","656776a7904ae00d6b91d1dd","6568ac7cab2ff39f3b46ba54","3","","","","","","","","","","","","null","stimulus/SV_PolicingMSA/NY_1390/IMG_6_1390.jpg","null","","","","","","2","","","","","",""
"street view slide show","image-button-response","81","378858","0.0-81.0","","656776a7904ae00d6b91d1dd","6568ac7cab2ff39f3b46ba54","3","","","","","","","","","","","","null","stimulus/SV_PolicingMSA/NY_1390/IMG_3_1390.jpg","null","","","","","","2","","","","","",""
"street view slide show","image-button-response","82","379898","0.0-82.0","","656776a7904ae00d6b91d1dd","6568ac7cab2ff39f3b46ba54","3","","","","","","","","","","","","null","stimulus/SV_PolicingMSA/NY_1390/IMG_0_1390.jpg","null","","","","","","2","","","","","",""
"street view slide show","image-button-response","83","380911","0.0-83.0","","656776a7904ae00d6b91d1dd","6568ac7cab2ff39f3b46ba54","3","","","","","","","","","","","","null","stimulus/SV_PolicingMSA/NY_1390/IMG_2_1390.jpg","null","","","","","","2","","","","","",""
"street view slide show","image-button-response","84","381927","0.0-84.0","","656776a7904ae00d6b91d1dd","6568ac7cab2ff39f3b46ba54","3","","","","","","","","","","","","null","stimulus/SV_PolicingMSA/NY_1390/IMG_1_1390.jpg","null","","","","","","2","","","","","",""
"dot matrix survey1","survey","85","397558","0.0-85.0","","656776a7904ae00d6b91d1dd","6568ac7cab2ff39f3b46ba54","3","","","","","","","","","","","","15620","","{""P0_Q0"":null,""P0_Q1"":{""wealthy"":2,""walkable"":2,""safe"":2,""traditional"":3,""diverse"":1}}","","","","","","2","[]","","","","",""
"dot matrix survey2","survey","86","406679","0.0-86.0","","656776a7904ae00d6b91d1dd","6568ac7cab2ff39f3b46ba54","3","","","","","","","","","","","","9110","","{""P0_Q0"":null,""P0_Q1"":{""violence"":1,""crime"":2,""drug"":1,""schools"":2,""opportunities"":2}}","","","","","","2","[]","","","","",""
"dot matrix survey3","survey","87","421914","0.0-87.0","","656776a7904ae00d6b91d1dd","6568ac7cab2ff39f3b46ba54","3","","","","","","","","","","","","15223","","{""P0_Q0"":null,""P0_Q1"":{""movein"":2,""moveout"":1,""shopping"":2,""walk"":1,""park"":1,""school"":1}}","","","","","","2","[]","","","","",""
"sliderTrial","html-slider-response","88","426692","0.0-88.0","","656776a7904ae00d6b91d1dd","6568ac7cab2ff39f3b46ba54","3","","","","","","","","","","","","4777","[""SV_PolicingMSA/NY_1390/IMG_11_1390.jpg"",""SV_PolicingMSA/NY_1390/IMG_8_1390.jpg"",""SV_PolicingMSA/NY_1390/IMG_4_1390.jpg"",""SV_PolicingMSA/NY_1390/IMG_6_1390.jpg"",""SV_PolicingMSA/NY_1390/IMG_3_1390.jpg"",""SV_PolicingMSA/NY_1390/IMG_0_1390.jpg"",""SV_PolicingMSA/NY_1390/IMG_2_1390.jpg"",""SV_PolicingMSA/NY_1390/IMG_1_1390.jpg""]","1","","","","","","2","","4","[""./rc_img/cop_condGroup_4_CommunitySafety_autoscaled.png"",""./rc_img/cop_condGroup_4_SafeStreets_autoscaled.png""]","1","",""
"sliderTrial","html-slider-response","89","430525","0.0-89.0","","656776a7904ae00d6b91d1dd","6568ac7cab2ff39f3b46ba54","3","","","","","","","","","","","","3833","[""SV_PolicingMSA/NY_1390/IMG_11_1390.jpg"",""SV_PolicingMSA/NY_1390/IMG_8_1390.jpg"",""SV_PolicingMSA/NY_1390/IMG_4_1390.jpg"",""SV_PolicingMSA/NY_1390/IMG_6_1390.jpg"",""SV_PolicingMSA/NY_1390/IMG_3_1390.jpg"",""SV_PolicingMSA/NY_1390/IMG_0_1390.jpg"",""SV_PolicingMSA/NY_1390/IMG_2_1390.jpg"",""SV_PolicingMSA/NY_1390/IMG_1_1390.jpg""]","2","","","","","","2","","4","[""./rc_img/cop_condGroup_1_CommunitySafety_autoscaled.png"",""./rc_img/cop_condGroup_1_SafeStreets_autoscaled.png""]","2","",""
"sliderTrial","html-slider-response","90","433548","0.0-90.0","","656776a7904ae00d6b91d1dd","6568ac7cab2ff39f3b46ba54","3","","","","","","","","","","","","3022","[""SV_PolicingMSA/NY_1390/IMG_11_1390.jpg"",""SV_PolicingMSA/NY_1390/IMG_8_1390.jpg"",""SV_PolicingMSA/NY_1390/IMG_4_1390.jpg"",""SV_PolicingMSA/NY_1390/IMG_6_1390.jpg"",""SV_PolicingMSA/NY_1390/IMG_3_1390.jpg"",""SV_PolicingMSA/NY_1390/IMG_0_1390.jpg"",""SV_PolicingMSA/NY_1390/IMG_2_1390.jpg"",""SV_PolicingMSA/NY_1390/IMG_1_1390.jpg""]","2","","","","","","2","","4","[""./rc_img/cop_condGroup_3_CommunitySafety_autoscaled.png"",""./rc_img/cop_condGroup_3_SafeStreets_autoscaled.png""]","2","",""
"sliderTrial","html-slider-response","91","436133","0.0-91.0","","656776a7904ae00d6b91d1dd","6568ac7cab2ff39f3b46ba54","3","","","","","","","","","","","","2585","[""SV_PolicingMSA/NY_1390/IMG_11_1390.jpg"",""SV_PolicingMSA/NY_1390/IMG_8_1390.jpg"",""SV_PolicingMSA/NY_1390/IMG_4_1390.jpg"",""SV_PolicingMSA/NY_1390/IMG_6_1390.jpg"",""SV_PolicingMSA/NY_1390/IMG_3_1390.jpg"",""SV_PolicingMSA/NY_1390/IMG_0_1390.jpg"",""SV_PolicingMSA/NY_1390/IMG_2_1390.jpg"",""SV_PolicingMSA/NY_1390/IMG_1_1390.jpg""]","2","","","","","","2","","4","[""./rc_img/cop_condGroup_5_CommunitySafety_autoscaled.png"",""./rc_img/cop_condGroup_5_SafeStreets_autoscaled.png""]","2","",""
"sliderTrial","html-slider-response","92","438532","0.0-92.0","","656776a7904ae00d6b91d1dd","6568ac7cab2ff39f3b46ba54","3","","","","","","","","","","","","2398","[""SV_PolicingMSA/NY_1390/IMG_11_1390.jpg"",""SV_PolicingMSA/NY_1390/IMG_8_1390.jpg"",""SV_PolicingMSA/NY_1390/IMG_4_1390.jpg"",""SV_PolicingMSA/NY_1390/IMG_6_1390.jpg"",""SV_PolicingMSA/NY_1390/IMG_3_1390.jpg"",""SV_PolicingMSA/NY_1390/IMG_0_1390.jpg"",""SV_PolicingMSA/NY_1390/IMG_2_1390.jpg"",""SV_PolicingMSA/NY_1390/IMG_1_1390.jpg""]","6","","","","","","2","","4","[""./rc_img/cop_condGroup_2_SafeStreets_autoscaled.png"",""./rc_img/cop_condGroup_2_CommunitySafety_autoscaled.png""]","2","",""
"before_SVSlide_prompt","html-button-response","93","439652","0.0-93.0","","656776a7904ae00d6b91d1dd","6568ac7cab2ff39f3b46ba54","3","","","","","","","","","","","","1120","Click [Next] to see the next neighborhood!","0","","","","","","","","","","","",""
"street view slide show","image-button-response","94","440656","0.0-94.0","","656776a7904ae00d6b91d1dd","6568ac7cab2ff39f3b46ba54","3","","","","","","","","","","","","null","stimulus/SV_PolicingMSA/NY_4631/IMG_14_4631.jpg","null","","","","","","5","","","","","",""
"street view slide show","image-button-response","95","441670","0.0-95.0","","656776a7904ae00d6b91d1dd","6568ac7cab2ff39f3b46ba54","3","","","","","","","","","","","","null","stimulus/SV_PolicingMSA/NY_4631/IMG_2_4631.jpg","null","","","","","","5","","","","","",""
"street view slide show","image-button-response","96","442676","0.0-96.0","","656776a7904ae00d6b91d1dd","6568ac7cab2ff39f3b46ba54","3","","","","","","","","","","","","null","stimulus/SV_PolicingMSA/NY_4631/IMG_5_4631.jpg","null","","","","","","5","","","","","",""
"street view slide show","image-button-response","97","443684","0.0-97.0","","656776a7904ae00d6b91d1dd","6568ac7cab2ff39f3b46ba54","3","","","","","","","","","","","","null","stimulus/SV_PolicingMSA/NY_4631/IMG_8_4631.jpg","null","","","","","","5","","","","","",""
"street view slide show","image-button-response","98","444695","0.0-98.0","","656776a7904ae00d6b91d1dd","6568ac7cab2ff39f3b46ba54","3","","","","","","","","","","","","null","stimulus/SV_PolicingMSA/NY_4631/IMG_7_4631.jpg","null","","","","","","5","","","","","",""
"street view slide show","image-button-response","99","445703","0.0-99.0","","656776a7904ae00d6b91d1dd","6568ac7cab2ff39f3b46ba54","3","","","","","","","","","","","","null","stimulus/SV_PolicingMSA/NY_4631/IMG_13_4631.jpg","null","","","","","","5","","","","","",""
"street view slide show","image-button-response","100","446714","0.0-100.0","","656776a7904ae00d6b91d1dd","6568ac7cab2ff39f3b46ba54","3","","","","","","","","","","","","null","stimulus/SV_PolicingMSA/NY_4631/IMG_1_4631.jpg","null","","","","","","5","","","","","",""
"street view slide show","image-button-response","101","447725","0.0-101.0","","656776a7904ae00d6b91d1dd","6568ac7cab2ff39f3b46ba54","3","","","","","","","","","","","","null","stimulus/SV_PolicingMSA/NY_4631/IMG_6_4631.jpg","null","","","","","","5","","","","","",""
"dot matrix survey1","survey","102","460033","0.0-102.0","","656776a7904ae00d6b91d1dd","6568ac7cab2ff39f3b46ba54","3","","","","","","","","","","","","12301","","{""P0_Q0"":null,""P0_Q1"":{""wealthy"":4,""safe"":3,""walkable"":3,""traditional"":1,""diverse"":1}}","","","","","","5","[]","","","","",""
"dot matrix survey2","survey","103","468549","0.0-103.0","","656776a7904ae00d6b91d1dd","6568ac7cab2ff39f3b46ba54","3","","","","","","","","","","","","8505","","{""P0_Q0"":null,""P0_Q1"":{""violence"":1,""crime"":1,""drug"":0,""schools"":3,""opportunities"":3}}","","","","","","5","[]","","","","",""
"dot matrix survey3","survey","104","482051","0.0-104.0","","656776a7904ae00d6b91d1dd","6568ac7cab2ff39f3b46ba54","3","","","","","","","","","","","","13490","","{""P0_Q0"":null,""P0_Q1"":{""movein"":3,""moveout"":0,""shopping"":4,""walk"":3,""park"":3,""school"":3}}","","","","","","5","[]","","","","",""
"sliderTrial","html-slider-response","105","484646","0.0-105.0","","656776a7904ae00d6b91d1dd","6568ac7cab2ff39f3b46ba54","3","","","","","","","","","","","","2594","[""SV_PolicingMSA/NY_4631/IMG_14_4631.jpg"",""SV_PolicingMSA/NY_4631/IMG_2_4631.jpg"",""SV_PolicingMSA/NY_4631/IMG_5_4631.jpg"",""SV_PolicingMSA/NY_4631/IMG_8_4631.jpg"",""SV_PolicingMSA/NY_4631/IMG_7_4631.jpg"",""SV_PolicingMSA/NY_4631/IMG_13_4631.jpg"",""SV_PolicingMSA/NY_4631/IMG_1_4631.jpg"",""SV_PolicingMSA/NY_4631/IMG_6_4631.jpg""]","1","","","","","","5","","4","[""./rc_img/cop_condGroup_17_CommunitySafety_autoscaled.png"",""./rc_img/cop_condGroup_17_SafeStreets_autoscaled.png""]","1","",""
"sliderTrial","html-slider-response","106","487663","0.0-106.0","","656776a7904ae00d6b91d1dd","6568ac7cab2ff39f3b46ba54","3","","","","","","","","","","","","3015","[""SV_PolicingMSA/NY_4631/IMG_14_4631.jpg"",""SV_PolicingMSA/NY_4631/IMG_2_4631.jpg"",""SV_PolicingMSA/NY_4631/IMG_5_4631.jpg"",""SV_PolicingMSA/NY_4631/IMG_8_4631.jpg"",""SV_PolicingMSA/NY_4631/IMG_7_4631.jpg"",""SV_PolicingMSA/NY_4631/IMG_13_4631.jpg"",""SV_PolicingMSA/NY_4631/IMG_1_4631.jpg"",""SV_PolicingMSA/NY_4631/IMG_6_4631.jpg""]","1","","","","","","5","","4","[""./rc_img/cop_condGroup_16_CommunitySafety_autoscaled.png"",""./rc_img/cop_condGroup_16_SafeStreets_autoscaled.png""]","1","",""
"sliderTrial","html-slider-response","107","491361","0.0-107.0","","656776a7904ae00d6b91d1dd","6568ac7cab2ff39f3b46ba54","3","","","","","","","","","","","","3697","[""SV_PolicingMSA/NY_4631/IMG_14_4631.jpg"",""SV_PolicingMSA/NY_4631/IMG_2_4631.jpg"",""SV_PolicingMSA/NY_4631/IMG_5_4631.jpg"",""SV_PolicingMSA/NY_4631/IMG_8_4631.jpg"",""SV_PolicingMSA/NY_4631/IMG_7_4631.jpg"",""SV_PolicingMSA/NY_4631/IMG_13_4631.jpg"",""SV_PolicingMSA/NY_4631/IMG_1_4631.jpg"",""SV_PolicingMSA/NY_4631/IMG_6_4631.jpg""]","6","","","","","","5","","4","[""./rc_img/cop_condGroup_18_SafeStreets_autoscaled.png"",""./rc_img/cop_condGroup_18_CommunitySafety_autoscaled.png""]","2","",""
"sliderTrial","html-slider-response","108","494576","0.0-108.0","","656776a7904ae00d6b91d1dd","6568ac7cab2ff39f3b46ba54","3","","","","","","","","","","","","3214","[""SV_PolicingMSA/NY_4631/IMG_14_4631.jpg"",""SV_PolicingMSA/NY_4631/IMG_2_4631.jpg"",""SV_PolicingMSA/NY_4631/IMG_5_4631.jpg"",""SV_PolicingMSA/NY_4631/IMG_8_4631.jpg"",""SV_PolicingMSA/NY_4631/IMG_7_4631.jpg"",""SV_PolicingMSA/NY_4631/IMG_13_4631.jpg"",""SV_PolicingMSA/NY_4631/IMG_1_4631.jpg"",""SV_PolicingMSA/NY_4631/IMG_6_4631.jpg""]","6","","","","","","5","","4","[""./rc_img/cop_condGroup_19_SafeStreets_autoscaled.png"",""./rc_img/cop_condGroup_19_CommunitySafety_autoscaled.png""]","2","",""
"sliderTrial","html-slider-response","109","497770","0.0-109.0","","656776a7904ae00d6b91d1dd","6568ac7cab2ff39f3b46ba54","3","","","","","","","","","","","","3193","[""SV_PolicingMSA/NY_4631/IMG_14_4631.jpg"",""SV_PolicingMSA/NY_4631/IMG_2_4631.jpg"",""SV_PolicingMSA/NY_4631/IMG_5_4631.jpg"",""SV_PolicingMSA/NY_4631/IMG_8_4631.jpg"",""SV_PolicingMSA/NY_4631/IMG_7_4631.jpg"",""SV_PolicingMSA/NY_4631/IMG_13_4631.jpg"",""SV_PolicingMSA/NY_4631/IMG_1_4631.jpg"",""SV_PolicingMSA/NY_4631/IMG_6_4631.jpg""]","2","","","","","","5","","4","[""./rc_img/cop_condGroup_20_CommunitySafety_autoscaled.png"",""./rc_img/cop_condGroup_20_SafeStreets_autoscaled.png""]","2","",""
"before_SVSlide_prompt","html-button-response","110","498981","0.0-110.0","","656776a7904ae00d6b91d1dd","6568ac7cab2ff39f3b46ba54","3","","","","","","","","","","","","1212","Click [Next] to see the next neighborhood!","0","","","","","","","","","","","",""
"street view slide show","image-button-response","111","499996","0.0-111.0","","656776a7904ae00d6b91d1dd","6568ac7cab2ff39f3b46ba54","3","","","","","","","","","","","","null","stimulus/SV_PolicingMSA/NY_293/IMG_14_293.jpg","null","","","","","","4","","","","","",""
"street view slide show","image-button-response","112","501009","0.0-112.0","","656776a7904ae00d6b91d1dd","6568ac7cab2ff39f3b46ba54","3","","","","","","","","","","","","null","stimulus/SV_PolicingMSA/NY_293/IMG_1_293.jpg","null","","","","","","4","","","","","",""
"street view slide show","image-button-response","113","502019","0.0-113.0","","656776a7904ae00d6b91d1dd","6568ac7cab2ff39f3b46ba54","3","","","","","","","","","","","","null","stimulus/SV_PolicingMSA/NY_293/IMG_5_293.jpg","null","","","","","","4","","","","","",""
"street view slide show","image-button-response","114","503024","0.0-114.0","","656776a7904ae00d6b91d1dd","6568ac7cab2ff39f3b46ba54","3","","","","","","","","","","","","null","stimulus/SV_PolicingMSA/NY_293/IMG_10_293.jpg","null","","","","","","4","","","","","",""
"street view slide show","image-button-response","115","504035","0.0-115.0","","656776a7904ae00d6b91d1dd","6568ac7cab2ff39f3b46ba54","3","","","","","","","","","","","","null","stimulus/SV_PolicingMSA/NY_293/IMG_13_293.jpg","null","","","","","","4","","","","","",""
"street view slide show","image-button-response","116","505050","0.0-116.0","","656776a7904ae00d6b91d1dd","6568ac7cab2ff39f3b46ba54","3","","","","","","","","","","","","null","stimulus/SV_PolicingMSA/NY_293/IMG_7_293.jpg","null","","","","","","4","","","","","",""
"street view slide show","image-button-response","117","506055","0.0-117.0","","656776a7904ae00d6b91d1dd","6568ac7cab2ff39f3b46ba54","3","","","","","","","","","","","","null","stimulus/SV_PolicingMSA/NY_293/IMG_6_293.jpg","null","","","","","","4","","","","","",""
"street view slide show","image-button-response","118","507068","0.0-118.0","","656776a7904ae00d6b91d1dd","6568ac7cab2ff39f3b46ba54","3","","","","","","","","","","","","null","stimulus/SV_PolicingMSA/NY_293/IMG_8_293.jpg","null","","","","","","4","","","","","",""
"dot matrix survey1","survey","119","518773","0.0-119.0","","656776a7904ae00d6b91d1dd","6568ac7cab2ff39f3b46ba54","3","","","","","","","","","","","","11699","","{""P0_Q0"":null,""P0_Q1"":{""wealthy"":3,""safe"":3,""walkable"":3,""traditional"":4,""diverse"":4}}","","","","","","4","[]","","","","",""
"dot matrix survey2","survey","120","527507","0.0-120.0","","656776a7904ae00d6b91d1dd","6568ac7cab2ff39f3b46ba54","3","","","","","","","","","","","","8728","","{""P0_Q0"":null,""P0_Q1"":{""violence"":1,""crime"":1,""drug"":0,""schools"":2,""opportunities"":2}}","","","","","","4","[]","","","","",""
"dot matrix survey3","survey","121","538975","0.0-121.0","","656776a7904ae00d6b91d1dd","6568ac7cab2ff39f3b46ba54","3","","","","","","","","","","","","11457","","{""P0_Q0"":null,""P0_Q1"":{""movein"":3,""moveout"":1,""shopping"":3,""walk"":2,""park"":3,""school"":3}}","","","","","","4","[]","","","","",""
"sliderTrial","html-slider-response","122","541854","0.0-122.0","","656776a7904ae00d6b91d1dd","6568ac7cab2ff39f3b46ba54","3","","","","","","","","","","","","2880","[""SV_PolicingMSA/NY_293/IMG_14_293.jpg"",""SV_PolicingMSA/NY_293/IMG_1_293.jpg"",""SV_PolicingMSA/NY_293/IMG_5_293.jpg"",""SV_PolicingMSA/NY_293/IMG_10_293.jpg"",""SV_PolicingMSA/NY_293/IMG_13_293.jpg"",""SV_PolicingMSA/NY_293/IMG_7_293.jpg"",""SV_PolicingMSA/NY_293/IMG_6_293.jpg"",""SV_PolicingMSA/NY_293/IMG_8_293.jpg""]","7","","","","","","4","","4","[""./rc_img/cop_condGroup_12_SafeStreets_autoscaled.png"",""./rc_img/cop_condGroup_12_CommunitySafety_autoscaled.png""]","1","",""
"sliderTrial","html-slider-response","123","545742","0.0-123.0","","656776a7904ae00d6b91d1dd","6568ac7cab2ff39f3b46ba54","3","","","","","","","","","","","","3886","[""SV_PolicingMSA/NY_293/IMG_14_293.jpg"",""SV_PolicingMSA/NY_293/IMG_1_293.jpg"",""SV_PolicingMSA/NY_293/IMG_5_293.jpg"",""SV_PolicingMSA/NY_293/IMG_10_293.jpg"",""SV_PolicingMSA/NY_293/IMG_13_293.jpg"",""SV_PolicingMSA/NY_293/IMG_7_293.jpg"",""SV_PolicingMSA/NY_293/IMG_6_293.jpg"",""SV_PolicingMSA/NY_293/IMG_8_293.jpg""]","1","","","","","","4","","4","[""./rc_img/cop_condGroup_13_CommunitySafety_autoscaled.png"",""./rc_img/cop_condGroup_13_SafeStreets_autoscaled.png""]","1","",""
"sliderTrial","html-slider-response","124","548962","0.0-124.0","","656776a7904ae00d6b91d1dd","6568ac7cab2ff39f3b46ba54","3","","","","","","","","","","","","3219","[""SV_PolicingMSA/NY_293/IMG_14_293.jpg"",""SV_PolicingMSA/NY_293/IMG_1_293.jpg"",""SV_PolicingMSA/NY_293/IMG_5_293.jpg"",""SV_PolicingMSA/NY_293/IMG_10_293.jpg"",""SV_PolicingMSA/NY_293/IMG_13_293.jpg"",""SV_PolicingMSA/NY_293/IMG_7_293.jpg"",""SV_PolicingMSA/NY_293/IMG_6_293.jpg"",""SV_PolicingMSA/NY_293/IMG_8_293.jpg""]","2","","","","","","4","","4","[""./rc_img/cop_condGroup_15_CommunitySafety_autoscaled.png"",""./rc_img/cop_condGroup_15_SafeStreets_autoscaled.png""]","2","",""
"sliderTrial","html-slider-response","125","551616","0.0-125.0","","656776a7904ae00d6b91d1dd","6568ac7cab2ff39f3b46ba54","3","","","","","","","","","","","","2652","[""SV_PolicingMSA/NY_293/IMG_14_293.jpg"",""SV_PolicingMSA/NY_293/IMG_1_293.jpg"",""SV_PolicingMSA/NY_293/IMG_5_293.jpg"",""SV_PolicingMSA/NY_293/IMG_10_293.jpg"",""SV_PolicingMSA/NY_293/IMG_13_293.jpg"",""SV_PolicingMSA/NY_293/IMG_7_293.jpg"",""SV_PolicingMSA/NY_293/IMG_6_293.jpg"",""SV_PolicingMSA/NY_293/IMG_8_293.jpg""]","6","","","","","","4","","4","[""./rc_img/cop_condGroup_8_SafeStreets_autoscaled.png"",""./rc_img/cop_condGroup_8_CommunitySafety_autoscaled.png""]","2","",""
"sliderTrial","html-slider-response","126","554684","0.0-126.0","","656776a7904ae00d6b91d1dd","6568ac7cab2ff39f3b46ba54","3","","","","","","","","","","","","3068","[""SV_PolicingMSA/NY_293/IMG_14_293.jpg"",""SV_PolicingMSA/NY_293/IMG_1_293.jpg"",""SV_PolicingMSA/NY_293/IMG_5_293.jpg"",""SV_PolicingMSA/NY_293/IMG_10_293.jpg"",""SV_PolicingMSA/NY_293/IMG_13_293.jpg"",""SV_PolicingMSA/NY_293/IMG_7_293.jpg"",""SV_PolicingMSA/NY_293/IMG_6_293.jpg"",""SV_PolicingMSA/NY_293/IMG_8_293.jpg""]","7","","","","","","4","","4","[""./rc_img/cop_condGroup_14_SafeStreets_autoscaled.png"",""./rc_img/cop_condGroup_14_CommunitySafety_autoscaled.png""]","1","",""
"before_SVSlide_prompt","html-button-response","127","556199","0.0-127.0","","656776a7904ae00d6b91d1dd","6568ac7cab2ff39f3b46ba54","3","","","","","","","","","","","","1514","Click [Next] to see the next neighborhood!","0","","","","","","","","","","","",""
"street view slide show","image-button-response","128","557207","0.0-128.0","","656776a7904ae00d6b91d1dd","6568ac7cab2ff39f3b46ba54","3","","","","","","","","","","","","null","stimulus/SV_PolicingMSA/NY_226/IMG_11_226.jpg","null","","","","","","1","","","","","",""
"street view slide show","image-button-response","129","558218","0.0-129.0","","656776a7904ae00d6b91d1dd","6568ac7cab2ff39f3b46ba54","3","","","","","","","","","","","","null","stimulus/SV_PolicingMSA/NY_226/IMG_12_226.jpg","null","","","","","","1","","","","","",""
"street view slide show","image-button-response","130","559351","0.0-130.0","","656776a7904ae00d6b91d1dd","6568ac7cab2ff39f3b46ba54","3","","","","","","","","","","","","null","stimulus/SV_PolicingMSA/NY_226/IMG_8_226.jpg","null","","","","","","1","","","","","",""
"street view slide show","image-button-response","131","560365","0.0-131.0","","656776a7904ae00d6b91d1dd","6568ac7cab2ff39f3b46ba54","3","","","","","","","","","","","","null","stimulus/SV_PolicingMSA/NY_226/IMG_7_226.jpg","null","","","","","","1","","","","","",""
"street view slide show","image-button-response","132","561377","0.0-132.0","","656776a7904ae00d6b91d1dd","6568ac7cab2ff39f3b46ba54","3","","","","","","","","","","","","null","stimulus/SV_PolicingMSA/NY_226/IMG_0_226.jpg","null","","","","","","1","","","","","",""
"street view slide show","image-button-response","133","562390","0.0-133.0","","656776a7904ae00d6b91d1dd","6568ac7cab2ff39f3b46ba54","3","","","","","","","","","","","","null","stimulus/SV_PolicingMSA/NY_226/IMG_14_226.jpg","null","","","","","","1","","","","","",""
"street view slide show","image-button-response","134","563403","0.0-134.0","","656776a7904ae00d6b91d1dd","6568ac7cab2ff39f3b46ba54","3","","","","","","","","","","","","null","stimulus/SV_PolicingMSA/NY_226/IMG_5_226.jpg","null","","","","","","1","","","","","",""
"street view slide show","image-button-response","135","564410","0.0-135.0","","656776a7904ae00d6b91d1dd","6568ac7cab2ff39f3b46ba54","3","","","","","","","","","","","","null","stimulus/SV_PolicingMSA/NY_226/IMG_4_226.jpg","null","","","","","","1","","","","","",""
"dot matrix survey1","survey","136","576582","0.0-136.0","","656776a7904ae00d6b91d1dd","6568ac7cab2ff39f3b46ba54","3","","","","","","","","","","","","12164","","{""P0_Q0"":null,""P0_Q1"":{""wealthy"":1,""safe"":1,""walkable"":2,""traditional"":2,""diverse"":2}}","","","","","","1","[]","","","","",""
"dot matrix survey2","survey","137","585670","0.0-137.0","","656776a7904ae00d6b91d1dd","6568ac7cab2ff39f3b46ba54","3","","","","","","","","","","","","9083","","{""P0_Q0"":null,""P0_Q1"":{""violence"":2,""crime"":3,""drug"":1,""schools"":1,""opportunities"":1}}","","","","","","1","[]","","","","",""
"dot matrix survey3","survey","138","594981","0.0-138.0","","656776a7904ae00d6b91d1dd","6568ac7cab2ff39f3b46ba54","3","","","","","","","","","","","","9302","","{""P0_Q0"":null,""P0_Q1"":{""movein"":1,""moveout"":3,""shopping"":1,""walk"":0,""park"":0,""school"":0}}","","","","","","1","[]","","","","",""
"sliderTrial","html-slider-response","139","597314","0.0-139.0","","656776a7904ae00d6b91d1dd","6568ac7cab2ff39f3b46ba54","3","","","","","","","","","","","","2331","[""SV_PolicingMSA/NY_226/IMG_11_226.jpg"",""SV_PolicingMSA/NY_226/IMG_12_226.jpg"",""SV_PolicingMSA/NY_226/IMG_8_226.jpg"",""SV_PolicingMSA/NY_226/IMG_7_226.jpg"",""SV_PolicingMSA/NY_226/IMG_0_226.jpg"",""SV_PolicingMSA/NY_226/IMG_14_226.jpg"",""SV_PolicingMSA/NY_226/IMG_5_226.jpg"",""SV_PolicingMSA/NY_226/IMG_4_226.jpg""]","2","","","","","","1","","4","[""./rc_img/cop_condGroup_6_CommunitySafety_autoscaled.png"",""./rc_img/cop_condGroup_6_SafeStreets_autoscaled.png""]","2","",""
"sliderTrial","html-slider-response","140","599804","0.0-140.0","","656776a7904ae00d6b91d1dd","6568ac7cab2ff39f3b46ba54","3","","","","","","","","","","","","2490","[""SV_PolicingMSA/NY_226/IMG_11_226.jpg"",""SV_PolicingMSA/NY_226/IMG_12_226.jpg"",""SV_PolicingMSA/NY_226/IMG_8_226.jpg"",""SV_PolicingMSA/NY_226/IMG_7_226.jpg"",""SV_PolicingMSA/NY_226/IMG_0_226.jpg"",""SV_PolicingMSA/NY_226/IMG_14_226.jpg"",""SV_PolicingMSA/NY_226/IMG_5_226.jpg"",""SV_PolicingMSA/NY_226/IMG_4_226.jpg""]","2","","","","","","1","","4","[""./rc_img/cop_condGroup_7_CommunitySafety_autoscaled.png"",""./rc_img/cop_condGroup_7_SafeStreets_autoscaled.png""]","2","",""
"sliderTrial","html-slider-response","141","602332","0.0-141.0","","656776a7904ae00d6b91d1dd","6568ac7cab2ff39f3b46ba54","3","","","","","","","","","","","","2527","[""SV_PolicingMSA/NY_226/IMG_11_226.jpg"",""SV_PolicingMSA/NY_226/IMG_12_226.jpg"",""SV_PolicingMSA/NY_226/IMG_8_226.jpg"",""SV_PolicingMSA/NY_226/IMG_7_226.jpg"",""SV_PolicingMSA/NY_226/IMG_0_226.jpg"",""SV_PolicingMSA/NY_226/IMG_14_226.jpg"",""SV_PolicingMSA/NY_226/IMG_5_226.jpg"",""SV_PolicingMSA/NY_226/IMG_4_226.jpg""]","2","","","","","","1","","4","[""./rc_img/cop_condGroup_9_CommunitySafety_autoscaled.png"",""./rc_img/cop_condGroup_9_SafeStreets_autoscaled.png""]","2","",""
"sliderTrial","html-slider-response","142","604643","0.0-142.0","","656776a7904ae00d6b91d1dd","6568ac7cab2ff39f3b46ba54","3","","","","","","","","","","","","2309","[""SV_PolicingMSA/NY_226/IMG_11_226.jpg"",""SV_PolicingMSA/NY_226/IMG_12_226.jpg"",""SV_PolicingMSA/NY_226/IMG_8_226.jpg"",""SV_PolicingMSA/NY_226/IMG_7_226.jpg"",""SV_PolicingMSA/NY_226/IMG_0_226.jpg"",""SV_PolicingMSA/NY_226/IMG_14_226.jpg"",""SV_PolicingMSA/NY_226/IMG_5_226.jpg"",""SV_PolicingMSA/NY_226/IMG_4_226.jpg""]","1","","","","","","1","","4","[""./rc_img/cop_condGroup_11_CommunitySafety_autoscaled.png"",""./rc_img/cop_condGroup_11_SafeStreets_autoscaled.png""]","1","",""
"sliderTrial_attention","html-slider-response","143","614662","0.0-143.0","","656776a7904ae00d6b91d1dd","6568ac7cab2ff39f3b46ba54","3","","","","","","","","","","","","null","[""SV_PolicingMSA/NY_226/IMG_11_226.jpg"",""SV_PolicingMSA/NY_226/IMG_12_226.jpg"",""SV_PolicingMSA/NY_226/IMG_8_226.jpg"",""SV_PolicingMSA/NY_226/IMG_7_226.jpg"",""SV_PolicingMSA/NY_226/IMG_0_226.jpg"",""SV_PolicingMSA/NY_226/IMG_14_226.jpg"",""SV_PolicingMSA/NY_226/IMG_5_226.jpg"",""SV_PolicingMSA/NY_226/IMG_4_226.jpg""]","null","","","","","","1","","4","[""./assets/img/attnchk.png"",""./assets/img/attnchk.png""]","","true",""
"sliderTrial","html-slider-response","144","620170","0.0-144.0","","656776a7904ae00d6b91d1dd","6568ac7cab2ff39f3b46ba54","3","","","","","","","","","","","","5507","[""SV_PolicingMSA/NY_226/IMG_11_226.jpg"",""SV_PolicingMSA/NY_226/IMG_12_226.jpg"",""SV_PolicingMSA/NY_226/IMG_8_226.jpg"",""SV_PolicingMSA/NY_226/IMG_7_226.jpg"",""SV_PolicingMSA/NY_226/IMG_0_226.jpg"",""SV_PolicingMSA/NY_226/IMG_14_226.jpg"",""SV_PolicingMSA/NY_226/IMG_5_226.jpg"",""SV_PolicingMSA/NY_226/IMG_4_226.jpg""]","6","","","","","","1","","4","[""./rc_img/cop_condGroup_10_SafeStreets_autoscaled.png"",""./rc_img/cop_condGroup_10_CommunitySafety_autoscaled.png""]","2","",""
"demographics","survey-html-form","145","630617","0.0-145.0","","656776a7904ae00d6b91d1dd","6568ac7cab2ff39f3b46ba54","3","","","","","","","","","","","","10446","","{""age"":""35"",""sex"":""male"",""gender"":""man"",""gender-self-describe"":"""",""zipcode"":""16148""}","","","","","","","","","","","",""
"demographics-list","survey","146","648446","0.0-146.0","","656776a7904ae00d6b91d1dd","6568ac7cab2ff39f3b46ba54","3","","","","","","","","","","","","17808","","{""P0_Q0"":null,""race-ethnicity"":[""White or of European ancestry""],""education"":""Associate’s degree"",""P1_Q0"":null,""ideology"":""Liberal"",""P2_Q0"":null,""num-moves"":2,""P3_Q0"":null,""social-ladder"":4}","","","","","","","[]","","","","",""
"end-survey","survey-text","147","655385","0.0-147.0","","656776a7904ae00d6b91d1dd","6568ac7cab2ff39f3b46ba54","3","","","","","","","","","","","","6935","","{""Q0"":""""}","","","","","","","","","","","","2"
"end-survey","html-button-response","148","658740","0.0-148.0","","656776a7904ae00d6b91d1dd","6568ac7cab2ff39f3b46ba54","3","","","","","","","","","","","","3353","
    You've reached the end of the survey. <br><br> 
    <b>Do not close or refresh this window.</b><br>
    On the next page, you will be automatically redirected to Prolific. <br><br>

    <div class=""alert alert-warning""><b>
    </div>
","0","","","","","","","","","","","",""
