"task","trial_type","trial_index","time_elapsed","internal_node_id","subject_id","study_id","session_id","section","width","height","webaudio","browser","browser_version","mobile","os","fullscreen","vsync_rate","webcam","microphone","rt","stimulus","response","success","timeout","failed_images","failed_audio","failed_video","block","accuracy","slider_start","choices","standardized_response","correct","num_attention_checks_correct"
"pavlovia-init","pavlovia","0","664","0.0-0.0","","656776a7904ae00d6b91d1dd","6568aa02985948dd13f722f1","14","","","","","","","","","","","","","","","","","","","","","","","","","",""
"browser-check","browser-check","1","1669","0.0-1.0","","656776a7904ae00d6b91d1dd","6568aa02985948dd13f722f1","14","1159","513","true","edge-chromium","119.0.0","false","Windows 10","true","60.1","true","true","","","","","","","","","","","","","","",""
"consent","html-button-response","2","95040","0.0-2.0","","656776a7904ae00d6b91d1dd","6568aa02985948dd13f722f1","14","","","","","","","","","","","","93365","
        <div style=""font-size: 80%; max-width:700px"">
            <h2>CONSENT FORM</h2>
        
            <div style=""text-align: left"">
            <h4>DESCRIPTION</h4>
            <p>
            You will complete a short task where you give your impressions of various neighborhoods and assign individuals to those spaces, and answer some questions about your thoughts and opinions.<br>
            The University of Michigan Institutional Review Board Health Sciences and Behavioral Sciences has determined that this study is exempt from IRB oversight.
            </p>

            <h4>TIME INVOLVEMENT</h4>
            <p>Your participation will take approximately 15 minutes. You will receive $3.15 upon completion of the study.</p>
        
            <h4>RISKS AND BENEFITS</h4>
            <p>
            The risks associated with this study are minimal. The benefits which may reasonably be expected to result from this study are none. We cannot and do not guarantee or promise that you will receive any benefits from this study.
            </p>
          
            <h4>SUBJECT'S RIGHTS</h4>
            <p>
            If you have read this form and have decided to participate in this project, please understand your participation is voluntary and you have the right to withdraw your consent or discontinue participation at any time without penalty or loss of benefits to which you are otherwise entitled. The alternative is not to participate. You have the right to refuse to answer particular questions. Your individual privacy will be maintained in all published and written data resulting from the study.
            </p>

            <h4>HUMAN SUBJECT APPROVAL</h4>
            <p>
            This study is exempt from ongoing IRB review.
            </p>

            <h4>CONTACT INFORMATION</h4>
            If you have any questions, concerns or complaints about this research, its procedures, risks and benefits, contact the Protocol Director, Nicholas Camp, npcamp@umich.edu, (443) 851-6783. <br>

            If you have questions about your rights as a research participant, or wish to obtain information, ask questions or discuss any concerns about this study with someone other than the researcher(s), please contact the following:<br><br>
            University of Michigan<br>
            Health Sciences and Behavioral Sciences Institutional Review Board (IRB-HSBS)<br>
            2800 Plymouth Road<br>
            Building 520, Room 1169Ann Arbor, MI 48109-2800<br>
            Telephone: 734-936-0933 or toll free (866) 936-0933<br>
            Fax: 734-936-1852<br>
            E-mail: irbhsbs@umich.edu<br><br>

            You can also contact the University of Michigan Compliance Hotline at 1-866-990-0111. You may also print this consent form to keep.
            <br><br>
            <div class=""alert alert-warning""><b>
            Do you consent to participate in this study? If you consent to participate in this study, please click “Accept and Continue”. If you select ""Decline and Exit"", you will be exited from the survey. <br>
            </b></div>
            </div>
        </div>
    ","1","","","","","","","","","","","",""
"","preload","3","97561","0.0-3.0","","656776a7904ae00d6b91d1dd","6568aa02985948dd13f722f1","14","","","","","","","","","","","","","","","true","false","[]","[]","[]","","","","","","",""
"instructions","html-button-response","4","134286","0.0-4.0","","656776a7904ae00d6b91d1dd","6568aa02985948dd13f722f1","14","","","","","","","","","","","","36720","
        <div class=""text-container"">
        <h1>Welcome to the study!</h1>
        
        <div class=""text-left"">
            <p>
                In this study, we are interested in what people can tell about spaces from Google Street View images. <br> Google Street View takes pictures of streets used for Google Earth and Google Maps. <br>You’ll see Google Street View images of different places and answer some questions about each one.<br>
            </p>
        </div>
        <img src = ""assets/img/example.png"" width = 500px, height = auto>
        <br>
    <br>
    ","0","","","","","","","","","","","",""
"instructions","html-button-response","5","139126","0.0-5.0","","656776a7904ae00d6b91d1dd","6568aa02985948dd13f722f1","14","","","","","","","","","","","","4837","
    <div class=""text-container"">
        <div class=""text-center"">
            <p>Please remember that your answers are completely anonymous.<br>Go with your gut response- there are no right or wrong answers!</p>
        </div>
    <br>
","0","","","","","","","","","","","",""
"before_SVSlide_prompt","html-button-response","6","141086","0.0-6.0","","656776a7904ae00d6b91d1dd","6568aa02985948dd13f722f1","14","","","","","","","","","","","","1957","Click [Next] to see the next neighborhood!","0","","","","","","","","","","","",""
"street view slide show","image-button-response","7","142094","0.0-7.0","","656776a7904ae00d6b91d1dd","6568aa02985948dd13f722f1","14","","","","","","","","","","","","null","stimulus/SV_PolicingMSA/GA_2654/IMG_5_2654.jpg","null","","","","","","3","","","","","",""
"street view slide show","image-button-response","8","143110","0.0-8.0","","656776a7904ae00d6b91d1dd","6568aa02985948dd13f722f1","14","","","","","","","","","","","","null","stimulus/SV_PolicingMSA/GA_2654/IMG_8_2654.jpg","null","","","","","","3","","","","","",""
"street view slide show","image-button-response","9","144114","0.0-9.0","","656776a7904ae00d6b91d1dd","6568aa02985948dd13f722f1","14","","","","","","","","","","","","null","stimulus/SV_PolicingMSA/GA_2654/IMG_6_2654.jpg","null","","","","","","3","","","","","",""
"street view slide show","image-button-response","10","145124","0.0-10.0","","656776a7904ae00d6b91d1dd","6568aa02985948dd13f722f1","14","","","","","","","","","","","","null","stimulus/SV_PolicingMSA/GA_2654/IMG_1_2654.jpg","null","","","","","","3","","","","","",""
"street view slide show","image-button-response","11","146131","0.0-11.0","","656776a7904ae00d6b91d1dd","6568aa02985948dd13f722f1","14","","","","","","","","","","","","null","stimulus/SV_PolicingMSA/GA_2654/IMG_0_2654.jpg","null","","","","","","3","","","","","",""
"street view slide show","image-button-response","12","147160","0.0-12.0","","656776a7904ae00d6b91d1dd","6568aa02985948dd13f722f1","14","","","","","","","","","","","","null","stimulus/SV_PolicingMSA/GA_2654/IMG_7_2654.jpg","null","","","","","","3","","","","","",""
"street view slide show","image-button-response","13","148177","0.0-13.0","","656776a7904ae00d6b91d1dd","6568aa02985948dd13f722f1","14","","","","","","","","","","","","null","stimulus/SV_PolicingMSA/GA_2654/IMG_3_2654.jpg","null","","","","","","3","","","","","",""
"street view slide show","image-button-response","14","149194","0.0-14.0","","656776a7904ae00d6b91d1dd","6568aa02985948dd13f722f1","14","","","","","","","","","","","","null","stimulus/SV_PolicingMSA/GA_2654/IMG_12_2654.jpg","null","","","","","","3","","","","","",""
"dot matrix survey1","survey","15","213243","0.0-15.0","","656776a7904ae00d6b91d1dd","6568aa02985948dd13f722f1","14","","","","","","","","","","","","63892","","{""P0_Q0"":null,""P0_Q1"":{""wealthy"":3,""safe"":3,""walkable"":1,""traditional"":2,""diverse"":2}}","","","","","","3","[]","","","","",""
"dot matrix survey2","survey","16","262266","0.0-16.0","","656776a7904ae00d6b91d1dd","6568aa02985948dd13f722f1","14","","","","","","","","","","","","48978","","{""P0_Q0"":null,""P0_Q1"":{""violence"":0,""crime"":0,""drug"":1,""opportunities"":2,""schools"":2}}","","","","","","3","[]","","","","",""
"dot matrix survey3","survey","17","300036","0.0-17.0","","656776a7904ae00d6b91d1dd","6568aa02985948dd13f722f1","14","","","","","","","","","","","","37734","","{""P0_Q0"":null,""P0_Q1"":{""movein"":3,""moveout"":1,""shopping"":3,""walk"":3,""park"":3,""school"":3}}","","","","","","3","[]","","","","",""
"sliderTrial","html-slider-response","18","327766","0.0-18.0","","656776a7904ae00d6b91d1dd","6568aa02985948dd13f722f1","14","","","","","","","","","","","","27717","[""SV_PolicingMSA/GA_2654/IMG_5_2654.jpg"",""SV_PolicingMSA/GA_2654/IMG_8_2654.jpg"",""SV_PolicingMSA/GA_2654/IMG_6_2654.jpg"",""SV_PolicingMSA/GA_2654/IMG_1_2654.jpg"",""SV_PolicingMSA/GA_2654/IMG_0_2654.jpg"",""SV_PolicingMSA/GA_2654/IMG_7_2654.jpg"",""SV_PolicingMSA/GA_2654/IMG_3_2654.jpg"",""SV_PolicingMSA/GA_2654/IMG_12_2654.jpg""]","4","","","","","","3","","4","[""./rc_img/cop_condGroup_17_SafeStreets_autoscaled.png"",""./rc_img/cop_condGroup_17_CommunitySafety_autoscaled.png""]","4","",""
"sliderTrial","html-slider-response","19","334389","0.0-19.0","","656776a7904ae00d6b91d1dd","6568aa02985948dd13f722f1","14","","","","","","","","","","","","6617","[""SV_PolicingMSA/GA_2654/IMG_5_2654.jpg"",""SV_PolicingMSA/GA_2654/IMG_8_2654.jpg"",""SV_PolicingMSA/GA_2654/IMG_6_2654.jpg"",""SV_PolicingMSA/GA_2654/IMG_1_2654.jpg"",""SV_PolicingMSA/GA_2654/IMG_0_2654.jpg"",""SV_PolicingMSA/GA_2654/IMG_7_2654.jpg"",""SV_PolicingMSA/GA_2654/IMG_3_2654.jpg"",""SV_PolicingMSA/GA_2654/IMG_12_2654.jpg""]","4","","","","","","3","","4","[""./rc_img/cop_condGroup_14_SafeStreets_autoscaled.png"",""./rc_img/cop_condGroup_14_CommunitySafety_autoscaled.png""]","4","",""
"sliderTrial","html-slider-response","20","338373","0.0-20.0","","656776a7904ae00d6b91d1dd","6568aa02985948dd13f722f1","14","","","","","","","","","","","","3978","[""SV_PolicingMSA/GA_2654/IMG_5_2654.jpg"",""SV_PolicingMSA/GA_2654/IMG_8_2654.jpg"",""SV_PolicingMSA/GA_2654/IMG_6_2654.jpg"",""SV_PolicingMSA/GA_2654/IMG_1_2654.jpg"",""SV_PolicingMSA/GA_2654/IMG_0_2654.jpg"",""SV_PolicingMSA/GA_2654/IMG_7_2654.jpg"",""SV_PolicingMSA/GA_2654/IMG_3_2654.jpg"",""SV_PolicingMSA/GA_2654/IMG_12_2654.jpg""]","4","","","","","","3","","4","[""./rc_img/cop_condGroup_12_CommunitySafety_autoscaled.png"",""./rc_img/cop_condGroup_12_SafeStreets_autoscaled.png""]","4","",""
"sliderTrial","html-slider-response","21","353477","0.0-21.0","","656776a7904ae00d6b91d1dd","6568aa02985948dd13f722f1","14","","","","","","","","","","","","15099","[""SV_PolicingMSA/GA_2654/IMG_5_2654.jpg"",""SV_PolicingMSA/GA_2654/IMG_8_2654.jpg"",""SV_PolicingMSA/GA_2654/IMG_6_2654.jpg"",""SV_PolicingMSA/GA_2654/IMG_1_2654.jpg"",""SV_PolicingMSA/GA_2654/IMG_0_2654.jpg"",""SV_PolicingMSA/GA_2654/IMG_7_2654.jpg"",""SV_PolicingMSA/GA_2654/IMG_3_2654.jpg"",""SV_PolicingMSA/GA_2654/IMG_12_2654.jpg""]","4","","","","","","3","","4","[""./rc_img/cop_condGroup_9_CommunitySafety_autoscaled.png"",""./rc_img/cop_condGroup_9_SafeStreets_autoscaled.png""]","4","",""
"sliderTrial","html-slider-response","22","358829","0.0-22.0","","656776a7904ae00d6b91d1dd","6568aa02985948dd13f722f1","14","","","","","","","","","","","","5346","[""SV_PolicingMSA/GA_2654/IMG_5_2654.jpg"",""SV_PolicingMSA/GA_2654/IMG_8_2654.jpg"",""SV_PolicingMSA/GA_2654/IMG_6_2654.jpg"",""SV_PolicingMSA/GA_2654/IMG_1_2654.jpg"",""SV_PolicingMSA/GA_2654/IMG_0_2654.jpg"",""SV_PolicingMSA/GA_2654/IMG_7_2654.jpg"",""SV_PolicingMSA/GA_2654/IMG_3_2654.jpg"",""SV_PolicingMSA/GA_2654/IMG_12_2654.jpg""]","4","","","","","","3","","4","[""./rc_img/cop_condGroup_3_CommunitySafety_autoscaled.png"",""./rc_img/cop_condGroup_3_SafeStreets_autoscaled.png""]","4","",""
"before_SVSlide_prompt","html-button-response","23","366894","0.0-23.0","","656776a7904ae00d6b91d1dd","6568aa02985948dd13f722f1","14","","","","","","","","","","","","8061","Click [Next] to see the next neighborhood!","0","","","","","","","","","","","",""
"street view slide show","image-button-response","24","367900","0.0-24.0","","656776a7904ae00d6b91d1dd","6568aa02985948dd13f722f1","14","","","","","","","","","","","","null","stimulus/SV_PolicingMSA/GA_2659/IMG_13_2659.jpg","null","","","","","","5","","","","","",""
"street view slide show","image-button-response","25","368904","0.0-25.0","","656776a7904ae00d6b91d1dd","6568aa02985948dd13f722f1","14","","","","","","","","","","","","null","stimulus/SV_PolicingMSA/GA_2659/IMG_1_2659.jpg","null","","","","","","5","","","","","",""
"street view slide show","image-button-response","26","369920","0.0-26.0","","656776a7904ae00d6b91d1dd","6568aa02985948dd13f722f1","14","","","","","","","","","","","","null","stimulus/SV_PolicingMSA/GA_2659/IMG_11_2659.jpg","null","","","","","","5","","","","","",""
"street view slide show","image-button-response","27","370927","0.0-27.0","","656776a7904ae00d6b91d1dd","6568aa02985948dd13f722f1","14","","","","","","","","","","","","null","stimulus/SV_PolicingMSA/GA_2659/IMG_5_2659.jpg","null","","","","","","5","","","","","",""
"street view slide show","image-button-response","28","371942","0.0-28.0","","656776a7904ae00d6b91d1dd","6568aa02985948dd13f722f1","14","","","","","","","","","","","","null","stimulus/SV_PolicingMSA/GA_2659/IMG_2_2659.jpg","null","","","","","","5","","","","","",""
"street view slide show","image-button-response","29","372964","0.0-29.0","","656776a7904ae00d6b91d1dd","6568aa02985948dd13f722f1","14","","","","","","","","","","","","null","stimulus/SV_PolicingMSA/GA_2659/IMG_14_2659.jpg","null","","","","","","5","","","","","",""
"street view slide show","image-button-response","30","373983","0.0-30.0","","656776a7904ae00d6b91d1dd","6568aa02985948dd13f722f1","14","","","","","","","","","","","","null","stimulus/SV_PolicingMSA/GA_2659/IMG_7_2659.jpg","null","","","","","","5","","","","","",""
"street view slide show","image-button-response","31","375012","0.0-31.0","","656776a7904ae00d6b91d1dd","6568aa02985948dd13f722f1","14","","","","","","","","","","","","null","stimulus/SV_PolicingMSA/GA_2659/IMG_8_2659.jpg","null","","","","","","5","","","","","",""
"dot matrix survey1","survey","32","401940","0.0-32.0","","656776a7904ae00d6b91d1dd","6568aa02985948dd13f722f1","14","","","","","","","","","","","","26888","","{""P0_Q0"":null,""P0_Q1"":{""wealthy"":3,""safe"":3,""walkable"":2,""traditional"":2,""diverse"":2}}","","","","","","5","[]","","","","",""
"dot matrix survey2","survey","33","424911","0.0-33.0","","656776a7904ae00d6b91d1dd","6568aa02985948dd13f722f1","14","","","","","","","","","","","","22927","","{""P0_Q0"":null,""P0_Q1"":{""violence"":0,""crime"":0,""drug"":1,""schools"":2,""opportunities"":2}}","","","","","","5","[]","","","","",""
"dot matrix survey3","survey","34","450870","0.0-34.0","","656776a7904ae00d6b91d1dd","6568aa02985948dd13f722f1","14","","","","","","","","","","","","25931","","{""P0_Q0"":null,""P0_Q1"":{""movein"":3,""moveout"":1,""shopping"":3,""park"":2,""school"":2}}","","","","","","5","[]","","","","",""
"sliderTrial","html-slider-response","35","459693","0.0-35.0","","656776a7904ae00d6b91d1dd","6568aa02985948dd13f722f1","14","","","","","","","","","","","","8817","[""SV_PolicingMSA/GA_2659/IMG_13_2659.jpg"",""SV_PolicingMSA/GA_2659/IMG_1_2659.jpg"",""SV_PolicingMSA/GA_2659/IMG_11_2659.jpg"",""SV_PolicingMSA/GA_2659/IMG_5_2659.jpg"",""SV_PolicingMSA/GA_2659/IMG_2_2659.jpg"",""SV_PolicingMSA/GA_2659/IMG_14_2659.jpg"",""SV_PolicingMSA/GA_2659/IMG_7_2659.jpg"",""SV_PolicingMSA/GA_2659/IMG_8_2659.jpg""]","4","","","","","","5","","4","[""./rc_img/cop_condGroup_13_CommunitySafety_autoscaled.png"",""./rc_img/cop_condGroup_13_SafeStreets_autoscaled.png""]","4","",""
"sliderTrial","html-slider-response","36","463245","0.0-36.0","","656776a7904ae00d6b91d1dd","6568aa02985948dd13f722f1","14","","","","","","","","","","","","3546","[""SV_PolicingMSA/GA_2659/IMG_13_2659.jpg"",""SV_PolicingMSA/GA_2659/IMG_1_2659.jpg"",""SV_PolicingMSA/GA_2659/IMG_11_2659.jpg"",""SV_PolicingMSA/GA_2659/IMG_5_2659.jpg"",""SV_PolicingMSA/GA_2659/IMG_2_2659.jpg"",""SV_PolicingMSA/GA_2659/IMG_14_2659.jpg"",""SV_PolicingMSA/GA_2659/IMG_7_2659.jpg"",""SV_PolicingMSA/GA_2659/IMG_8_2659.jpg""]","4","","","","","","5","","4","[""./rc_img/cop_condGroup_11_CommunitySafety_autoscaled.png"",""./rc_img/cop_condGroup_11_SafeStreets_autoscaled.png""]","4","",""
"sliderTrial","html-slider-response","37","468446","0.0-37.0","","656776a7904ae00d6b91d1dd","6568aa02985948dd13f722f1","14","","","","","","","","","","","","5194","[""SV_PolicingMSA/GA_2659/IMG_13_2659.jpg"",""SV_PolicingMSA/GA_2659/IMG_1_2659.jpg"",""SV_PolicingMSA/GA_2659/IMG_11_2659.jpg"",""SV_PolicingMSA/GA_2659/IMG_5_2659.jpg"",""SV_PolicingMSA/GA_2659/IMG_2_2659.jpg"",""SV_PolicingMSA/GA_2659/IMG_14_2659.jpg"",""SV_PolicingMSA/GA_2659/IMG_7_2659.jpg"",""SV_PolicingMSA/GA_2659/IMG_8_2659.jpg""]","4","","","","","","5","","4","[""./rc_img/cop_condGroup_18_SafeStreets_autoscaled.png"",""./rc_img/cop_condGroup_18_CommunitySafety_autoscaled.png""]","4","",""
"sliderTrial","html-slider-response","38","471926","0.0-38.0","","656776a7904ae00d6b91d1dd","6568aa02985948dd13f722f1","14","","","","","","","","","","","","3474","[""SV_PolicingMSA/GA_2659/IMG_13_2659.jpg"",""SV_PolicingMSA/GA_2659/IMG_1_2659.jpg"",""SV_PolicingMSA/GA_2659/IMG_11_2659.jpg"",""SV_PolicingMSA/GA_2659/IMG_5_2659.jpg"",""SV_PolicingMSA/GA_2659/IMG_2_2659.jpg"",""SV_PolicingMSA/GA_2659/IMG_14_2659.jpg"",""SV_PolicingMSA/GA_2659/IMG_7_2659.jpg"",""SV_PolicingMSA/GA_2659/IMG_8_2659.jpg""]","4","","","","","","5","","4","[""./rc_img/cop_condGroup_5_SafeStreets_autoscaled.png"",""./rc_img/cop_condGroup_5_CommunitySafety_autoscaled.png""]","4","",""
"sliderTrial","html-slider-response","39","476245","0.0-39.0","","656776a7904ae00d6b91d1dd","6568aa02985948dd13f722f1","14","","","","","","","","","","","","4314","[""SV_PolicingMSA/GA_2659/IMG_13_2659.jpg"",""SV_PolicingMSA/GA_2659/IMG_1_2659.jpg"",""SV_PolicingMSA/GA_2659/IMG_11_2659.jpg"",""SV_PolicingMSA/GA_2659/IMG_5_2659.jpg"",""SV_PolicingMSA/GA_2659/IMG_2_2659.jpg"",""SV_PolicingMSA/GA_2659/IMG_14_2659.jpg"",""SV_PolicingMSA/GA_2659/IMG_7_2659.jpg"",""SV_PolicingMSA/GA_2659/IMG_8_2659.jpg""]","4","","","","","","5","","4","[""./rc_img/cop_condGroup_16_SafeStreets_autoscaled.png"",""./rc_img/cop_condGroup_16_CommunitySafety_autoscaled.png""]","4","",""
"before_SVSlide_prompt","html-button-response","40","478045","0.0-40.0","","656776a7904ae00d6b91d1dd","6568aa02985948dd13f722f1","14","","","","","","","","","","","","1797","Click [Next] to see the next neighborhood!","0","","","","","","","","","","","",""
"street view slide show","image-button-response","41","479062","0.0-41.0","","656776a7904ae00d6b91d1dd","6568aa02985948dd13f722f1","14","","","","","","","","","","","","null","stimulus/SV_PolicingMSA/GA_1789/IMG_3_1789.jpg","null","","","","","","1","","","","","",""
"street view slide show","image-button-response","42","480066","0.0-42.0","","656776a7904ae00d6b91d1dd","6568aa02985948dd13f722f1","14","","","","","","","","","","","","null","stimulus/SV_PolicingMSA/GA_1789/IMG_8_1789.jpg","null","","","","","","1","","","","","",""
"street view slide show","image-button-response","43","481078","0.0-43.0","","656776a7904ae00d6b91d1dd","6568aa02985948dd13f722f1","14","","","","","","","","","","","","null","stimulus/SV_PolicingMSA/GA_1789/IMG_14_1789.jpg","null","","","","","","1","","","","","",""
"street view slide show","image-button-response","44","482113","0.0-44.0","","656776a7904ae00d6b91d1dd","6568aa02985948dd13f722f1","14","","","","","","","","","","","","null","stimulus/SV_PolicingMSA/GA_1789/IMG_13_1789.jpg","null","","","","","","1","","","","","",""
"street view slide show","image-button-response","45","483120","0.0-45.0","","656776a7904ae00d6b91d1dd","6568aa02985948dd13f722f1","14","","","","","","","","","","","","null","stimulus/SV_PolicingMSA/GA_1789/IMG_11_1789.jpg","null","","","","","","1","","","","","",""
"street view slide show","image-button-response","46","484136","0.0-46.0","","656776a7904ae00d6b91d1dd","6568aa02985948dd13f722f1","14","","","","","","","","","","","","null","stimulus/SV_PolicingMSA/GA_1789/IMG_7_1789.jpg","null","","","","","","1","","","","","",""
"street view slide show","image-button-response","47","485168","0.0-47.0","","656776a7904ae00d6b91d1dd","6568aa02985948dd13f722f1","14","","","","","","","","","","","","null","stimulus/SV_PolicingMSA/GA_1789/IMG_9_1789.jpg","null","","","","","","1","","","","","",""
"street view slide show","image-button-response","48","486191","0.0-48.0","","656776a7904ae00d6b91d1dd","6568aa02985948dd13f722f1","14","","","","","","","","","","","","null","stimulus/SV_PolicingMSA/GA_1789/IMG_2_1789.jpg","null","","","","","","1","","","","","",""
"dot matrix survey1","survey","49","518486","0.0-49.0","","656776a7904ae00d6b91d1dd","6568aa02985948dd13f722f1","14","","","","","","","","","","","","32261","","{""P0_Q0"":null,""P0_Q1"":{""wealthy"":1,""safe"":1,""walkable"":2,""traditional"":2,""diverse"":1}}","","","","","","1","[]","","","","",""
"dot matrix survey2","survey","50","544768","0.0-50.0","","656776a7904ae00d6b91d1dd","6568aa02985948dd13f722f1","14","","","","","","","","","","","","26257","","{""P0_Q0"":null,""P0_Q1"":{""violence"":2,""crime"":1,""drug"":1,""schools"":2,""opportunities"":2}}","","","","","","1","[]","","","","",""
"dot matrix survey3","survey","51","581416","0.0-51.0","","656776a7904ae00d6b91d1dd","6568aa02985948dd13f722f1","14","","","","","","","","","","","","36620","","{""P0_Q0"":null,""P0_Q1"":{""movein"":2,""moveout"":2,""shopping"":2,""walk"":2,""park"":1,""school"":2}}","","","","","","1","[]","","","","",""
"sliderTrial_attention","html-slider-response","52","591456","0.0-52.0","","656776a7904ae00d6b91d1dd","6568aa02985948dd13f722f1","14","","","","","","","","","","","","null","[""SV_PolicingMSA/GA_1789/IMG_3_1789.jpg"",""SV_PolicingMSA/GA_1789/IMG_8_1789.jpg"",""SV_PolicingMSA/GA_1789/IMG_14_1789.jpg"",""SV_PolicingMSA/GA_1789/IMG_13_1789.jpg"",""SV_PolicingMSA/GA_1789/IMG_11_1789.jpg"",""SV_PolicingMSA/GA_1789/IMG_7_1789.jpg"",""SV_PolicingMSA/GA_1789/IMG_9_1789.jpg"",""SV_PolicingMSA/GA_1789/IMG_2_1789.jpg""]","null","","","","","","1","","4","[""./assets/img/attnchk.png"",""./assets/img/attnchk.png""]","","true",""
"sliderTrial","html-slider-response","53","612069","0.0-53.0","","656776a7904ae00d6b91d1dd","6568aa02985948dd13f722f1","14","","","","","","","","","","","","20606","[""SV_PolicingMSA/GA_1789/IMG_3_1789.jpg"",""SV_PolicingMSA/GA_1789/IMG_8_1789.jpg"",""SV_PolicingMSA/GA_1789/IMG_14_1789.jpg"",""SV_PolicingMSA/GA_1789/IMG_13_1789.jpg"",""SV_PolicingMSA/GA_1789/IMG_11_1789.jpg"",""SV_PolicingMSA/GA_1789/IMG_7_1789.jpg"",""SV_PolicingMSA/GA_1789/IMG_9_1789.jpg"",""SV_PolicingMSA/GA_1789/IMG_2_1789.jpg""]","4","","","","","","1","","4","[""./rc_img/cop_condGroup_17_SafeStreets_autoscaled.png"",""./rc_img/cop_condGroup_17_CommunitySafety_autoscaled.png""]","4","",""
"sliderTrial","html-slider-response","54","621581","0.0-54.0","","656776a7904ae00d6b91d1dd","6568aa02985948dd13f722f1","14","","","","","","","","","","","","9506","[""SV_PolicingMSA/GA_1789/IMG_3_1789.jpg"",""SV_PolicingMSA/GA_1789/IMG_8_1789.jpg"",""SV_PolicingMSA/GA_1789/IMG_14_1789.jpg"",""SV_PolicingMSA/GA_1789/IMG_13_1789.jpg"",""SV_PolicingMSA/GA_1789/IMG_11_1789.jpg"",""SV_PolicingMSA/GA_1789/IMG_7_1789.jpg"",""SV_PolicingMSA/GA_1789/IMG_9_1789.jpg"",""SV_PolicingMSA/GA_1789/IMG_2_1789.jpg""]","4","","","","","","1","","4","[""./rc_img/cop_condGroup_14_SafeStreets_autoscaled.png"",""./rc_img/cop_condGroup_14_CommunitySafety_autoscaled.png""]","4","",""
"sliderTrial","html-slider-response","55","625613","0.0-55.0","","656776a7904ae00d6b91d1dd","6568aa02985948dd13f722f1","14","","","","","","","","","","","","4026","[""SV_PolicingMSA/GA_1789/IMG_3_1789.jpg"",""SV_PolicingMSA/GA_1789/IMG_8_1789.jpg"",""SV_PolicingMSA/GA_1789/IMG_14_1789.jpg"",""SV_PolicingMSA/GA_1789/IMG_13_1789.jpg"",""SV_PolicingMSA/GA_1789/IMG_11_1789.jpg"",""SV_PolicingMSA/GA_1789/IMG_7_1789.jpg"",""SV_PolicingMSA/GA_1789/IMG_9_1789.jpg"",""SV_PolicingMSA/GA_1789/IMG_2_1789.jpg""]","4","","","","","","1","","4","[""./rc_img/cop_condGroup_12_CommunitySafety_autoscaled.png"",""./rc_img/cop_condGroup_12_SafeStreets_autoscaled.png""]","4","",""
"sliderTrial","html-slider-response","56","628918","0.0-56.0","","656776a7904ae00d6b91d1dd","6568aa02985948dd13f722f1","14","","","","","","","","","","","","3297","[""SV_PolicingMSA/GA_1789/IMG_3_1789.jpg"",""SV_PolicingMSA/GA_1789/IMG_8_1789.jpg"",""SV_PolicingMSA/GA_1789/IMG_14_1789.jpg"",""SV_PolicingMSA/GA_1789/IMG_13_1789.jpg"",""SV_PolicingMSA/GA_1789/IMG_11_1789.jpg"",""SV_PolicingMSA/GA_1789/IMG_7_1789.jpg"",""SV_PolicingMSA/GA_1789/IMG_9_1789.jpg"",""SV_PolicingMSA/GA_1789/IMG_2_1789.jpg""]","4","","","","","","1","","4","[""./rc_img/cop_condGroup_9_CommunitySafety_autoscaled.png"",""./rc_img/cop_condGroup_9_SafeStreets_autoscaled.png""]","4","",""
"sliderTrial","html-slider-response","57","631885","0.0-57.0","","656776a7904ae00d6b91d1dd","6568aa02985948dd13f722f1","14","","","","","","","","","","","","2962","[""SV_PolicingMSA/GA_1789/IMG_3_1789.jpg"",""SV_PolicingMSA/GA_1789/IMG_8_1789.jpg"",""SV_PolicingMSA/GA_1789/IMG_14_1789.jpg"",""SV_PolicingMSA/GA_1789/IMG_13_1789.jpg"",""SV_PolicingMSA/GA_1789/IMG_11_1789.jpg"",""SV_PolicingMSA/GA_1789/IMG_7_1789.jpg"",""SV_PolicingMSA/GA_1789/IMG_9_1789.jpg"",""SV_PolicingMSA/GA_1789/IMG_2_1789.jpg""]","4","","","","","","1","","4","[""./rc_img/cop_condGroup_3_CommunitySafety_autoscaled.png"",""./rc_img/cop_condGroup_3_SafeStreets_autoscaled.png""]","4","",""
"before_SVSlide_prompt","html-button-response","58","638245","0.0-58.0","","656776a7904ae00d6b91d1dd","6568aa02985948dd13f722f1","14","","","","","","","","","","","","6357","Click [Next] to see the next neighborhood!","0","","","","","","","","","","","",""
"street view slide show","image-button-response","59","639249","0.0-59.0","","656776a7904ae00d6b91d1dd","6568aa02985948dd13f722f1","14","","","","","","","","","","","","null","stimulus/SV_PolicingMSA/GA_1094/IMG_3_1094.jpg","null","","","","","","2","","","","","",""
"street view slide show","image-button-response","60","640264","0.0-60.0","","656776a7904ae00d6b91d1dd","6568aa02985948dd13f722f1","14","","","","","","","","","","","","null","stimulus/SV_PolicingMSA/GA_1094/IMG_11_1094.jpg","null","","","","","","2","","","","","",""
"street view slide show","image-button-response","61","641277","0.0-61.0","","656776a7904ae00d6b91d1dd","6568aa02985948dd13f722f1","14","","","","","","","","","","","","null","stimulus/SV_PolicingMSA/GA_1094/IMG_4_1094.jpg","null","","","","","","2","","","","","",""
"street view slide show","image-button-response","62","642292","0.0-62.0","","656776a7904ae00d6b91d1dd","6568aa02985948dd13f722f1","14","","","","","","","","","","","","null","stimulus/SV_PolicingMSA/GA_1094/IMG_9_1094.jpg","null","","","","","","2","","","","","",""
"street view slide show","image-button-response","63","643322","0.0-63.0","","656776a7904ae00d6b91d1dd","6568aa02985948dd13f722f1","14","","","","","","","","","","","","null","stimulus/SV_PolicingMSA/GA_1094/IMG_12_1094.jpg","null","","","","","","2","","","","","",""
"street view slide show","image-button-response","64","644350","0.0-64.0","","656776a7904ae00d6b91d1dd","6568aa02985948dd13f722f1","14","","","","","","","","","","","","null","stimulus/SV_PolicingMSA/GA_1094/IMG_8_1094.jpg","null","","","","","","2","","","","","",""
"street view slide show","image-button-response","65","645363","0.0-65.0","","656776a7904ae00d6b91d1dd","6568aa02985948dd13f722f1","14","","","","","","","","","","","","null","stimulus/SV_PolicingMSA/GA_1094/IMG_13_1094.jpg","null","","","","","","2","","","","","",""
"street view slide show","image-button-response","66","646394","0.0-66.0","","656776a7904ae00d6b91d1dd","6568aa02985948dd13f722f1","14","","","","","","","","","","","","null","stimulus/SV_PolicingMSA/GA_1094/IMG_7_1094.jpg","null","","","","","","2","","","","","",""
"dot matrix survey1","survey","67","666165","0.0-67.0","","656776a7904ae00d6b91d1dd","6568aa02985948dd13f722f1","14","","","","","","","","","","","","19737","","{""P0_Q0"":null,""P0_Q1"":{""wealthy"":2,""safe"":2,""walkable"":3,""traditional"":3,""diverse"":3}}","","","","","","2","[]","","","","",""
"dot matrix survey2","survey","68","683472","0.0-68.0","","656776a7904ae00d6b91d1dd","6568aa02985948dd13f722f1","14","","","","","","","","","","","","17283","","{""P0_Q0"":null,""P0_Q1"":{""violence"":1,""crime"":1,""drug"":1,""schools"":2,""opportunities"":2}}","","","","","","2","[]","","","","",""
"dot matrix survey3","survey","69","713321","0.0-69.0","","656776a7904ae00d6b91d1dd","6568aa02985948dd13f722f1","14","","","","","","","","","","","","29826","","{""P0_Q0"":null,""P0_Q1"":{""movein"":2,""moveout"":1,""shopping"":3,""walk"":3,""park"":3,""school"":2}}","","","","","","2","[]","","","","",""
"sliderTrial","html-slider-response","70","723717","0.0-70.0","","656776a7904ae00d6b91d1dd","6568aa02985948dd13f722f1","14","","","","","","","","","","","","10390","[""SV_PolicingMSA/GA_1094/IMG_3_1094.jpg"",""SV_PolicingMSA/GA_1094/IMG_11_1094.jpg"",""SV_PolicingMSA/GA_1094/IMG_4_1094.jpg"",""SV_PolicingMSA/GA_1094/IMG_9_1094.jpg"",""SV_PolicingMSA/GA_1094/IMG_12_1094.jpg"",""SV_PolicingMSA/GA_1094/IMG_8_1094.jpg"",""SV_PolicingMSA/GA_1094/IMG_13_1094.jpg"",""SV_PolicingMSA/GA_1094/IMG_7_1094.jpg""]","4","","","","","","2","","4","[""./rc_img/cop_condGroup_7_SafeStreets_autoscaled.png"",""./rc_img/cop_condGroup_7_CommunitySafety_autoscaled.png""]","4","",""
"sliderTrial","html-slider-response","71","728813","0.0-71.0","","656776a7904ae00d6b91d1dd","6568aa02985948dd13f722f1","14","","","","","","","","","","","","5090","[""SV_PolicingMSA/GA_1094/IMG_3_1094.jpg"",""SV_PolicingMSA/GA_1094/IMG_11_1094.jpg"",""SV_PolicingMSA/GA_1094/IMG_4_1094.jpg"",""SV_PolicingMSA/GA_1094/IMG_9_1094.jpg"",""SV_PolicingMSA/GA_1094/IMG_12_1094.jpg"",""SV_PolicingMSA/GA_1094/IMG_8_1094.jpg"",""SV_PolicingMSA/GA_1094/IMG_13_1094.jpg"",""SV_PolicingMSA/GA_1094/IMG_7_1094.jpg""]","4","","","","","","2","","4","[""./rc_img/cop_condGroup_15_CommunitySafety_autoscaled.png"",""./rc_img/cop_condGroup_15_SafeStreets_autoscaled.png""]","4","",""
"sliderTrial","html-slider-response","72","731959","0.0-72.0","","656776a7904ae00d6b91d1dd","6568aa02985948dd13f722f1","14","","","","","","","","","","","","3140","[""SV_PolicingMSA/GA_1094/IMG_3_1094.jpg"",""SV_PolicingMSA/GA_1094/IMG_11_1094.jpg"",""SV_PolicingMSA/GA_1094/IMG_4_1094.jpg"",""SV_PolicingMSA/GA_1094/IMG_9_1094.jpg"",""SV_PolicingMSA/GA_1094/IMG_12_1094.jpg"",""SV_PolicingMSA/GA_1094/IMG_8_1094.jpg"",""SV_PolicingMSA/GA_1094/IMG_13_1094.jpg"",""SV_PolicingMSA/GA_1094/IMG_7_1094.jpg""]","4","","","","","","2","","4","[""./rc_img/cop_condGroup_1_SafeStreets_autoscaled.png"",""./rc_img/cop_condGroup_1_CommunitySafety_autoscaled.png""]","4","",""
"sliderTrial","html-slider-response","73","739853","0.0-73.0","","656776a7904ae00d6b91d1dd","6568aa02985948dd13f722f1","14","","","","","","","","","","","","7889","[""SV_PolicingMSA/GA_1094/IMG_3_1094.jpg"",""SV_PolicingMSA/GA_1094/IMG_11_1094.jpg"",""SV_PolicingMSA/GA_1094/IMG_4_1094.jpg"",""SV_PolicingMSA/GA_1094/IMG_9_1094.jpg"",""SV_PolicingMSA/GA_1094/IMG_12_1094.jpg"",""SV_PolicingMSA/GA_1094/IMG_8_1094.jpg"",""SV_PolicingMSA/GA_1094/IMG_13_1094.jpg"",""SV_PolicingMSA/GA_1094/IMG_7_1094.jpg""]","4","","","","","","2","","4","[""./rc_img/cop_condGroup_19_CommunitySafety_autoscaled.png"",""./rc_img/cop_condGroup_19_SafeStreets_autoscaled.png""]","4","",""
"sliderTrial","html-slider-response","74","742709","0.0-74.0","","656776a7904ae00d6b91d1dd","6568aa02985948dd13f722f1","14","","","","","","","","","","","","2850","[""SV_PolicingMSA/GA_1094/IMG_3_1094.jpg"",""SV_PolicingMSA/GA_1094/IMG_11_1094.jpg"",""SV_PolicingMSA/GA_1094/IMG_4_1094.jpg"",""SV_PolicingMSA/GA_1094/IMG_9_1094.jpg"",""SV_PolicingMSA/GA_1094/IMG_12_1094.jpg"",""SV_PolicingMSA/GA_1094/IMG_8_1094.jpg"",""SV_PolicingMSA/GA_1094/IMG_13_1094.jpg"",""SV_PolicingMSA/GA_1094/IMG_7_1094.jpg""]","4","","","","","","2","","4","[""./rc_img/cop_condGroup_2_SafeStreets_autoscaled.png"",""./rc_img/cop_condGroup_2_CommunitySafety_autoscaled.png""]","4","",""
"half-way","html-button-response","75","757797","0.0-75.0","","656776a7904ae00d6b91d1dd","6568aa02985948dd13f722f1","14","","","","","","","","","","","","15084","
    <h3>You are now half way through the study.</h3>
    <p>Please take a quick, 15-second break before you continue.</p>
    <img src='assets/img/countdown-15.gif'>
    <p>The study will automatically advance forward after the countdown is complete. <br> However, you may click ""Next"" to advance forward now if you wish.</p>
    ","0","","","","","","","","","","","",""
"before_SVSlide_prompt","html-button-response","76","759525","0.0-76.0","","656776a7904ae00d6b91d1dd","6568aa02985948dd13f722f1","14","","","","","","","","","","","","1724","Click [Next] to see the next neighborhood!","0","","","","","","","","","","","",""
"street view slide show","image-button-response","77","760530","0.0-77.0","","656776a7904ae00d6b91d1dd","6568aa02985948dd13f722f1","14","","","","","","","","","","","","null","stimulus/SV_PolicingMSA/GA_1400/IMG_4_1400.jpg","null","","","","","","3","","","","","",""
"street view slide show","image-button-response","78","761539","0.0-78.0","","656776a7904ae00d6b91d1dd","6568aa02985948dd13f722f1","14","","","","","","","","","","","","null","stimulus/SV_PolicingMSA/GA_1400/IMG_2_1400.jpg","null","","","","","","3","","","","","",""
"street view slide show","image-button-response","79","762549","0.0-79.0","","656776a7904ae00d6b91d1dd","6568aa02985948dd13f722f1","14","","","","","","","","","","","","null","stimulus/SV_PolicingMSA/GA_1400/IMG_0_1400.jpg","null","","","","","","3","","","","","",""
"street view slide show","image-button-response","80","763565","0.0-80.0","","656776a7904ae00d6b91d1dd","6568aa02985948dd13f722f1","14","","","","","","","","","","","","null","stimulus/SV_PolicingMSA/GA_1400/IMG_3_1400.jpg","null","","","","","","3","","","","","",""
"street view slide show","image-button-response","81","764591","0.0-81.0","","656776a7904ae00d6b91d1dd","6568aa02985948dd13f722f1","14","","","","","","","","","","","","null","stimulus/SV_PolicingMSA/GA_1400/IMG_9_1400.jpg","null","","","","","","3","","","","","",""
"street view slide show","image-button-response","82","765601","0.0-82.0","","656776a7904ae00d6b91d1dd","6568aa02985948dd13f722f1","14","","","","","","","","","","","","null","stimulus/SV_PolicingMSA/GA_1400/IMG_8_1400.jpg","null","","","","","","3","","","","","",""
"street view slide show","image-button-response","83","766630","0.0-83.0","","656776a7904ae00d6b91d1dd","6568aa02985948dd13f722f1","14","","","","","","","","","","","","null","stimulus/SV_PolicingMSA/GA_1400/IMG_1_1400.jpg","null","","","","","","3","","","","","",""
"street view slide show","image-button-response","84","767654","0.0-84.0","","656776a7904ae00d6b91d1dd","6568aa02985948dd13f722f1","14","","","","","","","","","","","","null","stimulus/SV_PolicingMSA/GA_1400/IMG_12_1400.jpg","null","","","","","","3","","","","","",""
"dot matrix survey1","survey","85","808231","0.0-85.0","","656776a7904ae00d6b91d1dd","6568aa02985948dd13f722f1","14","","","","","","","","","","","","40545","","{""P0_Q0"":null,""P0_Q1"":{""wealthy"":1,""safe"":2,""walkable"":2,""traditional"":2,""diverse"":2}}","","","","","","3","[]","","","","",""
"dot matrix survey2","survey","86","836167","0.0-86.0","","656776a7904ae00d6b91d1dd","6568aa02985948dd13f722f1","14","","","","","","","","","","","","27915","","{""P0_Q0"":null,""P0_Q1"":{""violence"":2,""crime"":2,""drug"":1,""schools"":2,""opportunities"":1}}","","","","","","3","[]","","","","",""
"dot matrix survey3","survey","87","873791","0.0-87.0","","656776a7904ae00d6b91d1dd","6568aa02985948dd13f722f1","14","","","","","","","","","","","","37598","","{""P0_Q0"":null,""P0_Q1"":{""movein"":1,""moveout"":2,""shopping"":1,""walk"":2,""park"":2,""school"":1}}","","","","","","3","[]","","","","",""
"sliderTrial","html-slider-response","88","881813","0.0-88.0","","656776a7904ae00d6b91d1dd","6568aa02985948dd13f722f1","14","","","","","","","","","","","","8015","[""SV_PolicingMSA/GA_1400/IMG_4_1400.jpg"",""SV_PolicingMSA/GA_1400/IMG_2_1400.jpg"",""SV_PolicingMSA/GA_1400/IMG_0_1400.jpg"",""SV_PolicingMSA/GA_1400/IMG_3_1400.jpg"",""SV_PolicingMSA/GA_1400/IMG_9_1400.jpg"",""SV_PolicingMSA/GA_1400/IMG_8_1400.jpg"",""SV_PolicingMSA/GA_1400/IMG_1_1400.jpg"",""SV_PolicingMSA/GA_1400/IMG_12_1400.jpg""]","4","","","","","","3","","4","[""./rc_img/cop_condGroup_13_CommunitySafety_autoscaled.png"",""./rc_img/cop_condGroup_13_SafeStreets_autoscaled.png""]","4","",""
"sliderTrial","html-slider-response","89","885061","0.0-89.0","","656776a7904ae00d6b91d1dd","6568aa02985948dd13f722f1","14","","","","","","","","","","","","3242","[""SV_PolicingMSA/GA_1400/IMG_4_1400.jpg"",""SV_PolicingMSA/GA_1400/IMG_2_1400.jpg"",""SV_PolicingMSA/GA_1400/IMG_0_1400.jpg"",""SV_PolicingMSA/GA_1400/IMG_3_1400.jpg"",""SV_PolicingMSA/GA_1400/IMG_9_1400.jpg"",""SV_PolicingMSA/GA_1400/IMG_8_1400.jpg"",""SV_PolicingMSA/GA_1400/IMG_1_1400.jpg"",""SV_PolicingMSA/GA_1400/IMG_12_1400.jpg""]","4","","","","","","3","","4","[""./rc_img/cop_condGroup_11_CommunitySafety_autoscaled.png"",""./rc_img/cop_condGroup_11_SafeStreets_autoscaled.png""]","4","",""
"sliderTrial","html-slider-response","90","893685","0.0-90.0","","656776a7904ae00d6b91d1dd","6568aa02985948dd13f722f1","14","","","","","","","","","","","","8618","[""SV_PolicingMSA/GA_1400/IMG_4_1400.jpg"",""SV_PolicingMSA/GA_1400/IMG_2_1400.jpg"",""SV_PolicingMSA/GA_1400/IMG_0_1400.jpg"",""SV_PolicingMSA/GA_1400/IMG_3_1400.jpg"",""SV_PolicingMSA/GA_1400/IMG_9_1400.jpg"",""SV_PolicingMSA/GA_1400/IMG_8_1400.jpg"",""SV_PolicingMSA/GA_1400/IMG_1_1400.jpg"",""SV_PolicingMSA/GA_1400/IMG_12_1400.jpg""]","4","","","","","","3","","4","[""./rc_img/cop_condGroup_18_SafeStreets_autoscaled.png"",""./rc_img/cop_condGroup_18_CommunitySafety_autoscaled.png""]","4","",""
"sliderTrial","html-slider-response","91","896573","0.0-91.0","","656776a7904ae00d6b91d1dd","6568aa02985948dd13f722f1","14","","","","","","","","","","","","2882","[""SV_PolicingMSA/GA_1400/IMG_4_1400.jpg"",""SV_PolicingMSA/GA_1400/IMG_2_1400.jpg"",""SV_PolicingMSA/GA_1400/IMG_0_1400.jpg"",""SV_PolicingMSA/GA_1400/IMG_3_1400.jpg"",""SV_PolicingMSA/GA_1400/IMG_9_1400.jpg"",""SV_PolicingMSA/GA_1400/IMG_8_1400.jpg"",""SV_PolicingMSA/GA_1400/IMG_1_1400.jpg"",""SV_PolicingMSA/GA_1400/IMG_12_1400.jpg""]","4","","","","","","3","","4","[""./rc_img/cop_condGroup_5_SafeStreets_autoscaled.png"",""./rc_img/cop_condGroup_5_CommunitySafety_autoscaled.png""]","4","",""
"sliderTrial","html-slider-response","92","899837","0.0-92.0","","656776a7904ae00d6b91d1dd","6568aa02985948dd13f722f1","14","","","","","","","","","","","","3258","[""SV_PolicingMSA/GA_1400/IMG_4_1400.jpg"",""SV_PolicingMSA/GA_1400/IMG_2_1400.jpg"",""SV_PolicingMSA/GA_1400/IMG_0_1400.jpg"",""SV_PolicingMSA/GA_1400/IMG_3_1400.jpg"",""SV_PolicingMSA/GA_1400/IMG_9_1400.jpg"",""SV_PolicingMSA/GA_1400/IMG_8_1400.jpg"",""SV_PolicingMSA/GA_1400/IMG_1_1400.jpg"",""SV_PolicingMSA/GA_1400/IMG_12_1400.jpg""]","4","","","","","","3","","4","[""./rc_img/cop_condGroup_16_SafeStreets_autoscaled.png"",""./rc_img/cop_condGroup_16_CommunitySafety_autoscaled.png""]","4","",""
"before_SVSlide_prompt","html-button-response","93","902125","0.0-93.0","","656776a7904ae00d6b91d1dd","6568aa02985948dd13f722f1","14","","","","","","","","","","","","2285","Click [Next] to see the next neighborhood!","0","","","","","","","","","","","",""
"street view slide show","image-button-response","94","903133","0.0-94.0","","656776a7904ae00d6b91d1dd","6568aa02985948dd13f722f1","14","","","","","","","","","","","","null","stimulus/SV_PolicingMSA/GA_2658/IMG_13_2658.jpg","null","","","","","","4","","","","","",""
"street view slide show","image-button-response","95","904145","0.0-95.0","","656776a7904ae00d6b91d1dd","6568aa02985948dd13f722f1","14","","","","","","","","","","","","null","stimulus/SV_PolicingMSA/GA_2658/IMG_1_2658.jpg","null","","","","","","4","","","","","",""
"street view slide show","image-button-response","96","905166","0.0-96.0","","656776a7904ae00d6b91d1dd","6568aa02985948dd13f722f1","14","","","","","","","","","","","","null","stimulus/SV_PolicingMSA/GA_2658/IMG_12_2658.jpg","null","","","","","","4","","","","","",""
"street view slide show","image-button-response","97","906181","0.0-97.0","","656776a7904ae00d6b91d1dd","6568aa02985948dd13f722f1","14","","","","","","","","","","","","null","stimulus/SV_PolicingMSA/GA_2658/IMG_5_2658.jpg","null","","","","","","4","","","","","",""
"street view slide show","image-button-response","98","907208","0.0-98.0","","656776a7904ae00d6b91d1dd","6568aa02985948dd13f722f1","14","","","","","","","","","","","","null","stimulus/SV_PolicingMSA/GA_2658/IMG_7_2658.jpg","null","","","","","","4","","","","","",""
"street view slide show","image-button-response","99","908224","0.0-99.0","","656776a7904ae00d6b91d1dd","6568aa02985948dd13f722f1","14","","","","","","","","","","","","null","stimulus/SV_PolicingMSA/GA_2658/IMG_0_2658.jpg","null","","","","","","4","","","","","",""
"street view slide show","image-button-response","100","909252","0.0-100.0","","656776a7904ae00d6b91d1dd","6568aa02985948dd13f722f1","14","","","","","","","","","","","","null","stimulus/SV_PolicingMSA/GA_2658/IMG_14_2658.jpg","null","","","","","","4","","","","","",""
"street view slide show","image-button-response","101","910271","0.0-101.0","","656776a7904ae00d6b91d1dd","6568aa02985948dd13f722f1","14","","","","","","","","","","","","null","stimulus/SV_PolicingMSA/GA_2658/IMG_3_2658.jpg","null","","","","","","4","","","","","",""
"dot matrix survey1","survey","102","932960","0.0-102.0","","656776a7904ae00d6b91d1dd","6568aa02985948dd13f722f1","14","","","","","","","","","","","","22663","","{""P0_Q0"":null,""P0_Q1"":{""wealthy"":3,""safe"":3,""walkable"":3,""traditional"":2,""diverse"":2}}","","","","","","4","[]","","","","",""
"dot matrix survey2","survey","103","957099","0.0-103.0","","656776a7904ae00d6b91d1dd","6568aa02985948dd13f722f1","14","","","","","","","","","","","","24117","","{""P0_Q0"":null,""P0_Q1"":{""violence"":2,""crime"":2,""drug"":2,""schools"":3,""opportunities"":3}}","","","","","","4","[]","","","","",""
"dot matrix survey3","survey","104","980471","0.0-104.0","","656776a7904ae00d6b91d1dd","6568aa02985948dd13f722f1","14","","","","","","","","","","","","23350","","{""P0_Q0"":null,""P0_Q1"":{""movein"":2,""moveout"":2,""shopping"":3,""walk"":2,""park"":3,""school"":3}}","","","","","","4","[]","","","","",""
"sliderTrial","html-slider-response","105","986645","0.0-105.0","","656776a7904ae00d6b91d1dd","6568aa02985948dd13f722f1","14","","","","","","","","","","","","6169","[""SV_PolicingMSA/GA_2658/IMG_13_2658.jpg"",""SV_PolicingMSA/GA_2658/IMG_1_2658.jpg"",""SV_PolicingMSA/GA_2658/IMG_12_2658.jpg"",""SV_PolicingMSA/GA_2658/IMG_5_2658.jpg"",""SV_PolicingMSA/GA_2658/IMG_7_2658.jpg"",""SV_PolicingMSA/GA_2658/IMG_0_2658.jpg"",""SV_PolicingMSA/GA_2658/IMG_14_2658.jpg"",""SV_PolicingMSA/GA_2658/IMG_3_2658.jpg""]","4","","","","","","4","","4","[""./rc_img/cop_condGroup_10_CommunitySafety_autoscaled.png"",""./rc_img/cop_condGroup_10_SafeStreets_autoscaled.png""]","4","",""
"sliderTrial","html-slider-response","106","991125","0.0-106.0","","656776a7904ae00d6b91d1dd","6568aa02985948dd13f722f1","14","","","","","","","","","","","","4474","[""SV_PolicingMSA/GA_2658/IMG_13_2658.jpg"",""SV_PolicingMSA/GA_2658/IMG_1_2658.jpg"",""SV_PolicingMSA/GA_2658/IMG_12_2658.jpg"",""SV_PolicingMSA/GA_2658/IMG_5_2658.jpg"",""SV_PolicingMSA/GA_2658/IMG_7_2658.jpg"",""SV_PolicingMSA/GA_2658/IMG_0_2658.jpg"",""SV_PolicingMSA/GA_2658/IMG_14_2658.jpg"",""SV_PolicingMSA/GA_2658/IMG_3_2658.jpg""]","4","","","","","","4","","4","[""./rc_img/cop_condGroup_8_SafeStreets_autoscaled.png"",""./rc_img/cop_condGroup_8_CommunitySafety_autoscaled.png""]","4","",""
"sliderTrial","html-slider-response","107","994101","0.0-107.0","","656776a7904ae00d6b91d1dd","6568aa02985948dd13f722f1","14","","","","","","","","","","","","2970","[""SV_PolicingMSA/GA_2658/IMG_13_2658.jpg"",""SV_PolicingMSA/GA_2658/IMG_1_2658.jpg"",""SV_PolicingMSA/GA_2658/IMG_12_2658.jpg"",""SV_PolicingMSA/GA_2658/IMG_5_2658.jpg"",""SV_PolicingMSA/GA_2658/IMG_7_2658.jpg"",""SV_PolicingMSA/GA_2658/IMG_0_2658.jpg"",""SV_PolicingMSA/GA_2658/IMG_14_2658.jpg"",""SV_PolicingMSA/GA_2658/IMG_3_2658.jpg""]","4","","","","","","4","","4","[""./rc_img/cop_condGroup_4_SafeStreets_autoscaled.png"",""./rc_img/cop_condGroup_4_CommunitySafety_autoscaled.png""]","4","",""
"sliderTrial","html-slider-response","108","1004613","0.0-108.0","","656776a7904ae00d6b91d1dd","6568aa02985948dd13f722f1","14","","","","","","","","","","","","10507","[""SV_PolicingMSA/GA_2658/IMG_13_2658.jpg"",""SV_PolicingMSA/GA_2658/IMG_1_2658.jpg"",""SV_PolicingMSA/GA_2658/IMG_12_2658.jpg"",""SV_PolicingMSA/GA_2658/IMG_5_2658.jpg"",""SV_PolicingMSA/GA_2658/IMG_7_2658.jpg"",""SV_PolicingMSA/GA_2658/IMG_0_2658.jpg"",""SV_PolicingMSA/GA_2658/IMG_14_2658.jpg"",""SV_PolicingMSA/GA_2658/IMG_3_2658.jpg""]","4","","","","","","4","","4","[""./rc_img/cop_condGroup_20_SafeStreets_autoscaled.png"",""./rc_img/cop_condGroup_20_CommunitySafety_autoscaled.png""]","4","",""
"sliderTrial","html-slider-response","109","1007437","0.0-109.0","","656776a7904ae00d6b91d1dd","6568aa02985948dd13f722f1","14","","","","","","","","","","","","2818","[""SV_PolicingMSA/GA_2658/IMG_13_2658.jpg"",""SV_PolicingMSA/GA_2658/IMG_1_2658.jpg"",""SV_PolicingMSA/GA_2658/IMG_12_2658.jpg"",""SV_PolicingMSA/GA_2658/IMG_5_2658.jpg"",""SV_PolicingMSA/GA_2658/IMG_7_2658.jpg"",""SV_PolicingMSA/GA_2658/IMG_0_2658.jpg"",""SV_PolicingMSA/GA_2658/IMG_14_2658.jpg"",""SV_PolicingMSA/GA_2658/IMG_3_2658.jpg""]","4","","","","","","4","","4","[""./rc_img/cop_condGroup_6_SafeStreets_autoscaled.png"",""./rc_img/cop_condGroup_6_CommunitySafety_autoscaled.png""]","4","",""
"before_SVSlide_prompt","html-button-response","110","1010838","0.0-110.0","","656776a7904ae00d6b91d1dd","6568aa02985948dd13f722f1","14","","","","","","","","","","","","3396","Click [Next] to see the next neighborhood!","0","","","","","","","","","","","",""
"street view slide show","image-button-response","111","1011842","0.0-111.0","","656776a7904ae00d6b91d1dd","6568aa02985948dd13f722f1","14","","","","","","","","","","","","null","stimulus/SV_PolicingMSA/GA_1756/IMG_10_1756.jpg","null","","","","","","0","","","","","",""
"street view slide show","image-button-response","112","1012860","0.0-112.0","","656776a7904ae00d6b91d1dd","6568aa02985948dd13f722f1","14","","","","","","","","","","","","null","stimulus/SV_PolicingMSA/GA_1756/IMG_13_1756.jpg","null","","","","","","0","","","","","",""
"street view slide show","image-button-response","113","1013863","0.0-113.0","","656776a7904ae00d6b91d1dd","6568aa02985948dd13f722f1","14","","","","","","","","","","","","null","stimulus/SV_PolicingMSA/GA_1756/IMG_3_1756.jpg","null","","","","","","0","","","","","",""
"street view slide show","image-button-response","114","1014872","0.0-114.0","","656776a7904ae00d6b91d1dd","6568aa02985948dd13f722f1","14","","","","","","","","","","","","null","stimulus/SV_PolicingMSA/GA_1756/IMG_2_1756.jpg","null","","","","","","0","","","","","",""
"street view slide show","image-button-response","115","1015895","0.0-115.0","","656776a7904ae00d6b91d1dd","6568aa02985948dd13f722f1","14","","","","","","","","","","","","null","stimulus/SV_PolicingMSA/GA_1756/IMG_14_1756.jpg","null","","","","","","0","","","","","",""
"street view slide show","image-button-response","116","1016916","0.0-116.0","","656776a7904ae00d6b91d1dd","6568aa02985948dd13f722f1","14","","","","","","","","","","","","null","stimulus/SV_PolicingMSA/GA_1756/IMG_7_1756.jpg","null","","","","","","0","","","","","",""
"street view slide show","image-button-response","117","1017929","0.0-117.0","","656776a7904ae00d6b91d1dd","6568aa02985948dd13f722f1","14","","","","","","","","","","","","null","stimulus/SV_PolicingMSA/GA_1756/IMG_1_1756.jpg","null","","","","","","0","","","","","",""
"street view slide show","image-button-response","118","1018946","0.0-118.0","","656776a7904ae00d6b91d1dd","6568aa02985948dd13f722f1","14","","","","","","","","","","","","null","stimulus/SV_PolicingMSA/GA_1756/IMG_4_1756.jpg","null","","","","","","0","","","","","",""
"dot matrix survey1","survey","119","1043744","0.0-119.0","","656776a7904ae00d6b91d1dd","6568aa02985948dd13f722f1","14","","","","","","","","","","","","24757","","{""P0_Q0"":null,""P0_Q1"":{""wealthy"":1,""safe"":2,""walkable"":2,""traditional"":2,""diverse"":3}}","","","","","","0","[]","","","","",""
"dot matrix survey2","survey","120","1075086","0.0-120.0","","656776a7904ae00d6b91d1dd","6568aa02985948dd13f722f1","14","","","","","","","","","","","","31321","","{""P0_Q0"":null,""P0_Q1"":{""violence"":2,""crime"":2,""drug"":2,""schools"":1,""opportunities"":2}}","","","","","","0","[]","","","","",""
"dot matrix survey3","survey","121","1104056","0.0-121.0","","656776a7904ae00d6b91d1dd","6568aa02985948dd13f722f1","14","","","","","","","","","","","","28949","","{""P0_Q0"":null,""P0_Q1"":{""movein"":1,""moveout"":2,""shopping"":2,""walk"":2,""park"":1,""school"":1}}","","","","","","0","[]","","","","",""
"sliderTrial_attention","html-slider-response","122","1111621","0.0-122.0","","656776a7904ae00d6b91d1dd","6568aa02985948dd13f722f1","14","","","","","","","","","","","","7559","[""SV_PolicingMSA/GA_1756/IMG_10_1756.jpg"",""SV_PolicingMSA/GA_1756/IMG_13_1756.jpg"",""SV_PolicingMSA/GA_1756/IMG_3_1756.jpg"",""SV_PolicingMSA/GA_1756/IMG_2_1756.jpg"",""SV_PolicingMSA/GA_1756/IMG_14_1756.jpg"",""SV_PolicingMSA/GA_1756/IMG_7_1756.jpg"",""SV_PolicingMSA/GA_1756/IMG_1_1756.jpg"",""SV_PolicingMSA/GA_1756/IMG_4_1756.jpg""]","4","","","","","","0","","4","[""./assets/img/attnchk.png"",""./assets/img/attnchk.png""]","","",""
"sliderTrial","html-slider-response","123","1121965","0.0-123.0","","656776a7904ae00d6b91d1dd","6568aa02985948dd13f722f1","14","","","","","","","","","","","","10337","[""SV_PolicingMSA/GA_1756/IMG_10_1756.jpg"",""SV_PolicingMSA/GA_1756/IMG_13_1756.jpg"",""SV_PolicingMSA/GA_1756/IMG_3_1756.jpg"",""SV_PolicingMSA/GA_1756/IMG_2_1756.jpg"",""SV_PolicingMSA/GA_1756/IMG_14_1756.jpg"",""SV_PolicingMSA/GA_1756/IMG_7_1756.jpg"",""SV_PolicingMSA/GA_1756/IMG_1_1756.jpg"",""SV_PolicingMSA/GA_1756/IMG_4_1756.jpg""]","4","","","","","","0","","4","[""./rc_img/cop_condGroup_7_SafeStreets_autoscaled.png"",""./rc_img/cop_condGroup_7_CommunitySafety_autoscaled.png""]","4","",""
"sliderTrial","html-slider-response","124","1125869","0.0-124.0","","656776a7904ae00d6b91d1dd","6568aa02985948dd13f722f1","14","","","","","","","","","","","","3898","[""SV_PolicingMSA/GA_1756/IMG_10_1756.jpg"",""SV_PolicingMSA/GA_1756/IMG_13_1756.jpg"",""SV_PolicingMSA/GA_1756/IMG_3_1756.jpg"",""SV_PolicingMSA/GA_1756/IMG_2_1756.jpg"",""SV_PolicingMSA/GA_1756/IMG_14_1756.jpg"",""SV_PolicingMSA/GA_1756/IMG_7_1756.jpg"",""SV_PolicingMSA/GA_1756/IMG_1_1756.jpg"",""SV_PolicingMSA/GA_1756/IMG_4_1756.jpg""]","4","","","","","","0","","4","[""./rc_img/cop_condGroup_15_CommunitySafety_autoscaled.png"",""./rc_img/cop_condGroup_15_SafeStreets_autoscaled.png""]","4","",""
"sliderTrial","html-slider-response","125","1129181","0.0-125.0","","656776a7904ae00d6b91d1dd","6568aa02985948dd13f722f1","14","","","","","","","","","","","","3307","[""SV_PolicingMSA/GA_1756/IMG_10_1756.jpg"",""SV_PolicingMSA/GA_1756/IMG_13_1756.jpg"",""SV_PolicingMSA/GA_1756/IMG_3_1756.jpg"",""SV_PolicingMSA/GA_1756/IMG_2_1756.jpg"",""SV_PolicingMSA/GA_1756/IMG_14_1756.jpg"",""SV_PolicingMSA/GA_1756/IMG_7_1756.jpg"",""SV_PolicingMSA/GA_1756/IMG_1_1756.jpg"",""SV_PolicingMSA/GA_1756/IMG_4_1756.jpg""]","4","","","","","","0","","4","[""./rc_img/cop_condGroup_1_SafeStreets_autoscaled.png"",""./rc_img/cop_condGroup_1_CommunitySafety_autoscaled.png""]","4","",""
"sliderTrial","html-slider-response","126","1131213","0.0-126.0","","656776a7904ae00d6b91d1dd","6568aa02985948dd13f722f1","14","","","","","","","","","","","","2027","[""SV_PolicingMSA/GA_1756/IMG_10_1756.jpg"",""SV_PolicingMSA/GA_1756/IMG_13_1756.jpg"",""SV_PolicingMSA/GA_1756/IMG_3_1756.jpg"",""SV_PolicingMSA/GA_1756/IMG_2_1756.jpg"",""SV_PolicingMSA/GA_1756/IMG_14_1756.jpg"",""SV_PolicingMSA/GA_1756/IMG_7_1756.jpg"",""SV_PolicingMSA/GA_1756/IMG_1_1756.jpg"",""SV_PolicingMSA/GA_1756/IMG_4_1756.jpg""]","4","","","","","","0","","4","[""./rc_img/cop_condGroup_19_CommunitySafety_autoscaled.png"",""./rc_img/cop_condGroup_19_SafeStreets_autoscaled.png""]","4","",""
"sliderTrial","html-slider-response","127","1136901","0.0-127.0","","656776a7904ae00d6b91d1dd","6568aa02985948dd13f722f1","14","","","","","","","","","","","","5681","[""SV_PolicingMSA/GA_1756/IMG_10_1756.jpg"",""SV_PolicingMSA/GA_1756/IMG_13_1756.jpg"",""SV_PolicingMSA/GA_1756/IMG_3_1756.jpg"",""SV_PolicingMSA/GA_1756/IMG_2_1756.jpg"",""SV_PolicingMSA/GA_1756/IMG_14_1756.jpg"",""SV_PolicingMSA/GA_1756/IMG_7_1756.jpg"",""SV_PolicingMSA/GA_1756/IMG_1_1756.jpg"",""SV_PolicingMSA/GA_1756/IMG_4_1756.jpg""]","4","","","","","","0","","4","[""./rc_img/cop_condGroup_2_SafeStreets_autoscaled.png"",""./rc_img/cop_condGroup_2_CommunitySafety_autoscaled.png""]","4","",""
"before_SVSlide_prompt","html-button-response","128","1138437","0.0-128.0","","656776a7904ae00d6b91d1dd","6568aa02985948dd13f722f1","14","","","","","","","","","","","","1533","Click [Next] to see the next neighborhood!","0","","","","","","","","","","","",""
"street view slide show","image-button-response","129","1139449","0.0-129.0","","656776a7904ae00d6b91d1dd","6568aa02985948dd13f722f1","14","","","","","","","","","","","","null","stimulus/SV_PolicingMSA/GA_1832/IMG_10_1832.jpg","null","","","","","","2","","","","","",""
"street view slide show","image-button-response","130","1140461","0.0-130.0","","656776a7904ae00d6b91d1dd","6568aa02985948dd13f722f1","14","","","","","","","","","","","","null","stimulus/SV_PolicingMSA/GA_1832/IMG_9_1832.jpg","null","","","","","","2","","","","","",""
"street view slide show","image-button-response","131","1141477","0.0-131.0","","656776a7904ae00d6b91d1dd","6568aa02985948dd13f722f1","14","","","","","","","","","","","","null","stimulus/SV_PolicingMSA/GA_1832/IMG_1_1832.jpg","null","","","","","","2","","","","","",""
"street view slide show","image-button-response","132","1142498","0.0-132.0","","656776a7904ae00d6b91d1dd","6568aa02985948dd13f722f1","14","","","","","","","","","","","","null","stimulus/SV_PolicingMSA/GA_1832/IMG_8_1832.jpg","null","","","","","","2","","","","","",""
"street view slide show","image-button-response","133","1143513","0.0-133.0","","656776a7904ae00d6b91d1dd","6568aa02985948dd13f722f1","14","","","","","","","","","","","","null","stimulus/SV_PolicingMSA/GA_1832/IMG_11_1832.jpg","null","","","","","","2","","","","","",""
"street view slide show","image-button-response","134","1144541","0.0-134.0","","656776a7904ae00d6b91d1dd","6568aa02985948dd13f722f1","14","","","","","","","","","","","","null","stimulus/SV_PolicingMSA/GA_1832/IMG_2_1832.jpg","null","","","","","","2","","","","","",""
"street view slide show","image-button-response","135","1145558","0.0-135.0","","656776a7904ae00d6b91d1dd","6568aa02985948dd13f722f1","14","","","","","","","","","","","","null","stimulus/SV_PolicingMSA/GA_1832/IMG_12_1832.jpg","null","","","","","","2","","","","","",""
"street view slide show","image-button-response","136","1146573","0.0-136.0","","656776a7904ae00d6b91d1dd","6568aa02985948dd13f722f1","14","","","","","","","","","","","","null","stimulus/SV_PolicingMSA/GA_1832/IMG_7_1832.jpg","null","","","","","","2","","","","","",""
"dot matrix survey1","survey","137","1184271","0.0-137.0","","656776a7904ae00d6b91d1dd","6568aa02985948dd13f722f1","14","","","","","","","","","","","","37684","","{""P0_Q0"":null,""P0_Q1"":{""wealthy"":1,""safe"":2,""walkable"":1,""traditional"":2,""diverse"":2}}","","","","","","2","[]","","","","",""
"dot matrix survey2","survey","138","1214205","0.0-138.0","","656776a7904ae00d6b91d1dd","6568aa02985948dd13f722f1","14","","","","","","","","","","","","29918","","{""P0_Q0"":null,""P0_Q1"":{""violence"":2,""crime"":2,""drug"":2,""schools"":1,""opportunities"":2}}","","","","","","2","[]","","","","",""
"dot matrix survey3","survey","139","1247134","0.0-139.0","","656776a7904ae00d6b91d1dd","6568aa02985948dd13f722f1","14","","","","","","","","","","","","32910","","{""P0_Q0"":null,""P0_Q1"":{""movein"":1,""moveout"":2,""shopping"":2,""walk"":1,""park"":1,""school"":1}}","","","","","","2","[]","","","","",""
"sliderTrial","html-slider-response","140","1256709","0.0-140.0","","656776a7904ae00d6b91d1dd","6568aa02985948dd13f722f1","14","","","","","","","","","","","","9569","[""SV_PolicingMSA/GA_1832/IMG_10_1832.jpg"",""SV_PolicingMSA/GA_1832/IMG_9_1832.jpg"",""SV_PolicingMSA/GA_1832/IMG_1_1832.jpg"",""SV_PolicingMSA/GA_1832/IMG_8_1832.jpg"",""SV_PolicingMSA/GA_1832/IMG_11_1832.jpg"",""SV_PolicingMSA/GA_1832/IMG_2_1832.jpg"",""SV_PolicingMSA/GA_1832/IMG_12_1832.jpg"",""SV_PolicingMSA/GA_1832/IMG_7_1832.jpg""]","4","","","","","","2","","4","[""./rc_img/cop_condGroup_10_CommunitySafety_autoscaled.png"",""./rc_img/cop_condGroup_10_SafeStreets_autoscaled.png""]","4","",""
"sliderTrial","html-slider-response","141","1265149","0.0-141.0","","656776a7904ae00d6b91d1dd","6568aa02985948dd13f722f1","14","","","","","","","","","","","","8434","[""SV_PolicingMSA/GA_1832/IMG_10_1832.jpg"",""SV_PolicingMSA/GA_1832/IMG_9_1832.jpg"",""SV_PolicingMSA/GA_1832/IMG_1_1832.jpg"",""SV_PolicingMSA/GA_1832/IMG_8_1832.jpg"",""SV_PolicingMSA/GA_1832/IMG_11_1832.jpg"",""SV_PolicingMSA/GA_1832/IMG_2_1832.jpg"",""SV_PolicingMSA/GA_1832/IMG_12_1832.jpg"",""SV_PolicingMSA/GA_1832/IMG_7_1832.jpg""]","4","","","","","","2","","4","[""./rc_img/cop_condGroup_8_SafeStreets_autoscaled.png"",""./rc_img/cop_condGroup_8_CommunitySafety_autoscaled.png""]","4","",""
"sliderTrial","html-slider-response","142","1274156","0.0-142.0","","656776a7904ae00d6b91d1dd","6568aa02985948dd13f722f1","14","","","","","","","","","","","","9001","[""SV_PolicingMSA/GA_1832/IMG_10_1832.jpg"",""SV_PolicingMSA/GA_1832/IMG_9_1832.jpg"",""SV_PolicingMSA/GA_1832/IMG_1_1832.jpg"",""SV_PolicingMSA/GA_1832/IMG_8_1832.jpg"",""SV_PolicingMSA/GA_1832/IMG_11_1832.jpg"",""SV_PolicingMSA/GA_1832/IMG_2_1832.jpg"",""SV_PolicingMSA/GA_1832/IMG_12_1832.jpg"",""SV_PolicingMSA/GA_1832/IMG_7_1832.jpg""]","4","","","","","","2","","4","[""./rc_img/cop_condGroup_4_SafeStreets_autoscaled.png"",""./rc_img/cop_condGroup_4_CommunitySafety_autoscaled.png""]","4","",""
"sliderTrial","html-slider-response","143","1280941","0.0-143.0","","656776a7904ae00d6b91d1dd","6568aa02985948dd13f722f1","14","","","","","","","","","","","","6778","[""SV_PolicingMSA/GA_1832/IMG_10_1832.jpg"",""SV_PolicingMSA/GA_1832/IMG_9_1832.jpg"",""SV_PolicingMSA/GA_1832/IMG_1_1832.jpg"",""SV_PolicingMSA/GA_1832/IMG_8_1832.jpg"",""SV_PolicingMSA/GA_1832/IMG_11_1832.jpg"",""SV_PolicingMSA/GA_1832/IMG_2_1832.jpg"",""SV_PolicingMSA/GA_1832/IMG_12_1832.jpg"",""SV_PolicingMSA/GA_1832/IMG_7_1832.jpg""]","4","","","","","","2","","4","[""./rc_img/cop_condGroup_20_SafeStreets_autoscaled.png"",""./rc_img/cop_condGroup_20_CommunitySafety_autoscaled.png""]","4","",""
"sliderTrial","html-slider-response","144","1289653","0.0-144.0","","656776a7904ae00d6b91d1dd","6568aa02985948dd13f722f1","14","","","","","","","","","","","","8706","[""SV_PolicingMSA/GA_1832/IMG_10_1832.jpg"",""SV_PolicingMSA/GA_1832/IMG_9_1832.jpg"",""SV_PolicingMSA/GA_1832/IMG_1_1832.jpg"",""SV_PolicingMSA/GA_1832/IMG_8_1832.jpg"",""SV_PolicingMSA/GA_1832/IMG_11_1832.jpg"",""SV_PolicingMSA/GA_1832/IMG_2_1832.jpg"",""SV_PolicingMSA/GA_1832/IMG_12_1832.jpg"",""SV_PolicingMSA/GA_1832/IMG_7_1832.jpg""]","4","","","","","","2","","4","[""./rc_img/cop_condGroup_6_SafeStreets_autoscaled.png"",""./rc_img/cop_condGroup_6_CommunitySafety_autoscaled.png""]","4","",""
"demographics","survey-html-form","145","1682917","0.0-145.0","","656776a7904ae00d6b91d1dd","6568aa02985948dd13f722f1","14","","","","","","","","","","","","393253","","{""age"":""56"",""sex"":""female"",""gender"":""woman"",""gender-self-describe"":"""",""zipcode"":""301""}","","","","","","","","","","","",""
"demographics-list","survey","146","1724943","0.0-146.0","","656776a7904ae00d6b91d1dd","6568aa02985948dd13f722f1","14","","","","","","","","","","","","41908","","{""P0_Q0"":null,""race-ethnicity"":[""Black or of African ancestry""],""education"":""Some college"",""P1_Q0"":null,""ideology"":""Moderate"",""P2_Q0"":null,""num-moves"":3,""P3_Q0"":null,""social-ladder"":8}","","","","","","","[]","","","","",""
"end-survey","survey-text","147","1910285","0.0-147.0","","656776a7904ae00d6b91d1dd","6568aa02985948dd13f722f1","14","","","","","","","","","","","","185315","","{""Q0"":""This study was very interesting.  I know people that live in older houses that was passed down but the neighborhoods are so safe and the people are nice and kind. I also know people that live in brand new neighborhoods with not so nice people, so it makes you think, which one or one's is safer.  Thanks for allowing me to participate.""}","","","","","","","","","","","","1"
"end-survey","html-button-response","148","1916653","0.0-148.0","","656776a7904ae00d6b91d1dd","6568aa02985948dd13f722f1","14","","","","","","","","","","","","6363","
    You've reached the end of the survey. <br><br> 
    <b>Do not close or refresh this window.</b><br>
    On the next page, you will be automatically redirected to Prolific. <br><br>

    <div class=""alert alert-warning""><b>
    </div>
","0","","","","","","","","","","","",""
