"task","trial_type","trial_index","time_elapsed","internal_node_id","subject_id","study_id","session_id","section","width","height","webaudio","browser","browser_version","mobile","os","fullscreen","vsync_rate","webcam","microphone","rt","stimulus","response","success","timeout","failed_images","failed_audio","failed_video","block","accuracy","slider_start","choices","standardized_response","correct","num_attention_checks_correct"
"pavlovia-init","pavlovia","0","1060","0.0-0.0","","656776a7904ae00d6b91d1dd","6568ab2eca3c84188715f776","15","","","","","","","","","","","","","","","","","","","","","","","","","",""
"browser-check","browser-check","1","2063","0.0-1.0","","656776a7904ae00d6b91d1dd","6568ab2eca3c84188715f776","15","1920","973","true","chrome","119.0.0","false","Windows 10","true","60.33","true","true","","","","","","","","","","","","","","",""
"consent","html-button-response","2","10987","0.0-2.0","","656776a7904ae00d6b91d1dd","6568ab2eca3c84188715f776","15","","","","","","","","","","","","8922","
        <div style=""font-size: 80%; max-width:700px"">
            <h2>CONSENT FORM</h2>
        
            <div style=""text-align: left"">
            <h4>DESCRIPTION</h4>
            <p>
            You will complete a short task where you give your impressions of various neighborhoods and assign individuals to those spaces, and answer some questions about your thoughts and opinions.<br>
            The University of Michigan Institutional Review Board Health Sciences and Behavioral Sciences has determined that this study is exempt from IRB oversight.
            </p>

            <h4>TIME INVOLVEMENT</h4>
            <p>Your participation will take approximately 15 minutes. You will receive $3.15 upon completion of the study.</p>
        
            <h4>RISKS AND BENEFITS</h4>
            <p>
            The risks associated with this study are minimal. The benefits which may reasonably be expected to result from this study are none. We cannot and do not guarantee or promise that you will receive any benefits from this study.
            </p>
          
            <h4>SUBJECT'S RIGHTS</h4>
            <p>
            If you have read this form and have decided to participate in this project, please understand your participation is voluntary and you have the right to withdraw your consent or discontinue participation at any time without penalty or loss of benefits to which you are otherwise entitled. The alternative is not to participate. You have the right to refuse to answer particular questions. Your individual privacy will be maintained in all published and written data resulting from the study.
            </p>

            <h4>HUMAN SUBJECT APPROVAL</h4>
            <p>
            This study is exempt from ongoing IRB review.
            </p>

            <h4>CONTACT INFORMATION</h4>
            If you have any questions, concerns or complaints about this research, its procedures, risks and benefits, contact the Protocol Director, Nicholas Camp, npcamp@umich.edu, (443) 851-6783. <br>

            If you have questions about your rights as a research participant, or wish to obtain information, ask questions or discuss any concerns about this study with someone other than the researcher(s), please contact the following:<br><br>
            University of Michigan<br>
            Health Sciences and Behavioral Sciences Institutional Review Board (IRB-HSBS)<br>
            2800 Plymouth Road<br>
            Building 520, Room 1169Ann Arbor, MI 48109-2800<br>
            Telephone: 734-936-0933 or toll free (866) 936-0933<br>
            Fax: 734-936-1852<br>
            E-mail: irbhsbs@umich.edu<br><br>

            You can also contact the University of Michigan Compliance Hotline at 1-866-990-0111. You may also print this consent form to keep.
            <br><br>
            <div class=""alert alert-warning""><b>
            Do you consent to participate in this study? If you consent to participate in this study, please click “Accept and Continue”. If you select ""Decline and Exit"", you will be exited from the survey. <br>
            </b></div>
            </div>
        </div>
    ","1","","","","","","","","","","","",""
"","preload","3","12337","0.0-3.0","","656776a7904ae00d6b91d1dd","6568ab2eca3c84188715f776","15","","","","","","","","","","","","","","","true","false","[]","[]","[]","","","","","","",""
"instructions","html-button-response","4","30491","0.0-4.0","","656776a7904ae00d6b91d1dd","6568ab2eca3c84188715f776","15","","","","","","","","","","","","18153","
        <div class=""text-container"">
        <h1>Welcome to the study!</h1>
        
        <div class=""text-left"">
            <p>
                In this study, we are interested in what people can tell about spaces from Google Street View images. <br> Google Street View takes pictures of streets used for Google Earth and Google Maps. <br>You’ll see Google Street View images of different places and answer some questions about each one.<br>
            </p>
        </div>
        <img src = ""assets/img/example.png"" width = 500px, height = auto>
        <br>
    <br>
    ","0","","","","","","","","","","","",""
"instructions","html-button-response","5","32907","0.0-5.0","","656776a7904ae00d6b91d1dd","6568ab2eca3c84188715f776","15","","","","","","","","","","","","2415","
    <div class=""text-container"">
        <div class=""text-center"">
            <p>Please remember that your answers are completely anonymous.<br>Go with your gut response- there are no right or wrong answers!</p>
        </div>
    <br>
","0","","","","","","","","","","","",""
"before_SVSlide_prompt","html-button-response","6","34267","0.0-6.0","","656776a7904ae00d6b91d1dd","6568ab2eca3c84188715f776","15","","","","","","","","","","","","1359","Click [Next] to see the next neighborhood!","0","","","","","","","","","","","",""
"street view slide show","image-button-response","7","35280","0.0-7.0","","656776a7904ae00d6b91d1dd","6568ab2eca3c84188715f776","15","","","","","","","","","","","","null","stimulus/SV_PolicingMSA/MA_157/IMG_0_157.jpg","null","","","","","","3","","","","","",""
"street view slide show","image-button-response","8","36283","0.0-8.0","","656776a7904ae00d6b91d1dd","6568ab2eca3c84188715f776","15","","","","","","","","","","","","null","stimulus/SV_PolicingMSA/MA_157/IMG_3_157.jpg","null","","","","","","3","","","","","",""
"street view slide show","image-button-response","9","37291","0.0-9.0","","656776a7904ae00d6b91d1dd","6568ab2eca3c84188715f776","15","","","","","","","","","","","","null","stimulus/SV_PolicingMSA/MA_157/IMG_13_157.jpg","null","","","","","","3","","","","","",""
"street view slide show","image-button-response","10","38306","0.0-10.0","","656776a7904ae00d6b91d1dd","6568ab2eca3c84188715f776","15","","","","","","","","","","","","null","stimulus/SV_PolicingMSA/MA_157/IMG_4_157.jpg","null","","","","","","3","","","","","",""
"street view slide show","image-button-response","11","39315","0.0-11.0","","656776a7904ae00d6b91d1dd","6568ab2eca3c84188715f776","15","","","","","","","","","","","","null","stimulus/SV_PolicingMSA/MA_157/IMG_1_157.jpg","null","","","","","","3","","","","","",""
"street view slide show","image-button-response","12","40329","0.0-12.0","","656776a7904ae00d6b91d1dd","6568ab2eca3c84188715f776","15","","","","","","","","","","","","null","stimulus/SV_PolicingMSA/MA_157/IMG_2_157.jpg","null","","","","","","3","","","","","",""
"street view slide show","image-button-response","13","41332","0.0-13.0","","656776a7904ae00d6b91d1dd","6568ab2eca3c84188715f776","15","","","","","","","","","","","","null","stimulus/SV_PolicingMSA/MA_157/IMG_5_157.jpg","null","","","","","","3","","","","","",""
"street view slide show","image-button-response","14","42348","0.0-14.0","","656776a7904ae00d6b91d1dd","6568ab2eca3c84188715f776","15","","","","","","","","","","","","null","stimulus/SV_PolicingMSA/MA_157/IMG_7_157.jpg","null","","","","","","3","","","","","",""
"dot matrix survey1","survey","15","138016","0.0-15.0","","656776a7904ae00d6b91d1dd","6568ab2eca3c84188715f776","15","","","","","","","","","","","","95562","","{""P0_Q0"":null,""P0_Q1"":{""wealthy"":2,""safe"":3,""walkable"":4,""traditional"":3,""diverse"":2}}","","","","","","3","[]","","","","",""
"dot matrix survey2","survey","16","176220","0.0-16.0","","656776a7904ae00d6b91d1dd","6568ab2eca3c84188715f776","15","","","","","","","","","","","","38189","","{""P0_Q0"":null,""P0_Q1"":{""violence"":2,""crime"":2,""drug"":2,""schools"":1,""opportunities"":1}}","","","","","","3","[]","","","","",""
"dot matrix survey3","survey","17","208215","0.0-17.0","","656776a7904ae00d6b91d1dd","6568ab2eca3c84188715f776","15","","","","","","","","","","","","31982","","{""P0_Q0"":null,""P0_Q1"":{""movein"":2,""moveout"":1,""shopping"":1,""walk"":2,""park"":3,""school"":2}}","","","","","","3","[]","","","","",""
"sliderTrial","html-slider-response","18","237803","0.0-18.0","","656776a7904ae00d6b91d1dd","6568ab2eca3c84188715f776","15","","","","","","","","","","","","29586","[""SV_PolicingMSA/MA_157/IMG_0_157.jpg"",""SV_PolicingMSA/MA_157/IMG_3_157.jpg"",""SV_PolicingMSA/MA_157/IMG_13_157.jpg"",""SV_PolicingMSA/MA_157/IMG_4_157.jpg"",""SV_PolicingMSA/MA_157/IMG_1_157.jpg"",""SV_PolicingMSA/MA_157/IMG_2_157.jpg"",""SV_PolicingMSA/MA_157/IMG_5_157.jpg"",""SV_PolicingMSA/MA_157/IMG_7_157.jpg""]","4","","","","","","3","","4","[""./rc_img/cop_condGroup_3_SafeStreets_autoscaled.png"",""./rc_img/cop_condGroup_3_CommunitySafety_autoscaled.png""]","4","",""
"sliderTrial","html-slider-response","19","252619","0.0-19.0","","656776a7904ae00d6b91d1dd","6568ab2eca3c84188715f776","15","","","","","","","","","","","","14813","[""SV_PolicingMSA/MA_157/IMG_0_157.jpg"",""SV_PolicingMSA/MA_157/IMG_3_157.jpg"",""SV_PolicingMSA/MA_157/IMG_13_157.jpg"",""SV_PolicingMSA/MA_157/IMG_4_157.jpg"",""SV_PolicingMSA/MA_157/IMG_1_157.jpg"",""SV_PolicingMSA/MA_157/IMG_2_157.jpg"",""SV_PolicingMSA/MA_157/IMG_5_157.jpg"",""SV_PolicingMSA/MA_157/IMG_7_157.jpg""]","3","","","","","","3","","4","[""./rc_img/cop_condGroup_18_CommunitySafety_autoscaled.png"",""./rc_img/cop_condGroup_18_SafeStreets_autoscaled.png""]","3","",""
"sliderTrial","html-slider-response","20","266123","0.0-20.0","","656776a7904ae00d6b91d1dd","6568ab2eca3c84188715f776","15","","","","","","","","","","","","13502","[""SV_PolicingMSA/MA_157/IMG_0_157.jpg"",""SV_PolicingMSA/MA_157/IMG_3_157.jpg"",""SV_PolicingMSA/MA_157/IMG_13_157.jpg"",""SV_PolicingMSA/MA_157/IMG_4_157.jpg"",""SV_PolicingMSA/MA_157/IMG_1_157.jpg"",""SV_PolicingMSA/MA_157/IMG_2_157.jpg"",""SV_PolicingMSA/MA_157/IMG_5_157.jpg"",""SV_PolicingMSA/MA_157/IMG_7_157.jpg""]","3","","","","","","3","","4","[""./rc_img/cop_condGroup_14_CommunitySafety_autoscaled.png"",""./rc_img/cop_condGroup_14_SafeStreets_autoscaled.png""]","3","",""
"sliderTrial","html-slider-response","21","274643","0.0-21.0","","656776a7904ae00d6b91d1dd","6568ab2eca3c84188715f776","15","","","","","","","","","","","","8518","[""SV_PolicingMSA/MA_157/IMG_0_157.jpg"",""SV_PolicingMSA/MA_157/IMG_3_157.jpg"",""SV_PolicingMSA/MA_157/IMG_13_157.jpg"",""SV_PolicingMSA/MA_157/IMG_4_157.jpg"",""SV_PolicingMSA/MA_157/IMG_1_157.jpg"",""SV_PolicingMSA/MA_157/IMG_2_157.jpg"",""SV_PolicingMSA/MA_157/IMG_5_157.jpg"",""SV_PolicingMSA/MA_157/IMG_7_157.jpg""]","3","","","","","","3","","4","[""./rc_img/cop_condGroup_4_CommunitySafety_autoscaled.png"",""./rc_img/cop_condGroup_4_SafeStreets_autoscaled.png""]","3","",""
"sliderTrial","html-slider-response","22","283691","0.0-22.0","","656776a7904ae00d6b91d1dd","6568ab2eca3c84188715f776","15","","","","","","","","","","","","9046","[""SV_PolicingMSA/MA_157/IMG_0_157.jpg"",""SV_PolicingMSA/MA_157/IMG_3_157.jpg"",""SV_PolicingMSA/MA_157/IMG_13_157.jpg"",""SV_PolicingMSA/MA_157/IMG_4_157.jpg"",""SV_PolicingMSA/MA_157/IMG_1_157.jpg"",""SV_PolicingMSA/MA_157/IMG_2_157.jpg"",""SV_PolicingMSA/MA_157/IMG_5_157.jpg"",""SV_PolicingMSA/MA_157/IMG_7_157.jpg""]","4","","","","","","3","","4","[""./rc_img/cop_condGroup_7_CommunitySafety_autoscaled.png"",""./rc_img/cop_condGroup_7_SafeStreets_autoscaled.png""]","4","",""
"before_SVSlide_prompt","html-button-response","23","285403","0.0-23.0","","656776a7904ae00d6b91d1dd","6568ab2eca3c84188715f776","15","","","","","","","","","","","","1711","Click [Next] to see the next neighborhood!","0","","","","","","","","","","","",""
"street view slide show","image-button-response","24","286411","0.0-24.0","","656776a7904ae00d6b91d1dd","6568ab2eca3c84188715f776","15","","","","","","","","","","","","null","stimulus/SV_PolicingMSA/MA_659/IMG_12_659.jpg","null","","","","","","5","","","","","",""
"street view slide show","image-button-response","25","287420","0.0-25.0","","656776a7904ae00d6b91d1dd","6568ab2eca3c84188715f776","15","","","","","","","","","","","","null","stimulus/SV_PolicingMSA/MA_659/IMG_4_659.jpg","null","","","","","","5","","","","","",""
"street view slide show","image-button-response","26","288437","0.0-26.0","","656776a7904ae00d6b91d1dd","6568ab2eca3c84188715f776","15","","","","","","","","","","","","null","stimulus/SV_PolicingMSA/MA_659/IMG_11_659.jpg","null","","","","","","5","","","","","",""
"street view slide show","image-button-response","27","289454","0.0-27.0","","656776a7904ae00d6b91d1dd","6568ab2eca3c84188715f776","15","","","","","","","","","","","","null","stimulus/SV_PolicingMSA/MA_659/IMG_3_659.jpg","null","","","","","","5","","","","","",""
"street view slide show","image-button-response","28","290471","0.0-28.0","","656776a7904ae00d6b91d1dd","6568ab2eca3c84188715f776","15","","","","","","","","","","","","null","stimulus/SV_PolicingMSA/MA_659/IMG_14_659.jpg","null","","","","","","5","","","","","",""
"street view slide show","image-button-response","29","291487","0.0-29.0","","656776a7904ae00d6b91d1dd","6568ab2eca3c84188715f776","15","","","","","","","","","","","","null","stimulus/SV_PolicingMSA/MA_659/IMG_0_659.jpg","null","","","","","","5","","","","","",""
"street view slide show","image-button-response","30","292504","0.0-30.0","","656776a7904ae00d6b91d1dd","6568ab2eca3c84188715f776","15","","","","","","","","","","","","null","stimulus/SV_PolicingMSA/MA_659/IMG_1_659.jpg","null","","","","","","5","","","","","",""
"street view slide show","image-button-response","31","293521","0.0-31.0","","656776a7904ae00d6b91d1dd","6568ab2eca3c84188715f776","15","","","","","","","","","","","","null","stimulus/SV_PolicingMSA/MA_659/IMG_13_659.jpg","null","","","","","","5","","","","","",""
"dot matrix survey1","survey","32","370102","0.0-32.0","","656776a7904ae00d6b91d1dd","6568ab2eca3c84188715f776","15","","","","","","","","","","","","76559","","{""P0_Q0"":null,""P0_Q1"":{""wealthy"":1,""safe"":2,""walkable"":1,""traditional"":2,""diverse"":2}}","","","","","","5","[]","","","","",""
"dot matrix survey2","survey","33","425348","0.0-33.0","","656776a7904ae00d6b91d1dd","6568ab2eca3c84188715f776","15","","","","","","","","","","","","55233","","{""P0_Q0"":null,""P0_Q1"":{""drug"":2,""schools"":1,""crime"":2,""opportunities"":1,""violence"":2}}","","","","","","5","[]","","","","",""
"dot matrix survey3","survey","34","456238","0.0-34.0","","656776a7904ae00d6b91d1dd","6568ab2eca3c84188715f776","15","","","","","","","","","","","","30878","","{""P0_Q0"":null,""P0_Q1"":{""movein"":2,""moveout"":2,""shopping"":1,""walk"":1,""park"":1,""school"":1}}","","","","","","5","[]","","","","",""
"sliderTrial","html-slider-response","35","463715","0.0-35.0","","656776a7904ae00d6b91d1dd","6568ab2eca3c84188715f776","15","","","","","","","","","","","","7475","[""SV_PolicingMSA/MA_659/IMG_12_659.jpg"",""SV_PolicingMSA/MA_659/IMG_4_659.jpg"",""SV_PolicingMSA/MA_659/IMG_11_659.jpg"",""SV_PolicingMSA/MA_659/IMG_3_659.jpg"",""SV_PolicingMSA/MA_659/IMG_14_659.jpg"",""SV_PolicingMSA/MA_659/IMG_0_659.jpg"",""SV_PolicingMSA/MA_659/IMG_1_659.jpg"",""SV_PolicingMSA/MA_659/IMG_13_659.jpg""]","4","","","","","","5","","4","[""./rc_img/cop_condGroup_9_CommunitySafety_autoscaled.png"",""./rc_img/cop_condGroup_9_SafeStreets_autoscaled.png""]","4","",""
"sliderTrial","html-slider-response","36","476411","0.0-36.0","","656776a7904ae00d6b91d1dd","6568ab2eca3c84188715f776","15","","","","","","","","","","","","12694","[""SV_PolicingMSA/MA_659/IMG_12_659.jpg"",""SV_PolicingMSA/MA_659/IMG_4_659.jpg"",""SV_PolicingMSA/MA_659/IMG_11_659.jpg"",""SV_PolicingMSA/MA_659/IMG_3_659.jpg"",""SV_PolicingMSA/MA_659/IMG_14_659.jpg"",""SV_PolicingMSA/MA_659/IMG_0_659.jpg"",""SV_PolicingMSA/MA_659/IMG_1_659.jpg"",""SV_PolicingMSA/MA_659/IMG_13_659.jpg""]","4","","","","","","5","","4","[""./rc_img/cop_condGroup_15_SafeStreets_autoscaled.png"",""./rc_img/cop_condGroup_15_CommunitySafety_autoscaled.png""]","4","",""
"sliderTrial","html-slider-response","37","479939","0.0-37.0","","656776a7904ae00d6b91d1dd","6568ab2eca3c84188715f776","15","","","","","","","","","","","","3526","[""SV_PolicingMSA/MA_659/IMG_12_659.jpg"",""SV_PolicingMSA/MA_659/IMG_4_659.jpg"",""SV_PolicingMSA/MA_659/IMG_11_659.jpg"",""SV_PolicingMSA/MA_659/IMG_3_659.jpg"",""SV_PolicingMSA/MA_659/IMG_14_659.jpg"",""SV_PolicingMSA/MA_659/IMG_0_659.jpg"",""SV_PolicingMSA/MA_659/IMG_1_659.jpg"",""SV_PolicingMSA/MA_659/IMG_13_659.jpg""]","4","","","","","","5","","4","[""./rc_img/cop_condGroup_13_SafeStreets_autoscaled.png"",""./rc_img/cop_condGroup_13_CommunitySafety_autoscaled.png""]","4","",""
"sliderTrial","html-slider-response","38","484387","0.0-38.0","","656776a7904ae00d6b91d1dd","6568ab2eca3c84188715f776","15","","","","","","","","","","","","4446","[""SV_PolicingMSA/MA_659/IMG_12_659.jpg"",""SV_PolicingMSA/MA_659/IMG_4_659.jpg"",""SV_PolicingMSA/MA_659/IMG_11_659.jpg"",""SV_PolicingMSA/MA_659/IMG_3_659.jpg"",""SV_PolicingMSA/MA_659/IMG_14_659.jpg"",""SV_PolicingMSA/MA_659/IMG_0_659.jpg"",""SV_PolicingMSA/MA_659/IMG_1_659.jpg"",""SV_PolicingMSA/MA_659/IMG_13_659.jpg""]","4","","","","","","5","","4","[""./rc_img/cop_condGroup_5_CommunitySafety_autoscaled.png"",""./rc_img/cop_condGroup_5_SafeStreets_autoscaled.png""]","4","",""
"sliderTrial","html-slider-response","39","486067","0.0-39.0","","656776a7904ae00d6b91d1dd","6568ab2eca3c84188715f776","15","","","","","","","","","","","","1678","[""SV_PolicingMSA/MA_659/IMG_12_659.jpg"",""SV_PolicingMSA/MA_659/IMG_4_659.jpg"",""SV_PolicingMSA/MA_659/IMG_11_659.jpg"",""SV_PolicingMSA/MA_659/IMG_3_659.jpg"",""SV_PolicingMSA/MA_659/IMG_14_659.jpg"",""SV_PolicingMSA/MA_659/IMG_0_659.jpg"",""SV_PolicingMSA/MA_659/IMG_1_659.jpg"",""SV_PolicingMSA/MA_659/IMG_13_659.jpg""]","4","","","","","","5","","4","[""./rc_img/cop_condGroup_20_SafeStreets_autoscaled.png"",""./rc_img/cop_condGroup_20_CommunitySafety_autoscaled.png""]","4","",""
"before_SVSlide_prompt","html-button-response","40","487771","0.0-40.0","","656776a7904ae00d6b91d1dd","6568ab2eca3c84188715f776","15","","","","","","","","","","","","1703","Click [Next] to see the next neighborhood!","0","","","","","","","","","","","",""
"street view slide show","image-button-response","41","488773","0.0-41.0","","656776a7904ae00d6b91d1dd","6568ab2eca3c84188715f776","15","","","","","","","","","","","","null","stimulus/SV_PolicingMSA/MA_159/IMG_7_159.jpg","null","","","","","","4","","","","","",""
"street view slide show","image-button-response","42","489779","0.0-42.0","","656776a7904ae00d6b91d1dd","6568ab2eca3c84188715f776","15","","","","","","","","","","","","null","stimulus/SV_PolicingMSA/MA_159/IMG_14_159.jpg","null","","","","","","4","","","","","",""
"street view slide show","image-button-response","43","490781","0.0-43.0","","656776a7904ae00d6b91d1dd","6568ab2eca3c84188715f776","15","","","","","","","","","","","","null","stimulus/SV_PolicingMSA/MA_159/IMG_4_159.jpg","null","","","","","","4","","","","","",""
"street view slide show","image-button-response","44","491793","0.0-44.0","","656776a7904ae00d6b91d1dd","6568ab2eca3c84188715f776","15","","","","","","","","","","","","null","stimulus/SV_PolicingMSA/MA_159/IMG_11_159.jpg","null","","","","","","4","","","","","",""
"street view slide show","image-button-response","45","492810","0.0-45.0","","656776a7904ae00d6b91d1dd","6568ab2eca3c84188715f776","15","","","","","","","","","","","","null","stimulus/SV_PolicingMSA/MA_159/IMG_10_159.jpg","null","","","","","","4","","","","","",""
"street view slide show","image-button-response","46","493823","0.0-46.0","","656776a7904ae00d6b91d1dd","6568ab2eca3c84188715f776","15","","","","","","","","","","","","null","stimulus/SV_PolicingMSA/MA_159/IMG_5_159.jpg","null","","","","","","4","","","","","",""
"street view slide show","image-button-response","47","494828","0.0-47.0","","656776a7904ae00d6b91d1dd","6568ab2eca3c84188715f776","15","","","","","","","","","","","","null","stimulus/SV_PolicingMSA/MA_159/IMG_13_159.jpg","null","","","","","","4","","","","","",""
"street view slide show","image-button-response","48","495844","0.0-48.0","","656776a7904ae00d6b91d1dd","6568ab2eca3c84188715f776","15","","","","","","","","","","","","null","stimulus/SV_PolicingMSA/MA_159/IMG_9_159.jpg","null","","","","","","4","","","","","",""
"dot matrix survey1","survey","49","558972","0.0-49.0","","656776a7904ae00d6b91d1dd","6568ab2eca3c84188715f776","15","","","","","","","","","","","","63104","","{""P0_Q0"":null,""P0_Q1"":{""walkable"":4,""safe"":4,""traditional"":4,""diverse"":1,""wealthy"":3}}","","","","","","4","[]","","","","",""
"dot matrix survey2","survey","50","590076","0.0-50.0","","656776a7904ae00d6b91d1dd","6568ab2eca3c84188715f776","15","","","","","","","","","","","","31095","","{""P0_Q0"":null,""P0_Q1"":{""violence"":0,""crime"":1,""drug"":1,""schools"":3,""opportunities"":3}}","","","","","","4","[]","","","","",""
"dot matrix survey3","survey","51","617797","0.0-51.0","","656776a7904ae00d6b91d1dd","6568ab2eca3c84188715f776","15","","","","","","","","","","","","27710","","{""P0_Q0"":null,""P0_Q1"":{""movein"":4,""moveout"":2,""shopping"":3,""walk"":3,""park"":4,""school"":4}}","","","","","","4","[]","","","","",""
"sliderTrial","html-slider-response","52","623739","0.0-52.0","","656776a7904ae00d6b91d1dd","6568ab2eca3c84188715f776","15","","","","","","","","","","","","5940","[""SV_PolicingMSA/MA_159/IMG_7_159.jpg"",""SV_PolicingMSA/MA_159/IMG_14_159.jpg"",""SV_PolicingMSA/MA_159/IMG_4_159.jpg"",""SV_PolicingMSA/MA_159/IMG_11_159.jpg"",""SV_PolicingMSA/MA_159/IMG_10_159.jpg"",""SV_PolicingMSA/MA_159/IMG_5_159.jpg"",""SV_PolicingMSA/MA_159/IMG_13_159.jpg"",""SV_PolicingMSA/MA_159/IMG_9_159.jpg""]","4","","","","","","4","","4","[""./rc_img/cop_condGroup_17_SafeStreets_autoscaled.png"",""./rc_img/cop_condGroup_17_CommunitySafety_autoscaled.png""]","4","",""
"sliderTrial","html-slider-response","53","625403","0.0-53.0","","656776a7904ae00d6b91d1dd","6568ab2eca3c84188715f776","15","","","","","","","","","","","","1662","[""SV_PolicingMSA/MA_159/IMG_7_159.jpg"",""SV_PolicingMSA/MA_159/IMG_14_159.jpg"",""SV_PolicingMSA/MA_159/IMG_4_159.jpg"",""SV_PolicingMSA/MA_159/IMG_11_159.jpg"",""SV_PolicingMSA/MA_159/IMG_10_159.jpg"",""SV_PolicingMSA/MA_159/IMG_5_159.jpg"",""SV_PolicingMSA/MA_159/IMG_13_159.jpg"",""SV_PolicingMSA/MA_159/IMG_9_159.jpg""]","4","","","","","","4","","4","[""./rc_img/cop_condGroup_6_SafeStreets_autoscaled.png"",""./rc_img/cop_condGroup_6_CommunitySafety_autoscaled.png""]","4","",""
"sliderTrial","html-slider-response","54","627339","0.0-54.0","","656776a7904ae00d6b91d1dd","6568ab2eca3c84188715f776","15","","","","","","","","","","","","1934","[""SV_PolicingMSA/MA_159/IMG_7_159.jpg"",""SV_PolicingMSA/MA_159/IMG_14_159.jpg"",""SV_PolicingMSA/MA_159/IMG_4_159.jpg"",""SV_PolicingMSA/MA_159/IMG_11_159.jpg"",""SV_PolicingMSA/MA_159/IMG_10_159.jpg"",""SV_PolicingMSA/MA_159/IMG_5_159.jpg"",""SV_PolicingMSA/MA_159/IMG_13_159.jpg"",""SV_PolicingMSA/MA_159/IMG_9_159.jpg""]","4","","","","","","4","","4","[""./rc_img/cop_condGroup_11_CommunitySafety_autoscaled.png"",""./rc_img/cop_condGroup_11_SafeStreets_autoscaled.png""]","4","",""
"sliderTrial","html-slider-response","55","629123","0.0-55.0","","656776a7904ae00d6b91d1dd","6568ab2eca3c84188715f776","15","","","","","","","","","","","","1782","[""SV_PolicingMSA/MA_159/IMG_7_159.jpg"",""SV_PolicingMSA/MA_159/IMG_14_159.jpg"",""SV_PolicingMSA/MA_159/IMG_4_159.jpg"",""SV_PolicingMSA/MA_159/IMG_11_159.jpg"",""SV_PolicingMSA/MA_159/IMG_10_159.jpg"",""SV_PolicingMSA/MA_159/IMG_5_159.jpg"",""SV_PolicingMSA/MA_159/IMG_13_159.jpg"",""SV_PolicingMSA/MA_159/IMG_9_159.jpg""]","4","","","","","","4","","4","[""./rc_img/cop_condGroup_10_SafeStreets_autoscaled.png"",""./rc_img/cop_condGroup_10_CommunitySafety_autoscaled.png""]","4","",""
"sliderTrial","html-slider-response","56","635555","0.0-56.0","","656776a7904ae00d6b91d1dd","6568ab2eca3c84188715f776","15","","","","","","","","","","","","6430","[""SV_PolicingMSA/MA_159/IMG_7_159.jpg"",""SV_PolicingMSA/MA_159/IMG_14_159.jpg"",""SV_PolicingMSA/MA_159/IMG_4_159.jpg"",""SV_PolicingMSA/MA_159/IMG_11_159.jpg"",""SV_PolicingMSA/MA_159/IMG_10_159.jpg"",""SV_PolicingMSA/MA_159/IMG_5_159.jpg"",""SV_PolicingMSA/MA_159/IMG_13_159.jpg"",""SV_PolicingMSA/MA_159/IMG_9_159.jpg""]","3","","","","","","4","","4","[""./rc_img/cop_condGroup_8_CommunitySafety_autoscaled.png"",""./rc_img/cop_condGroup_8_SafeStreets_autoscaled.png""]","3","",""
"before_SVSlide_prompt","html-button-response","57","637051","0.0-57.0","","656776a7904ae00d6b91d1dd","6568ab2eca3c84188715f776","15","","","","","","","","","","","","1495","Click [Next] to see the next neighborhood!","0","","","","","","","","","","","",""
"street view slide show","image-button-response","58","638062","0.0-58.0","","656776a7904ae00d6b91d1dd","6568ab2eca3c84188715f776","15","","","","","","","","","","","","null","stimulus/SV_PolicingMSA/MA_1486/IMG_8_1486.jpg","null","","","","","","2","","","","","",""
"street view slide show","image-button-response","59","639071","0.0-59.0","","656776a7904ae00d6b91d1dd","6568ab2eca3c84188715f776","15","","","","","","","","","","","","null","stimulus/SV_PolicingMSA/MA_1486/IMG_9_1486.jpg","null","","","","","","2","","","","","",""
"street view slide show","image-button-response","60","640078","0.0-60.0","","656776a7904ae00d6b91d1dd","6568ab2eca3c84188715f776","15","","","","","","","","","","","","null","stimulus/SV_PolicingMSA/MA_1486/IMG_5_1486.jpg","null","","","","","","2","","","","","",""
"street view slide show","image-button-response","61","641088","0.0-61.0","","656776a7904ae00d6b91d1dd","6568ab2eca3c84188715f776","15","","","","","","","","","","","","null","stimulus/SV_PolicingMSA/MA_1486/IMG_4_1486.jpg","null","","","","","","2","","","","","",""
"street view slide show","image-button-response","62","642106","0.0-62.0","","656776a7904ae00d6b91d1dd","6568ab2eca3c84188715f776","15","","","","","","","","","","","","null","stimulus/SV_PolicingMSA/MA_1486/IMG_0_1486.jpg","null","","","","","","2","","","","","",""
"street view slide show","image-button-response","63","643115","0.0-63.0","","656776a7904ae00d6b91d1dd","6568ab2eca3c84188715f776","15","","","","","","","","","","","","null","stimulus/SV_PolicingMSA/MA_1486/IMG_12_1486.jpg","null","","","","","","2","","","","","",""
"street view slide show","image-button-response","64","644127","0.0-64.0","","656776a7904ae00d6b91d1dd","6568ab2eca3c84188715f776","15","","","","","","","","","","","","null","stimulus/SV_PolicingMSA/MA_1486/IMG_11_1486.jpg","null","","","","","","2","","","","","",""
"street view slide show","image-button-response","65","645134","0.0-65.0","","656776a7904ae00d6b91d1dd","6568ab2eca3c84188715f776","15","","","","","","","","","","","","null","stimulus/SV_PolicingMSA/MA_1486/IMG_13_1486.jpg","null","","","","","","2","","","","","",""
"dot matrix survey1","survey","66","683421","0.0-66.0","","656776a7904ae00d6b91d1dd","6568ab2eca3c84188715f776","15","","","","","","","","","","","","38262","","{""P0_Q0"":null,""P0_Q1"":{""wealthy"":2,""walkable"":1,""traditional"":1,""diverse"":2,""safe"":2}}","","","","","","2","[]","","","","",""
"dot matrix survey2","survey","67","717308","0.0-67.0","","656776a7904ae00d6b91d1dd","6568ab2eca3c84188715f776","15","","","","","","","","","","","","33878","","{""P0_Q0"":null,""P0_Q1"":{""violence"":2,""crime"":2,""drug"":2,""schools"":1,""opportunities"":1}}","","","","","","2","[]","","","","",""
"dot matrix survey3","survey","68","759325","0.0-68.0","","656776a7904ae00d6b91d1dd","6568ab2eca3c84188715f776","15","","","","","","","","","","","","42008","","{""P0_Q0"":null,""P0_Q1"":{""movein"":1,""moveout"":3,""shopping"":1,""walk"":1,""park"":1,""school"":1}}","","","","","","2","[]","","","","",""
"sliderTrial","html-slider-response","69","765012","0.0-69.0","","656776a7904ae00d6b91d1dd","6568ab2eca3c84188715f776","15","","","","","","","","","","","","5685","[""SV_PolicingMSA/MA_1486/IMG_8_1486.jpg"",""SV_PolicingMSA/MA_1486/IMG_9_1486.jpg"",""SV_PolicingMSA/MA_1486/IMG_5_1486.jpg"",""SV_PolicingMSA/MA_1486/IMG_4_1486.jpg"",""SV_PolicingMSA/MA_1486/IMG_0_1486.jpg"",""SV_PolicingMSA/MA_1486/IMG_12_1486.jpg"",""SV_PolicingMSA/MA_1486/IMG_11_1486.jpg"",""SV_PolicingMSA/MA_1486/IMG_13_1486.jpg""]","4","","","","","","2","","4","[""./rc_img/cop_condGroup_16_SafeStreets_autoscaled.png"",""./rc_img/cop_condGroup_16_CommunitySafety_autoscaled.png""]","4","",""
"sliderTrial","html-slider-response","70","767780","0.0-70.0","","656776a7904ae00d6b91d1dd","6568ab2eca3c84188715f776","15","","","","","","","","","","","","2766","[""SV_PolicingMSA/MA_1486/IMG_8_1486.jpg"",""SV_PolicingMSA/MA_1486/IMG_9_1486.jpg"",""SV_PolicingMSA/MA_1486/IMG_5_1486.jpg"",""SV_PolicingMSA/MA_1486/IMG_4_1486.jpg"",""SV_PolicingMSA/MA_1486/IMG_0_1486.jpg"",""SV_PolicingMSA/MA_1486/IMG_12_1486.jpg"",""SV_PolicingMSA/MA_1486/IMG_11_1486.jpg"",""SV_PolicingMSA/MA_1486/IMG_13_1486.jpg""]","4","","","","","","2","","4","[""./rc_img/cop_condGroup_2_CommunitySafety_autoscaled.png"",""./rc_img/cop_condGroup_2_SafeStreets_autoscaled.png""]","4","",""
"sliderTrial","html-slider-response","71","769291","0.0-71.0","","656776a7904ae00d6b91d1dd","6568ab2eca3c84188715f776","15","","","","","","","","","","","","1510","[""SV_PolicingMSA/MA_1486/IMG_8_1486.jpg"",""SV_PolicingMSA/MA_1486/IMG_9_1486.jpg"",""SV_PolicingMSA/MA_1486/IMG_5_1486.jpg"",""SV_PolicingMSA/MA_1486/IMG_4_1486.jpg"",""SV_PolicingMSA/MA_1486/IMG_0_1486.jpg"",""SV_PolicingMSA/MA_1486/IMG_12_1486.jpg"",""SV_PolicingMSA/MA_1486/IMG_11_1486.jpg"",""SV_PolicingMSA/MA_1486/IMG_13_1486.jpg""]","4","","","","","","2","","4","[""./rc_img/cop_condGroup_19_SafeStreets_autoscaled.png"",""./rc_img/cop_condGroup_19_CommunitySafety_autoscaled.png""]","4","",""
"sliderTrial","html-slider-response","72","770739","0.0-72.0","","656776a7904ae00d6b91d1dd","6568ab2eca3c84188715f776","15","","","","","","","","","","","","1446","[""SV_PolicingMSA/MA_1486/IMG_8_1486.jpg"",""SV_PolicingMSA/MA_1486/IMG_9_1486.jpg"",""SV_PolicingMSA/MA_1486/IMG_5_1486.jpg"",""SV_PolicingMSA/MA_1486/IMG_4_1486.jpg"",""SV_PolicingMSA/MA_1486/IMG_0_1486.jpg"",""SV_PolicingMSA/MA_1486/IMG_12_1486.jpg"",""SV_PolicingMSA/MA_1486/IMG_11_1486.jpg"",""SV_PolicingMSA/MA_1486/IMG_13_1486.jpg""]","4","","","","","","2","","4","[""./rc_img/cop_condGroup_1_CommunitySafety_autoscaled.png"",""./rc_img/cop_condGroup_1_SafeStreets_autoscaled.png""]","4","",""
"sliderTrial","html-slider-response","73","772123","0.0-73.0","","656776a7904ae00d6b91d1dd","6568ab2eca3c84188715f776","15","","","","","","","","","","","","1382","[""SV_PolicingMSA/MA_1486/IMG_8_1486.jpg"",""SV_PolicingMSA/MA_1486/IMG_9_1486.jpg"",""SV_PolicingMSA/MA_1486/IMG_5_1486.jpg"",""SV_PolicingMSA/MA_1486/IMG_4_1486.jpg"",""SV_PolicingMSA/MA_1486/IMG_0_1486.jpg"",""SV_PolicingMSA/MA_1486/IMG_12_1486.jpg"",""SV_PolicingMSA/MA_1486/IMG_11_1486.jpg"",""SV_PolicingMSA/MA_1486/IMG_13_1486.jpg""]","4","","","","","","2","","4","[""./rc_img/cop_condGroup_12_SafeStreets_autoscaled.png"",""./rc_img/cop_condGroup_12_CommunitySafety_autoscaled.png""]","4","",""
"half-way","html-button-response","74","787884","0.0-74.0","","656776a7904ae00d6b91d1dd","6568ab2eca3c84188715f776","15","","","","","","","","","","","","null","
    <h3>You are now half way through the study.</h3>
    <p>Please take a quick, 15-second break before you continue.</p>
    <img src='assets/img/countdown-15.gif'>
    <p>The study will automatically advance forward after the countdown is complete. <br> However, you may click ""Next"" to advance forward now if you wish.</p>
    ","null","","","","","","","","","","","",""
"before_SVSlide_prompt","html-button-response","75","793212","0.0-75.0","","656776a7904ae00d6b91d1dd","6568ab2eca3c84188715f776","15","","","","","","","","","","","","5327","Click [Next] to see the next neighborhood!","0","","","","","","","","","","","",""
"street view slide show","image-button-response","76","794229","0.0-76.0","","656776a7904ae00d6b91d1dd","6568ab2eca3c84188715f776","15","","","","","","","","","","","","null","stimulus/SV_PolicingMSA/MA_181/IMG_5_181.jpg","null","","","","","","3","","","","","",""
"street view slide show","image-button-response","77","795231","0.0-77.0","","656776a7904ae00d6b91d1dd","6568ab2eca3c84188715f776","15","","","","","","","","","","","","null","stimulus/SV_PolicingMSA/MA_181/IMG_8_181.jpg","null","","","","","","3","","","","","",""
"street view slide show","image-button-response","78","796241","0.0-78.0","","656776a7904ae00d6b91d1dd","6568ab2eca3c84188715f776","15","","","","","","","","","","","","null","stimulus/SV_PolicingMSA/MA_181/IMG_7_181.jpg","null","","","","","","3","","","","","",""
"street view slide show","image-button-response","79","797259","0.0-79.0","","656776a7904ae00d6b91d1dd","6568ab2eca3c84188715f776","15","","","","","","","","","","","","null","stimulus/SV_PolicingMSA/MA_181/IMG_10_181.jpg","null","","","","","","3","","","","","",""
"street view slide show","image-button-response","80","798271","0.0-80.0","","656776a7904ae00d6b91d1dd","6568ab2eca3c84188715f776","15","","","","","","","","","","","","null","stimulus/SV_PolicingMSA/MA_181/IMG_6_181.jpg","null","","","","","","3","","","","","",""
"street view slide show","image-button-response","81","799287","0.0-81.0","","656776a7904ae00d6b91d1dd","6568ab2eca3c84188715f776","15","","","","","","","","","","","","null","stimulus/SV_PolicingMSA/MA_181/IMG_4_181.jpg","null","","","","","","3","","","","","",""
"street view slide show","image-button-response","82","800303","0.0-82.0","","656776a7904ae00d6b91d1dd","6568ab2eca3c84188715f776","15","","","","","","","","","","","","null","stimulus/SV_PolicingMSA/MA_181/IMG_2_181.jpg","null","","","","","","3","","","","","",""
"street view slide show","image-button-response","83","801320","0.0-83.0","","656776a7904ae00d6b91d1dd","6568ab2eca3c84188715f776","15","","","","","","","","","","","","null","stimulus/SV_PolicingMSA/MA_181/IMG_3_181.jpg","null","","","","","","3","","","","","",""
"dot matrix survey1","survey","84","830757","0.0-84.0","","656776a7904ae00d6b91d1dd","6568ab2eca3c84188715f776","15","","","","","","","","","","","","29415","","{""P0_Q0"":null,""P0_Q1"":{""wealthy"":2,""safe"":2,""walkable"":4,""traditional"":3,""diverse"":2}}","","","","","","3","[]","","","","",""
"dot matrix survey2","survey","85","854988","0.0-85.0","","656776a7904ae00d6b91d1dd","6568ab2eca3c84188715f776","15","","","","","","","","","","","","24221","","{""P0_Q0"":null,""P0_Q1"":{""violence"":2,""crime"":2,""drug"":2,""schools"":1,""opportunities"":1}}","","","","","","3","[]","","","","",""
"dot matrix survey3","survey","86","873757","0.0-86.0","","656776a7904ae00d6b91d1dd","6568ab2eca3c84188715f776","15","","","","","","","","","","","","18759","","{""P0_Q0"":null,""P0_Q1"":{""movein"":2,""moveout"":2,""shopping"":2,""walk"":2,""park"":2,""school"":2}}","","","","","","3","[]","","","","",""
"sliderTrial","html-slider-response","87","881404","0.0-87.0","","656776a7904ae00d6b91d1dd","6568ab2eca3c84188715f776","15","","","","","","","","","","","","7645","[""SV_PolicingMSA/MA_181/IMG_5_181.jpg"",""SV_PolicingMSA/MA_181/IMG_8_181.jpg"",""SV_PolicingMSA/MA_181/IMG_7_181.jpg"",""SV_PolicingMSA/MA_181/IMG_10_181.jpg"",""SV_PolicingMSA/MA_181/IMG_6_181.jpg"",""SV_PolicingMSA/MA_181/IMG_4_181.jpg"",""SV_PolicingMSA/MA_181/IMG_2_181.jpg"",""SV_PolicingMSA/MA_181/IMG_3_181.jpg""]","4","","","","","","3","","4","[""./rc_img/cop_condGroup_9_CommunitySafety_autoscaled.png"",""./rc_img/cop_condGroup_9_SafeStreets_autoscaled.png""]","4","",""
"sliderTrial","html-slider-response","88","882564","0.0-88.0","","656776a7904ae00d6b91d1dd","6568ab2eca3c84188715f776","15","","","","","","","","","","","","1158","[""SV_PolicingMSA/MA_181/IMG_5_181.jpg"",""SV_PolicingMSA/MA_181/IMG_8_181.jpg"",""SV_PolicingMSA/MA_181/IMG_7_181.jpg"",""SV_PolicingMSA/MA_181/IMG_10_181.jpg"",""SV_PolicingMSA/MA_181/IMG_6_181.jpg"",""SV_PolicingMSA/MA_181/IMG_4_181.jpg"",""SV_PolicingMSA/MA_181/IMG_2_181.jpg"",""SV_PolicingMSA/MA_181/IMG_3_181.jpg""]","4","","","","","","3","","4","[""./rc_img/cop_condGroup_15_SafeStreets_autoscaled.png"",""./rc_img/cop_condGroup_15_CommunitySafety_autoscaled.png""]","4","",""
"sliderTrial","html-slider-response","89","884428","0.0-89.0","","656776a7904ae00d6b91d1dd","6568ab2eca3c84188715f776","15","","","","","","","","","","","","1862","[""SV_PolicingMSA/MA_181/IMG_5_181.jpg"",""SV_PolicingMSA/MA_181/IMG_8_181.jpg"",""SV_PolicingMSA/MA_181/IMG_7_181.jpg"",""SV_PolicingMSA/MA_181/IMG_10_181.jpg"",""SV_PolicingMSA/MA_181/IMG_6_181.jpg"",""SV_PolicingMSA/MA_181/IMG_4_181.jpg"",""SV_PolicingMSA/MA_181/IMG_2_181.jpg"",""SV_PolicingMSA/MA_181/IMG_3_181.jpg""]","4","","","","","","3","","4","[""./rc_img/cop_condGroup_13_SafeStreets_autoscaled.png"",""./rc_img/cop_condGroup_13_CommunitySafety_autoscaled.png""]","4","",""
"sliderTrial","html-slider-response","90","885684","0.0-90.0","","656776a7904ae00d6b91d1dd","6568ab2eca3c84188715f776","15","","","","","","","","","","","","1254","[""SV_PolicingMSA/MA_181/IMG_5_181.jpg"",""SV_PolicingMSA/MA_181/IMG_8_181.jpg"",""SV_PolicingMSA/MA_181/IMG_7_181.jpg"",""SV_PolicingMSA/MA_181/IMG_10_181.jpg"",""SV_PolicingMSA/MA_181/IMG_6_181.jpg"",""SV_PolicingMSA/MA_181/IMG_4_181.jpg"",""SV_PolicingMSA/MA_181/IMG_2_181.jpg"",""SV_PolicingMSA/MA_181/IMG_3_181.jpg""]","4","","","","","","3","","4","[""./rc_img/cop_condGroup_5_CommunitySafety_autoscaled.png"",""./rc_img/cop_condGroup_5_SafeStreets_autoscaled.png""]","4","",""
"sliderTrial","html-slider-response","91","886812","0.0-91.0","","656776a7904ae00d6b91d1dd","6568ab2eca3c84188715f776","15","","","","","","","","","","","","1126","[""SV_PolicingMSA/MA_181/IMG_5_181.jpg"",""SV_PolicingMSA/MA_181/IMG_8_181.jpg"",""SV_PolicingMSA/MA_181/IMG_7_181.jpg"",""SV_PolicingMSA/MA_181/IMG_10_181.jpg"",""SV_PolicingMSA/MA_181/IMG_6_181.jpg"",""SV_PolicingMSA/MA_181/IMG_4_181.jpg"",""SV_PolicingMSA/MA_181/IMG_2_181.jpg"",""SV_PolicingMSA/MA_181/IMG_3_181.jpg""]","4","","","","","","3","","4","[""./rc_img/cop_condGroup_20_SafeStreets_autoscaled.png"",""./rc_img/cop_condGroup_20_CommunitySafety_autoscaled.png""]","4","",""
"before_SVSlide_prompt","html-button-response","92","888539","0.0-92.0","","656776a7904ae00d6b91d1dd","6568ab2eca3c84188715f776","15","","","","","","","","","","","","1727","Click [Next] to see the next neighborhood!","0","","","","","","","","","","","",""
"street view slide show","image-button-response","93","889542","0.0-93.0","","656776a7904ae00d6b91d1dd","6568ab2eca3c84188715f776","15","","","","","","","","","","","","null","stimulus/SV_PolicingMSA/MA_855/IMG_11_855.jpg","null","","","","","","2","","","","","",""
"street view slide show","image-button-response","94","890544","0.0-94.0","","656776a7904ae00d6b91d1dd","6568ab2eca3c84188715f776","15","","","","","","","","","","","","null","stimulus/SV_PolicingMSA/MA_855/IMG_14_855.jpg","null","","","","","","2","","","","","",""
"street view slide show","image-button-response","95","891556","0.0-95.0","","656776a7904ae00d6b91d1dd","6568ab2eca3c84188715f776","15","","","","","","","","","","","","null","stimulus/SV_PolicingMSA/MA_855/IMG_12_855.jpg","null","","","","","","2","","","","","",""
"street view slide show","image-button-response","96","892557","0.0-96.0","","656776a7904ae00d6b91d1dd","6568ab2eca3c84188715f776","15","","","","","","","","","","","","null","stimulus/SV_PolicingMSA/MA_855/IMG_9_855.jpg","null","","","","","","2","","","","","",""
"street view slide show","image-button-response","97","893573","0.0-97.0","","656776a7904ae00d6b91d1dd","6568ab2eca3c84188715f776","15","","","","","","","","","","","","null","stimulus/SV_PolicingMSA/MA_855/IMG_1_855.jpg","null","","","","","","2","","","","","",""
"street view slide show","image-button-response","98","894590","0.0-98.0","","656776a7904ae00d6b91d1dd","6568ab2eca3c84188715f776","15","","","","","","","","","","","","null","stimulus/SV_PolicingMSA/MA_855/IMG_5_855.jpg","null","","","","","","2","","","","","",""
"street view slide show","image-button-response","99","895606","0.0-99.0","","656776a7904ae00d6b91d1dd","6568ab2eca3c84188715f776","15","","","","","","","","","","","","null","stimulus/SV_PolicingMSA/MA_855/IMG_0_855.jpg","null","","","","","","2","","","","","",""
"street view slide show","image-button-response","100","896608","0.0-100.0","","656776a7904ae00d6b91d1dd","6568ab2eca3c84188715f776","15","","","","","","","","","","","","null","stimulus/SV_PolicingMSA/MA_855/IMG_8_855.jpg","null","","","","","","2","","","","","",""
"dot matrix survey1","survey","101","964261","0.0-101.0","","656776a7904ae00d6b91d1dd","6568ab2eca3c84188715f776","15","","","","","","","","","","","","67632","","{""P0_Q0"":null,""P0_Q1"":{""wealthy"":3,""safe"":3,""walkable"":4,""traditional"":4,""diverse"":2}}","","","","","","2","[]","","","","",""
"dot matrix survey2","survey","102","990244","0.0-102.0","","656776a7904ae00d6b91d1dd","6568ab2eca3c84188715f776","15","","","","","","","","","","","","25975","","{""P0_Q0"":null,""P0_Q1"":{""violence"":1,""crime"":1,""drug"":1,""schools"":3,""opportunities"":2}}","","","","","","2","[]","","","","",""
"dot matrix survey3","survey","103","1008198","0.0-103.0","","656776a7904ae00d6b91d1dd","6568ab2eca3c84188715f776","15","","","","","","","","","","","","17944","","{""P0_Q0"":null,""P0_Q1"":{""movein"":3,""moveout"":1,""shopping"":3,""walk"":3,""park"":3,""school"":3}}","","","","","","2","[]","","","","",""
"sliderTrial","html-slider-response","104","1012996","0.0-104.0","","656776a7904ae00d6b91d1dd","6568ab2eca3c84188715f776","15","","","","","","","","","","","","4795","[""SV_PolicingMSA/MA_855/IMG_11_855.jpg"",""SV_PolicingMSA/MA_855/IMG_14_855.jpg"",""SV_PolicingMSA/MA_855/IMG_12_855.jpg"",""SV_PolicingMSA/MA_855/IMG_9_855.jpg"",""SV_PolicingMSA/MA_855/IMG_1_855.jpg"",""SV_PolicingMSA/MA_855/IMG_5_855.jpg"",""SV_PolicingMSA/MA_855/IMG_0_855.jpg"",""SV_PolicingMSA/MA_855/IMG_8_855.jpg""]","4","","","","","","2","","4","[""./rc_img/cop_condGroup_17_SafeStreets_autoscaled.png"",""./rc_img/cop_condGroup_17_CommunitySafety_autoscaled.png""]","4","",""
"sliderTrial","html-slider-response","105","1014044","0.0-105.0","","656776a7904ae00d6b91d1dd","6568ab2eca3c84188715f776","15","","","","","","","","","","","","1046","[""SV_PolicingMSA/MA_855/IMG_11_855.jpg"",""SV_PolicingMSA/MA_855/IMG_14_855.jpg"",""SV_PolicingMSA/MA_855/IMG_12_855.jpg"",""SV_PolicingMSA/MA_855/IMG_9_855.jpg"",""SV_PolicingMSA/MA_855/IMG_1_855.jpg"",""SV_PolicingMSA/MA_855/IMG_5_855.jpg"",""SV_PolicingMSA/MA_855/IMG_0_855.jpg"",""SV_PolicingMSA/MA_855/IMG_8_855.jpg""]","4","","","","","","2","","4","[""./rc_img/cop_condGroup_6_SafeStreets_autoscaled.png"",""./rc_img/cop_condGroup_6_CommunitySafety_autoscaled.png""]","4","",""
"sliderTrial","html-slider-response","106","1015204","0.0-106.0","","656776a7904ae00d6b91d1dd","6568ab2eca3c84188715f776","15","","","","","","","","","","","","1158","[""SV_PolicingMSA/MA_855/IMG_11_855.jpg"",""SV_PolicingMSA/MA_855/IMG_14_855.jpg"",""SV_PolicingMSA/MA_855/IMG_12_855.jpg"",""SV_PolicingMSA/MA_855/IMG_9_855.jpg"",""SV_PolicingMSA/MA_855/IMG_1_855.jpg"",""SV_PolicingMSA/MA_855/IMG_5_855.jpg"",""SV_PolicingMSA/MA_855/IMG_0_855.jpg"",""SV_PolicingMSA/MA_855/IMG_8_855.jpg""]","4","","","","","","2","","4","[""./rc_img/cop_condGroup_11_CommunitySafety_autoscaled.png"",""./rc_img/cop_condGroup_11_SafeStreets_autoscaled.png""]","4","",""
"sliderTrial","html-slider-response","107","1016332","0.0-107.0","","656776a7904ae00d6b91d1dd","6568ab2eca3c84188715f776","15","","","","","","","","","","","","1126","[""SV_PolicingMSA/MA_855/IMG_11_855.jpg"",""SV_PolicingMSA/MA_855/IMG_14_855.jpg"",""SV_PolicingMSA/MA_855/IMG_12_855.jpg"",""SV_PolicingMSA/MA_855/IMG_9_855.jpg"",""SV_PolicingMSA/MA_855/IMG_1_855.jpg"",""SV_PolicingMSA/MA_855/IMG_5_855.jpg"",""SV_PolicingMSA/MA_855/IMG_0_855.jpg"",""SV_PolicingMSA/MA_855/IMG_8_855.jpg""]","4","","","","","","2","","4","[""./rc_img/cop_condGroup_10_SafeStreets_autoscaled.png"",""./rc_img/cop_condGroup_10_CommunitySafety_autoscaled.png""]","4","",""
"sliderTrial","html-slider-response","108","1017372","0.0-108.0","","656776a7904ae00d6b91d1dd","6568ab2eca3c84188715f776","15","","","","","","","","","","","","1038","[""SV_PolicingMSA/MA_855/IMG_11_855.jpg"",""SV_PolicingMSA/MA_855/IMG_14_855.jpg"",""SV_PolicingMSA/MA_855/IMG_12_855.jpg"",""SV_PolicingMSA/MA_855/IMG_9_855.jpg"",""SV_PolicingMSA/MA_855/IMG_1_855.jpg"",""SV_PolicingMSA/MA_855/IMG_5_855.jpg"",""SV_PolicingMSA/MA_855/IMG_0_855.jpg"",""SV_PolicingMSA/MA_855/IMG_8_855.jpg""]","4","","","","","","2","","4","[""./rc_img/cop_condGroup_8_CommunitySafety_autoscaled.png"",""./rc_img/cop_condGroup_8_SafeStreets_autoscaled.png""]","4","",""
"before_SVSlide_prompt","html-button-response","109","1026060","0.0-109.0","","656776a7904ae00d6b91d1dd","6568ab2eca3c84188715f776","15","","","","","","","","","","","","8687","Click [Next] to see the next neighborhood!","0","","","","","","","","","","","",""
"street view slide show","image-button-response","110","1027067","0.0-110.0","","656776a7904ae00d6b91d1dd","6568ab2eca3c84188715f776","15","","","","","","","","","","","","null","stimulus/SV_PolicingMSA/MA_854/IMG_11_854.jpg","null","","","","","","1","","","","","",""
"street view slide show","image-button-response","111","1028078","0.0-111.0","","656776a7904ae00d6b91d1dd","6568ab2eca3c84188715f776","15","","","","","","","","","","","","null","stimulus/SV_PolicingMSA/MA_854/IMG_7_854.jpg","null","","","","","","1","","","","","",""
"street view slide show","image-button-response","112","1029085","0.0-112.0","","656776a7904ae00d6b91d1dd","6568ab2eca3c84188715f776","15","","","","","","","","","","","","null","stimulus/SV_PolicingMSA/MA_854/IMG_13_854.jpg","null","","","","","","1","","","","","",""
"street view slide show","image-button-response","113","1030095","0.0-113.0","","656776a7904ae00d6b91d1dd","6568ab2eca3c84188715f776","15","","","","","","","","","","","","null","stimulus/SV_PolicingMSA/MA_854/IMG_12_854.jpg","null","","","","","","1","","","","","",""
"street view slide show","image-button-response","114","1031098","0.0-114.0","","656776a7904ae00d6b91d1dd","6568ab2eca3c84188715f776","15","","","","","","","","","","","","null","stimulus/SV_PolicingMSA/MA_854/IMG_0_854.jpg","null","","","","","","1","","","","","",""
"street view slide show","image-button-response","115","1032111","0.0-115.0","","656776a7904ae00d6b91d1dd","6568ab2eca3c84188715f776","15","","","","","","","","","","","","null","stimulus/SV_PolicingMSA/MA_854/IMG_10_854.jpg","null","","","","","","1","","","","","",""
"street view slide show","image-button-response","116","1033128","0.0-116.0","","656776a7904ae00d6b91d1dd","6568ab2eca3c84188715f776","15","","","","","","","","","","","","null","stimulus/SV_PolicingMSA/MA_854/IMG_3_854.jpg","null","","","","","","1","","","","","",""
"street view slide show","image-button-response","117","1034144","0.0-117.0","","656776a7904ae00d6b91d1dd","6568ab2eca3c84188715f776","15","","","","","","","","","","","","null","stimulus/SV_PolicingMSA/MA_854/IMG_5_854.jpg","null","","","","","","1","","","","","",""
"dot matrix survey1","survey","118","1401292","0.0-118.0","","656776a7904ae00d6b91d1dd","6568ab2eca3c84188715f776","15","","","","","","","","","","","","367129","","{""P0_Q0"":null,""P0_Q1"":{""wealthy"":1,""safe"":2,""walkable"":2,""traditional"":1,""diverse"":1}}","","","","","","1","[]","","","","",""
"dot matrix survey2","survey","119","1436180","0.0-119.0","","656776a7904ae00d6b91d1dd","6568ab2eca3c84188715f776","15","","","","","","","","","","","","34879","","{""P0_Q0"":null,""P0_Q1"":{""violence"":2,""crime"":3,""drug"":2,""schools"":2,""opportunities"":1}}","","","","","","1","[]","","","","",""
"dot matrix survey3","survey","120","1454998","0.0-120.0","","656776a7904ae00d6b91d1dd","6568ab2eca3c84188715f776","15","","","","","","","","","","","","18808","","{""P0_Q0"":null,""P0_Q1"":{""movein"":1,""moveout"":3,""shopping"":1,""walk"":1,""park"":2,""school"":2}}","","","","","","1","[]","","","","",""
"sliderTrial","html-slider-response","121","1458012","0.0-121.0","","656776a7904ae00d6b91d1dd","6568ab2eca3c84188715f776","15","","","","","","","","","","","","3012","[""SV_PolicingMSA/MA_854/IMG_11_854.jpg"",""SV_PolicingMSA/MA_854/IMG_7_854.jpg"",""SV_PolicingMSA/MA_854/IMG_13_854.jpg"",""SV_PolicingMSA/MA_854/IMG_12_854.jpg"",""SV_PolicingMSA/MA_854/IMG_0_854.jpg"",""SV_PolicingMSA/MA_854/IMG_10_854.jpg"",""SV_PolicingMSA/MA_854/IMG_3_854.jpg"",""SV_PolicingMSA/MA_854/IMG_5_854.jpg""]","4","","","","","","1","","4","[""./rc_img/cop_condGroup_3_SafeStreets_autoscaled.png"",""./rc_img/cop_condGroup_3_CommunitySafety_autoscaled.png""]","4","",""
"sliderTrial","html-slider-response","122","1458740","0.0-122.0","","656776a7904ae00d6b91d1dd","6568ab2eca3c84188715f776","15","","","","","","","","","","","","726","[""SV_PolicingMSA/MA_854/IMG_11_854.jpg"",""SV_PolicingMSA/MA_854/IMG_7_854.jpg"",""SV_PolicingMSA/MA_854/IMG_13_854.jpg"",""SV_PolicingMSA/MA_854/IMG_12_854.jpg"",""SV_PolicingMSA/MA_854/IMG_0_854.jpg"",""SV_PolicingMSA/MA_854/IMG_10_854.jpg"",""SV_PolicingMSA/MA_854/IMG_3_854.jpg"",""SV_PolicingMSA/MA_854/IMG_5_854.jpg""]","4","","","","","","1","","4","[""./rc_img/cop_condGroup_18_CommunitySafety_autoscaled.png"",""./rc_img/cop_condGroup_18_SafeStreets_autoscaled.png""]","4","",""
"sliderTrial","html-slider-response","123","1459348","0.0-123.0","","656776a7904ae00d6b91d1dd","6568ab2eca3c84188715f776","15","","","","","","","","","","","","606","[""SV_PolicingMSA/MA_854/IMG_11_854.jpg"",""SV_PolicingMSA/MA_854/IMG_7_854.jpg"",""SV_PolicingMSA/MA_854/IMG_13_854.jpg"",""SV_PolicingMSA/MA_854/IMG_12_854.jpg"",""SV_PolicingMSA/MA_854/IMG_0_854.jpg"",""SV_PolicingMSA/MA_854/IMG_10_854.jpg"",""SV_PolicingMSA/MA_854/IMG_3_854.jpg"",""SV_PolicingMSA/MA_854/IMG_5_854.jpg""]","4","","","","","","1","","4","[""./rc_img/cop_condGroup_14_CommunitySafety_autoscaled.png"",""./rc_img/cop_condGroup_14_SafeStreets_autoscaled.png""]","4","",""
"sliderTrial_attention","html-slider-response","124","1469362","0.0-124.0","","656776a7904ae00d6b91d1dd","6568ab2eca3c84188715f776","15","","","","","","","","","","","","null","[""SV_PolicingMSA/MA_854/IMG_11_854.jpg"",""SV_PolicingMSA/MA_854/IMG_7_854.jpg"",""SV_PolicingMSA/MA_854/IMG_13_854.jpg"",""SV_PolicingMSA/MA_854/IMG_12_854.jpg"",""SV_PolicingMSA/MA_854/IMG_0_854.jpg"",""SV_PolicingMSA/MA_854/IMG_10_854.jpg"",""SV_PolicingMSA/MA_854/IMG_3_854.jpg"",""SV_PolicingMSA/MA_854/IMG_5_854.jpg""]","null","","","","","","1","","4","[""./assets/img/attnchk.png"",""./assets/img/attnchk.png""]","","true",""
"sliderTrial","html-slider-response","125","1471452","0.0-125.0","","656776a7904ae00d6b91d1dd","6568ab2eca3c84188715f776","15","","","","","","","","","","","","2086","[""SV_PolicingMSA/MA_854/IMG_11_854.jpg"",""SV_PolicingMSA/MA_854/IMG_7_854.jpg"",""SV_PolicingMSA/MA_854/IMG_13_854.jpg"",""SV_PolicingMSA/MA_854/IMG_12_854.jpg"",""SV_PolicingMSA/MA_854/IMG_0_854.jpg"",""SV_PolicingMSA/MA_854/IMG_10_854.jpg"",""SV_PolicingMSA/MA_854/IMG_3_854.jpg"",""SV_PolicingMSA/MA_854/IMG_5_854.jpg""]","4","","","","","","1","","4","[""./rc_img/cop_condGroup_4_CommunitySafety_autoscaled.png"",""./rc_img/cop_condGroup_4_SafeStreets_autoscaled.png""]","4","",""
"sliderTrial","html-slider-response","126","1472820","0.0-126.0","","656776a7904ae00d6b91d1dd","6568ab2eca3c84188715f776","15","","","","","","","","","","","","1366","[""SV_PolicingMSA/MA_854/IMG_11_854.jpg"",""SV_PolicingMSA/MA_854/IMG_7_854.jpg"",""SV_PolicingMSA/MA_854/IMG_13_854.jpg"",""SV_PolicingMSA/MA_854/IMG_12_854.jpg"",""SV_PolicingMSA/MA_854/IMG_0_854.jpg"",""SV_PolicingMSA/MA_854/IMG_10_854.jpg"",""SV_PolicingMSA/MA_854/IMG_3_854.jpg"",""SV_PolicingMSA/MA_854/IMG_5_854.jpg""]","4","","","","","","1","","4","[""./rc_img/cop_condGroup_7_CommunitySafety_autoscaled.png"",""./rc_img/cop_condGroup_7_SafeStreets_autoscaled.png""]","4","",""
"before_SVSlide_prompt","html-button-response","127","1474300","0.0-127.0","","656776a7904ae00d6b91d1dd","6568ab2eca3c84188715f776","15","","","","","","","","","","","","1479","Click [Next] to see the next neighborhood!","0","","","","","","","","","","","",""
"street view slide show","image-button-response","128","1475309","0.0-128.0","","656776a7904ae00d6b91d1dd","6568ab2eca3c84188715f776","15","","","","","","","","","","","","null","stimulus/SV_PolicingMSA/MA_185/IMG_13_185.jpg","null","","","","","","0","","","","","",""
"street view slide show","image-button-response","129","1476326","0.0-129.0","","656776a7904ae00d6b91d1dd","6568ab2eca3c84188715f776","15","","","","","","","","","","","","null","stimulus/SV_PolicingMSA/MA_185/IMG_1_185.jpg","null","","","","","","0","","","","","",""
"street view slide show","image-button-response","130","1477342","0.0-130.0","","656776a7904ae00d6b91d1dd","6568ab2eca3c84188715f776","15","","","","","","","","","","","","null","stimulus/SV_PolicingMSA/MA_185/IMG_8_185.jpg","null","","","","","","0","","","","","",""
"street view slide show","image-button-response","131","1478359","0.0-131.0","","656776a7904ae00d6b91d1dd","6568ab2eca3c84188715f776","15","","","","","","","","","","","","null","stimulus/SV_PolicingMSA/MA_185/IMG_5_185.jpg","null","","","","","","0","","","","","",""
"street view slide show","image-button-response","132","1479364","0.0-132.0","","656776a7904ae00d6b91d1dd","6568ab2eca3c84188715f776","15","","","","","","","","","","","","null","stimulus/SV_PolicingMSA/MA_185/IMG_6_185.jpg","null","","","","","","0","","","","","",""
"street view slide show","image-button-response","133","1480379","0.0-133.0","","656776a7904ae00d6b91d1dd","6568ab2eca3c84188715f776","15","","","","","","","","","","","","null","stimulus/SV_PolicingMSA/MA_185/IMG_11_185.jpg","null","","","","","","0","","","","","",""
"street view slide show","image-button-response","134","1481392","0.0-134.0","","656776a7904ae00d6b91d1dd","6568ab2eca3c84188715f776","15","","","","","","","","","","","","null","stimulus/SV_PolicingMSA/MA_185/IMG_2_185.jpg","null","","","","","","0","","","","","",""
"street view slide show","image-button-response","135","1482393","0.0-135.0","","656776a7904ae00d6b91d1dd","6568ab2eca3c84188715f776","15","","","","","","","","","","","","null","stimulus/SV_PolicingMSA/MA_185/IMG_3_185.jpg","null","","","","","","0","","","","","",""
"dot matrix survey1","survey","136","1514220","0.0-136.0","","656776a7904ae00d6b91d1dd","6568ab2eca3c84188715f776","15","","","","","","","","","","","","31806","","{""P0_Q0"":null,""P0_Q1"":{""wealthy"":1,""safe"":2,""walkable"":4,""traditional"":4,""diverse"":2}}","","","","","","0","[]","","","","",""
"dot matrix survey2","survey","137","1541133","0.0-137.0","","656776a7904ae00d6b91d1dd","6568ab2eca3c84188715f776","15","","","","","","","","","","","","26904","","{""P0_Q0"":null,""P0_Q1"":{""violence"":2,""crime"":3,""drug"":3,""schools"":1,""opportunities"":1}}","","","","","","0","[]","","","","",""
"dot matrix survey3","survey","138","1567102","0.0-138.0","","656776a7904ae00d6b91d1dd","6568ab2eca3c84188715f776","15","","","","","","","","","","","","25961","","{""P0_Q0"":null,""P0_Q1"":{""movein"":2,""moveout"":3,""shopping"":1,""walk"":1,""park"":2,""school"":1}}","","","","","","0","[]","","","","",""
"sliderTrial","html-slider-response","139","1572676","0.0-139.0","","656776a7904ae00d6b91d1dd","6568ab2eca3c84188715f776","15","","","","","","","","","","","","5572","[""SV_PolicingMSA/MA_185/IMG_13_185.jpg"",""SV_PolicingMSA/MA_185/IMG_1_185.jpg"",""SV_PolicingMSA/MA_185/IMG_8_185.jpg"",""SV_PolicingMSA/MA_185/IMG_5_185.jpg"",""SV_PolicingMSA/MA_185/IMG_6_185.jpg"",""SV_PolicingMSA/MA_185/IMG_11_185.jpg"",""SV_PolicingMSA/MA_185/IMG_2_185.jpg"",""SV_PolicingMSA/MA_185/IMG_3_185.jpg""]","4","","","","","","0","","4","[""./rc_img/cop_condGroup_16_SafeStreets_autoscaled.png"",""./rc_img/cop_condGroup_16_CommunitySafety_autoscaled.png""]","4","",""
"sliderTrial","html-slider-response","140","1574572","0.0-140.0","","656776a7904ae00d6b91d1dd","6568ab2eca3c84188715f776","15","","","","","","","","","","","","1894","[""SV_PolicingMSA/MA_185/IMG_13_185.jpg"",""SV_PolicingMSA/MA_185/IMG_1_185.jpg"",""SV_PolicingMSA/MA_185/IMG_8_185.jpg"",""SV_PolicingMSA/MA_185/IMG_5_185.jpg"",""SV_PolicingMSA/MA_185/IMG_6_185.jpg"",""SV_PolicingMSA/MA_185/IMG_11_185.jpg"",""SV_PolicingMSA/MA_185/IMG_2_185.jpg"",""SV_PolicingMSA/MA_185/IMG_3_185.jpg""]","4","","","","","","0","","4","[""./rc_img/cop_condGroup_2_CommunitySafety_autoscaled.png"",""./rc_img/cop_condGroup_2_SafeStreets_autoscaled.png""]","4","",""
"sliderTrial_attention","html-slider-response","141","1584588","0.0-141.0","","656776a7904ae00d6b91d1dd","6568ab2eca3c84188715f776","15","","","","","","","","","","","","null","[""SV_PolicingMSA/MA_185/IMG_13_185.jpg"",""SV_PolicingMSA/MA_185/IMG_1_185.jpg"",""SV_PolicingMSA/MA_185/IMG_8_185.jpg"",""SV_PolicingMSA/MA_185/IMG_5_185.jpg"",""SV_PolicingMSA/MA_185/IMG_6_185.jpg"",""SV_PolicingMSA/MA_185/IMG_11_185.jpg"",""SV_PolicingMSA/MA_185/IMG_2_185.jpg"",""SV_PolicingMSA/MA_185/IMG_3_185.jpg""]","null","","","","","","0","","4","[""./assets/img/attnchk.png"",""./assets/img/attnchk.png""]","","true",""
"sliderTrial","html-slider-response","142","1588092","0.0-142.0","","656776a7904ae00d6b91d1dd","6568ab2eca3c84188715f776","15","","","","","","","","","","","","3500","[""SV_PolicingMSA/MA_185/IMG_13_185.jpg"",""SV_PolicingMSA/MA_185/IMG_1_185.jpg"",""SV_PolicingMSA/MA_185/IMG_8_185.jpg"",""SV_PolicingMSA/MA_185/IMG_5_185.jpg"",""SV_PolicingMSA/MA_185/IMG_6_185.jpg"",""SV_PolicingMSA/MA_185/IMG_11_185.jpg"",""SV_PolicingMSA/MA_185/IMG_2_185.jpg"",""SV_PolicingMSA/MA_185/IMG_3_185.jpg""]","4","","","","","","0","","4","[""./rc_img/cop_condGroup_19_SafeStreets_autoscaled.png"",""./rc_img/cop_condGroup_19_CommunitySafety_autoscaled.png""]","4","",""
"sliderTrial","html-slider-response","143","1590452","0.0-143.0","","656776a7904ae00d6b91d1dd","6568ab2eca3c84188715f776","15","","","","","","","","","","","","2358","[""SV_PolicingMSA/MA_185/IMG_13_185.jpg"",""SV_PolicingMSA/MA_185/IMG_1_185.jpg"",""SV_PolicingMSA/MA_185/IMG_8_185.jpg"",""SV_PolicingMSA/MA_185/IMG_5_185.jpg"",""SV_PolicingMSA/MA_185/IMG_6_185.jpg"",""SV_PolicingMSA/MA_185/IMG_11_185.jpg"",""SV_PolicingMSA/MA_185/IMG_2_185.jpg"",""SV_PolicingMSA/MA_185/IMG_3_185.jpg""]","4","","","","","","0","","4","[""./rc_img/cop_condGroup_1_CommunitySafety_autoscaled.png"",""./rc_img/cop_condGroup_1_SafeStreets_autoscaled.png""]","4","",""
"sliderTrial","html-slider-response","144","1592148","0.0-144.0","","656776a7904ae00d6b91d1dd","6568ab2eca3c84188715f776","15","","","","","","","","","","","","1694","[""SV_PolicingMSA/MA_185/IMG_13_185.jpg"",""SV_PolicingMSA/MA_185/IMG_1_185.jpg"",""SV_PolicingMSA/MA_185/IMG_8_185.jpg"",""SV_PolicingMSA/MA_185/IMG_5_185.jpg"",""SV_PolicingMSA/MA_185/IMG_6_185.jpg"",""SV_PolicingMSA/MA_185/IMG_11_185.jpg"",""SV_PolicingMSA/MA_185/IMG_2_185.jpg"",""SV_PolicingMSA/MA_185/IMG_3_185.jpg""]","4","","","","","","0","","4","[""./rc_img/cop_condGroup_12_SafeStreets_autoscaled.png"",""./rc_img/cop_condGroup_12_CommunitySafety_autoscaled.png""]","4","",""
"demographics","survey-html-form","145","1617207","0.0-145.0","","656776a7904ae00d6b91d1dd","6568ab2eca3c84188715f776","15","","","","","","","","","","","","25057","","{""age"":""51"",""sex"":""not-to-say"",""gender"":""nonbinary"",""gender-self-describe"":""nonbinary or genderqueer"",""zipcode"":""30021""}","","","","","","","","","","","",""
"demographics-list","survey","146","1647789","0.0-146.0","","656776a7904ae00d6b91d1dd","6568ab2eca3c84188715f776","15","","","","","","","","","","","","30546","","{""P0_Q0"":null,""race-ethnicity"":[""Bi-racial or Multi-racial"",""East Asian"",""White or of European ancestry""],""education"":""Graduate & professional degrees"",""P1_Q0"":null,""ideology"":""Liberal"",""P2_Q0"":null,""num-moves"":0,""P3_Q0"":null,""social-ladder"":7}","","","","","","","[]","","","","",""
"end-survey","survey-text","147","1658116","0.0-147.0","","656776a7904ae00d6b91d1dd","6568ab2eca3c84188715f776","15","","","","","","","","","","","","10317","","{""Q0"":""""}","","","","","","","","","","","","2"
"end-survey","html-button-response","148","1659692","0.0-148.0","","656776a7904ae00d6b91d1dd","6568ab2eca3c84188715f776","15","","","","","","","","","","","","1574","
    You've reached the end of the survey. <br><br> 
    <b>Do not close or refresh this window.</b><br>
    On the next page, you will be automatically redirected to Prolific. <br><br>

    <div class=""alert alert-warning""><b>
    </div>
","0","","","","","","","","","","","",""
