"task","trial_type","trial_index","time_elapsed","internal_node_id","subject_id","study_id","session_id","section","width","height","webaudio","browser","browser_version","mobile","os","fullscreen","vsync_rate","webcam","microphone","rt","stimulus","response","success","timeout","failed_images","failed_audio","failed_video","block","accuracy","slider_start","choices","standardized_response","correct","num_attention_checks_correct"
"pavlovia-init","pavlovia","0","1088","0.0-0.0","","656776a7904ae00d6b91d1dd","6568a9f37ea0b5e4d8b4ca44","7","","","","","","","","","","","","","","","","","","","","","","","","","",""
"browser-check","browser-check","1","2091","0.0-1.0","","656776a7904ae00d6b91d1dd","6568a9f37ea0b5e4d8b4ca44","7","1174","550","true","edge-chromium","119.0.0","false","Windows 10","true","60.15","true","true","","","","","","","","","","","","","","",""
"consent","html-button-response","2","44170","0.0-2.0","","656776a7904ae00d6b91d1dd","6568a9f37ea0b5e4d8b4ca44","7","","","","","","","","","","","","42076","
        <div style=""font-size: 80%; max-width:700px"">
            <h2>CONSENT FORM</h2>
        
            <div style=""text-align: left"">
            <h4>DESCRIPTION</h4>
            <p>
            You will complete a short task where you give your impressions of various neighborhoods and assign individuals to those spaces, and answer some questions about your thoughts and opinions.<br>
            The University of Michigan Institutional Review Board Health Sciences and Behavioral Sciences has determined that this study is exempt from IRB oversight.
            </p>

            <h4>TIME INVOLVEMENT</h4>
            <p>Your participation will take approximately 15 minutes. You will receive $3.15 upon completion of the study.</p>
        
            <h4>RISKS AND BENEFITS</h4>
            <p>
            The risks associated with this study are minimal. The benefits which may reasonably be expected to result from this study are none. We cannot and do not guarantee or promise that you will receive any benefits from this study.
            </p>
          
            <h4>SUBJECT'S RIGHTS</h4>
            <p>
            If you have read this form and have decided to participate in this project, please understand your participation is voluntary and you have the right to withdraw your consent or discontinue participation at any time without penalty or loss of benefits to which you are otherwise entitled. The alternative is not to participate. You have the right to refuse to answer particular questions. Your individual privacy will be maintained in all published and written data resulting from the study.
            </p>

            <h4>HUMAN SUBJECT APPROVAL</h4>
            <p>
            This study is exempt from ongoing IRB review.
            </p>

            <h4>CONTACT INFORMATION</h4>
            If you have any questions, concerns or complaints about this research, its procedures, risks and benefits, contact the Protocol Director, Nicholas Camp, npcamp@umich.edu, (443) 851-6783. <br>

            If you have questions about your rights as a research participant, or wish to obtain information, ask questions or discuss any concerns about this study with someone other than the researcher(s), please contact the following:<br><br>
            University of Michigan<br>
            Health Sciences and Behavioral Sciences Institutional Review Board (IRB-HSBS)<br>
            2800 Plymouth Road<br>
            Building 520, Room 1169Ann Arbor, MI 48109-2800<br>
            Telephone: 734-936-0933 or toll free (866) 936-0933<br>
            Fax: 734-936-1852<br>
            E-mail: irbhsbs@umich.edu<br><br>

            You can also contact the University of Michigan Compliance Hotline at 1-866-990-0111. You may also print this consent form to keep.
            <br><br>
            <div class=""alert alert-warning""><b>
            Do you consent to participate in this study? If you consent to participate in this study, please click “Accept and Continue”. If you select ""Decline and Exit"", you will be exited from the survey. <br>
            </b></div>
            </div>
        </div>
    ","1","","","","","","","","","","","",""
"","preload","3","46415","0.0-3.0","","656776a7904ae00d6b91d1dd","6568a9f37ea0b5e4d8b4ca44","7","","","","","","","","","","","","","","","true","false","[]","[]","[]","","","","","","",""
"instructions","html-button-response","4","61276","0.0-4.0","","656776a7904ae00d6b91d1dd","6568a9f37ea0b5e4d8b4ca44","7","","","","","","","","","","","","14859","
        <div class=""text-container"">
        <h1>Welcome to the study!</h1>
        
        <div class=""text-left"">
            <p>
                In this study, we are interested in what people can tell about spaces from Google Street View images. <br> Google Street View takes pictures of streets used for Google Earth and Google Maps. <br>You’ll see Google Street View images of different places and answer some questions about each one.<br>
            </p>
        </div>
        <img src = ""assets/img/example.png"" width = 500px, height = auto>
        <br>
    <br>
    ","0","","","","","","","","","","","",""
"instructions","html-button-response","5","64418","0.0-5.0","","656776a7904ae00d6b91d1dd","6568a9f37ea0b5e4d8b4ca44","7","","","","","","","","","","","","3142","
    <div class=""text-container"">
        <div class=""text-center"">
            <p>Please remember that your answers are completely anonymous.<br>Go with your gut response- there are no right or wrong answers!</p>
        </div>
    <br>
","0","","","","","","","","","","","",""
"before_SVSlide_prompt","html-button-response","6","65840","0.0-6.0","","656776a7904ae00d6b91d1dd","6568a9f37ea0b5e4d8b4ca44","7","","","","","","","","","","","","1421","Click [Next] to see the next neighborhood!","0","","","","","","","","","","","",""
"street view slide show","image-button-response","7","66845","0.0-7.0","","656776a7904ae00d6b91d1dd","6568a9f37ea0b5e4d8b4ca44","7","","","","","","","","","","","","null","stimulus/SV_PolicingMSA/MO_628/IMG_14_628.jpg","null","","","","","","3","","","","","",""
"street view slide show","image-button-response","8","67863","0.0-8.0","","656776a7904ae00d6b91d1dd","6568a9f37ea0b5e4d8b4ca44","7","","","","","","","","","","","","null","stimulus/SV_PolicingMSA/MO_628/IMG_10_628.jpg","null","","","","","","3","","","","","",""
"street view slide show","image-button-response","9","68875","0.0-9.0","","656776a7904ae00d6b91d1dd","6568a9f37ea0b5e4d8b4ca44","7","","","","","","","","","","","","null","stimulus/SV_PolicingMSA/MO_628/IMG_6_628.jpg","null","","","","","","3","","","","","",""
"street view slide show","image-button-response","10","69894","0.0-10.0","","656776a7904ae00d6b91d1dd","6568a9f37ea0b5e4d8b4ca44","7","","","","","","","","","","","","null","stimulus/SV_PolicingMSA/MO_628/IMG_9_628.jpg","null","","","","","","3","","","","","",""
"street view slide show","image-button-response","11","70896","0.0-11.0","","656776a7904ae00d6b91d1dd","6568a9f37ea0b5e4d8b4ca44","7","","","","","","","","","","","","null","stimulus/SV_PolicingMSA/MO_628/IMG_4_628.jpg","null","","","","","","3","","","","","",""
"street view slide show","image-button-response","12","71905","0.0-12.0","","656776a7904ae00d6b91d1dd","6568a9f37ea0b5e4d8b4ca44","7","","","","","","","","","","","","null","stimulus/SV_PolicingMSA/MO_628/IMG_1_628.jpg","null","","","","","","3","","","","","",""
"street view slide show","image-button-response","13","72923","0.0-13.0","","656776a7904ae00d6b91d1dd","6568a9f37ea0b5e4d8b4ca44","7","","","","","","","","","","","","null","stimulus/SV_PolicingMSA/MO_628/IMG_5_628.jpg","null","","","","","","3","","","","","",""
"street view slide show","image-button-response","14","73941","0.0-14.0","","656776a7904ae00d6b91d1dd","6568a9f37ea0b5e4d8b4ca44","7","","","","","","","","","","","","null","stimulus/SV_PolicingMSA/MO_628/IMG_0_628.jpg","null","","","","","","3","","","","","",""
"dot matrix survey1","survey","15","95920","0.0-15.0","","656776a7904ae00d6b91d1dd","6568a9f37ea0b5e4d8b4ca44","7","","","","","","","","","","","","21940","","{""P0_Q0"":null,""P0_Q1"":{""wealthy"":1,""safe"":2,""walkable"":4,""traditional"":4,""diverse"":2}}","","","","","","3","[]","","","","",""
"dot matrix survey2","survey","16","119496","0.0-16.0","","656776a7904ae00d6b91d1dd","6568a9f37ea0b5e4d8b4ca44","7","","","","","","","","","","","","23569","","{""P0_Q0"":null,""P0_Q1"":{""violence"":3,""crime"":3,""drug"":3,""schools"":2,""opportunities"":1}}","","","","","","3","[]","","","","",""
"dot matrix survey3","survey","17","157876","0.0-17.0","","656776a7904ae00d6b91d1dd","6568a9f37ea0b5e4d8b4ca44","7","","","","","","","","","","","","38375","","{""P0_Q0"":null,""P0_Q1"":{""movein"":1,""moveout"":4,""shopping"":3,""walk"":2,""park"":2,""school"":1}}","","","","","","3","[]","","","","",""
"sliderTrial","html-slider-response","18","173056","0.0-18.0","","656776a7904ae00d6b91d1dd","6568a9f37ea0b5e4d8b4ca44","7","","","","","","","","","","","","15179","[""SV_PolicingMSA/MO_628/IMG_14_628.jpg"",""SV_PolicingMSA/MO_628/IMG_10_628.jpg"",""SV_PolicingMSA/MO_628/IMG_6_628.jpg"",""SV_PolicingMSA/MO_628/IMG_9_628.jpg"",""SV_PolicingMSA/MO_628/IMG_4_628.jpg"",""SV_PolicingMSA/MO_628/IMG_1_628.jpg"",""SV_PolicingMSA/MO_628/IMG_5_628.jpg"",""SV_PolicingMSA/MO_628/IMG_0_628.jpg""]","7","","","","","","3","","4","[""./rc_img/cop_condGroup_15_CommunitySafety_autoscaled.png"",""./rc_img/cop_condGroup_15_SafeStreets_autoscaled.png""]","7","",""
"sliderTrial","html-slider-response","19","182035","0.0-19.0","","656776a7904ae00d6b91d1dd","6568a9f37ea0b5e4d8b4ca44","7","","","","","","","","","","","","8978","[""SV_PolicingMSA/MO_628/IMG_14_628.jpg"",""SV_PolicingMSA/MO_628/IMG_10_628.jpg"",""SV_PolicingMSA/MO_628/IMG_6_628.jpg"",""SV_PolicingMSA/MO_628/IMG_9_628.jpg"",""SV_PolicingMSA/MO_628/IMG_4_628.jpg"",""SV_PolicingMSA/MO_628/IMG_1_628.jpg"",""SV_PolicingMSA/MO_628/IMG_5_628.jpg"",""SV_PolicingMSA/MO_628/IMG_0_628.jpg""]","7","","","","","","3","","4","[""./rc_img/cop_condGroup_16_SafeStreets_autoscaled.png"",""./rc_img/cop_condGroup_16_CommunitySafety_autoscaled.png""]","1","",""
"sliderTrial","html-slider-response","20","188818","0.0-20.0","","656776a7904ae00d6b91d1dd","6568a9f37ea0b5e4d8b4ca44","7","","","","","","","","","","","","6781","[""SV_PolicingMSA/MO_628/IMG_14_628.jpg"",""SV_PolicingMSA/MO_628/IMG_10_628.jpg"",""SV_PolicingMSA/MO_628/IMG_6_628.jpg"",""SV_PolicingMSA/MO_628/IMG_9_628.jpg"",""SV_PolicingMSA/MO_628/IMG_4_628.jpg"",""SV_PolicingMSA/MO_628/IMG_1_628.jpg"",""SV_PolicingMSA/MO_628/IMG_5_628.jpg"",""SV_PolicingMSA/MO_628/IMG_0_628.jpg""]","1","","","","","","3","","4","[""./rc_img/cop_condGroup_2_SafeStreets_autoscaled.png"",""./rc_img/cop_condGroup_2_CommunitySafety_autoscaled.png""]","7","",""
"sliderTrial","html-slider-response","21","196152","0.0-21.0","","656776a7904ae00d6b91d1dd","6568a9f37ea0b5e4d8b4ca44","7","","","","","","","","","","","","7333","[""SV_PolicingMSA/MO_628/IMG_14_628.jpg"",""SV_PolicingMSA/MO_628/IMG_10_628.jpg"",""SV_PolicingMSA/MO_628/IMG_6_628.jpg"",""SV_PolicingMSA/MO_628/IMG_9_628.jpg"",""SV_PolicingMSA/MO_628/IMG_4_628.jpg"",""SV_PolicingMSA/MO_628/IMG_1_628.jpg"",""SV_PolicingMSA/MO_628/IMG_5_628.jpg"",""SV_PolicingMSA/MO_628/IMG_0_628.jpg""]","1","","","","","","3","","4","[""./rc_img/cop_condGroup_14_SafeStreets_autoscaled.png"",""./rc_img/cop_condGroup_14_CommunitySafety_autoscaled.png""]","7","",""
"sliderTrial","html-slider-response","22","199372","0.0-22.0","","656776a7904ae00d6b91d1dd","6568a9f37ea0b5e4d8b4ca44","7","","","","","","","","","","","","3219","[""SV_PolicingMSA/MO_628/IMG_14_628.jpg"",""SV_PolicingMSA/MO_628/IMG_10_628.jpg"",""SV_PolicingMSA/MO_628/IMG_6_628.jpg"",""SV_PolicingMSA/MO_628/IMG_9_628.jpg"",""SV_PolicingMSA/MO_628/IMG_4_628.jpg"",""SV_PolicingMSA/MO_628/IMG_1_628.jpg"",""SV_PolicingMSA/MO_628/IMG_5_628.jpg"",""SV_PolicingMSA/MO_628/IMG_0_628.jpg""]","1","","","","","","3","","4","[""./rc_img/cop_condGroup_1_SafeStreets_autoscaled.png"",""./rc_img/cop_condGroup_1_CommunitySafety_autoscaled.png""]","7","",""
"before_SVSlide_prompt","html-button-response","23","200902","0.0-23.0","","656776a7904ae00d6b91d1dd","6568a9f37ea0b5e4d8b4ca44","7","","","","","","","","","","","","1529","Click [Next] to see the next neighborhood!","0","","","","","","","","","","","",""
"street view slide show","image-button-response","24","201908","0.0-24.0","","656776a7904ae00d6b91d1dd","6568a9f37ea0b5e4d8b4ca44","7","","","","","","","","","","","","null","stimulus/SV_PolicingMSA/MO_982/IMG_0_982.jpg","null","","","","","","2","","","","","",""
"street view slide show","image-button-response","25","202918","0.0-25.0","","656776a7904ae00d6b91d1dd","6568a9f37ea0b5e4d8b4ca44","7","","","","","","","","","","","","null","stimulus/SV_PolicingMSA/MO_982/IMG_12_982.jpg","null","","","","","","2","","","","","",""
"street view slide show","image-button-response","26","203934","0.0-26.0","","656776a7904ae00d6b91d1dd","6568a9f37ea0b5e4d8b4ca44","7","","","","","","","","","","","","null","stimulus/SV_PolicingMSA/MO_982/IMG_10_982.jpg","null","","","","","","2","","","","","",""
"street view slide show","image-button-response","27","204938","0.0-27.0","","656776a7904ae00d6b91d1dd","6568a9f37ea0b5e4d8b4ca44","7","","","","","","","","","","","","null","stimulus/SV_PolicingMSA/MO_982/IMG_7_982.jpg","null","","","","","","2","","","","","",""
"street view slide show","image-button-response","28","205945","0.0-28.0","","656776a7904ae00d6b91d1dd","6568a9f37ea0b5e4d8b4ca44","7","","","","","","","","","","","","null","stimulus/SV_PolicingMSA/MO_982/IMG_14_982.jpg","null","","","","","","2","","","","","",""
"street view slide show","image-button-response","29","206952","0.0-29.0","","656776a7904ae00d6b91d1dd","6568a9f37ea0b5e4d8b4ca44","7","","","","","","","","","","","","null","stimulus/SV_PolicingMSA/MO_982/IMG_13_982.jpg","null","","","","","","2","","","","","",""
"street view slide show","image-button-response","30","207957","0.0-30.0","","656776a7904ae00d6b91d1dd","6568a9f37ea0b5e4d8b4ca44","7","","","","","","","","","","","","null","stimulus/SV_PolicingMSA/MO_982/IMG_8_982.jpg","null","","","","","","2","","","","","",""
"street view slide show","image-button-response","31","208970","0.0-31.0","","656776a7904ae00d6b91d1dd","6568a9f37ea0b5e4d8b4ca44","7","","","","","","","","","","","","null","stimulus/SV_PolicingMSA/MO_982/IMG_2_982.jpg","null","","","","","","2","","","","","",""
"dot matrix survey1","survey","32","228539","0.0-32.0","","656776a7904ae00d6b91d1dd","6568a9f37ea0b5e4d8b4ca44","7","","","","","","","","","","","","19559","","{""P0_Q0"":null,""P0_Q1"":{""wealthy"":1,""safe"":2,""walkable"":3,""traditional"":4,""diverse"":2}}","","","","","","2","[]","","","","",""
"dot matrix survey2","survey","33","247039","0.0-33.0","","656776a7904ae00d6b91d1dd","6568a9f37ea0b5e4d8b4ca44","7","","","","","","","","","","","","18495","","{""P0_Q0"":null,""P0_Q1"":{""violence"":2,""crime"":1,""drug"":2,""schools"":2,""opportunities"":2}}","","","","","","2","[]","","","","",""
"dot matrix survey3","survey","34","268609","0.0-34.0","","656776a7904ae00d6b91d1dd","6568a9f37ea0b5e4d8b4ca44","7","","","","","","","","","","","","21564","","{""P0_Q0"":null,""P0_Q1"":{""movein"":2,""moveout"":3,""shopping"":4,""walk"":2,""park"":3,""school"":3}}","","","","","","2","[]","","","","",""
"sliderTrial","html-slider-response","35","275004","0.0-35.0","","656776a7904ae00d6b91d1dd","6568a9f37ea0b5e4d8b4ca44","7","","","","","","","","","","","","6394","[""SV_PolicingMSA/MO_982/IMG_0_982.jpg"",""SV_PolicingMSA/MO_982/IMG_12_982.jpg"",""SV_PolicingMSA/MO_982/IMG_10_982.jpg"",""SV_PolicingMSA/MO_982/IMG_7_982.jpg"",""SV_PolicingMSA/MO_982/IMG_14_982.jpg"",""SV_PolicingMSA/MO_982/IMG_13_982.jpg"",""SV_PolicingMSA/MO_982/IMG_8_982.jpg"",""SV_PolicingMSA/MO_982/IMG_2_982.jpg""]","1","","","","","","2","","4","[""./rc_img/cop_condGroup_19_SafeStreets_autoscaled.png"",""./rc_img/cop_condGroup_19_CommunitySafety_autoscaled.png""]","7","",""
"sliderTrial","html-slider-response","36","279788","0.0-36.0","","656776a7904ae00d6b91d1dd","6568a9f37ea0b5e4d8b4ca44","7","","","","","","","","","","","","4783","[""SV_PolicingMSA/MO_982/IMG_0_982.jpg"",""SV_PolicingMSA/MO_982/IMG_12_982.jpg"",""SV_PolicingMSA/MO_982/IMG_10_982.jpg"",""SV_PolicingMSA/MO_982/IMG_7_982.jpg"",""SV_PolicingMSA/MO_982/IMG_14_982.jpg"",""SV_PolicingMSA/MO_982/IMG_13_982.jpg"",""SV_PolicingMSA/MO_982/IMG_8_982.jpg"",""SV_PolicingMSA/MO_982/IMG_2_982.jpg""]","5","","","","","","2","","4","[""./rc_img/cop_condGroup_17_SafeStreets_autoscaled.png"",""./rc_img/cop_condGroup_17_CommunitySafety_autoscaled.png""]","3","",""
"sliderTrial","html-slider-response","37","282626","0.0-37.0","","656776a7904ae00d6b91d1dd","6568a9f37ea0b5e4d8b4ca44","7","","","","","","","","","","","","2837","[""SV_PolicingMSA/MO_982/IMG_0_982.jpg"",""SV_PolicingMSA/MO_982/IMG_12_982.jpg"",""SV_PolicingMSA/MO_982/IMG_10_982.jpg"",""SV_PolicingMSA/MO_982/IMG_7_982.jpg"",""SV_PolicingMSA/MO_982/IMG_14_982.jpg"",""SV_PolicingMSA/MO_982/IMG_13_982.jpg"",""SV_PolicingMSA/MO_982/IMG_8_982.jpg"",""SV_PolicingMSA/MO_982/IMG_2_982.jpg""]","3","","","","","","2","","4","[""./rc_img/cop_condGroup_9_CommunitySafety_autoscaled.png"",""./rc_img/cop_condGroup_9_SafeStreets_autoscaled.png""]","3","",""
"sliderTrial","html-slider-response","38","286560","0.0-38.0","","656776a7904ae00d6b91d1dd","6568a9f37ea0b5e4d8b4ca44","7","","","","","","","","","","","","3933","[""SV_PolicingMSA/MO_982/IMG_0_982.jpg"",""SV_PolicingMSA/MO_982/IMG_12_982.jpg"",""SV_PolicingMSA/MO_982/IMG_10_982.jpg"",""SV_PolicingMSA/MO_982/IMG_7_982.jpg"",""SV_PolicingMSA/MO_982/IMG_14_982.jpg"",""SV_PolicingMSA/MO_982/IMG_13_982.jpg"",""SV_PolicingMSA/MO_982/IMG_8_982.jpg"",""SV_PolicingMSA/MO_982/IMG_2_982.jpg""]","3","","","","","","2","","4","[""./rc_img/cop_condGroup_3_CommunitySafety_autoscaled.png"",""./rc_img/cop_condGroup_3_SafeStreets_autoscaled.png""]","3","",""
"sliderTrial","html-slider-response","39","289578","0.0-39.0","","656776a7904ae00d6b91d1dd","6568a9f37ea0b5e4d8b4ca44","7","","","","","","","","","","","","3017","[""SV_PolicingMSA/MO_982/IMG_0_982.jpg"",""SV_PolicingMSA/MO_982/IMG_12_982.jpg"",""SV_PolicingMSA/MO_982/IMG_10_982.jpg"",""SV_PolicingMSA/MO_982/IMG_7_982.jpg"",""SV_PolicingMSA/MO_982/IMG_14_982.jpg"",""SV_PolicingMSA/MO_982/IMG_13_982.jpg"",""SV_PolicingMSA/MO_982/IMG_8_982.jpg"",""SV_PolicingMSA/MO_982/IMG_2_982.jpg""]","3","","","","","","2","","4","[""./rc_img/cop_condGroup_11_CommunitySafety_autoscaled.png"",""./rc_img/cop_condGroup_11_SafeStreets_autoscaled.png""]","3","",""
"before_SVSlide_prompt","html-button-response","40","290954","0.0-40.0","","656776a7904ae00d6b91d1dd","6568a9f37ea0b5e4d8b4ca44","7","","","","","","","","","","","","1375","Click [Next] to see the next neighborhood!","0","","","","","","","","","","","",""
"street view slide show","image-button-response","41","291964","0.0-41.0","","656776a7904ae00d6b91d1dd","6568a9f37ea0b5e4d8b4ca44","7","","","","","","","","","","","","null","stimulus/SV_PolicingMSA/MO_1278/IMG_6_1278.jpg","null","","","","","","5","","","","","",""
"street view slide show","image-button-response","42","292968","0.0-42.0","","656776a7904ae00d6b91d1dd","6568a9f37ea0b5e4d8b4ca44","7","","","","","","","","","","","","null","stimulus/SV_PolicingMSA/MO_1278/IMG_0_1278.jpg","null","","","","","","5","","","","","",""
"street view slide show","image-button-response","43","293972","0.0-43.0","","656776a7904ae00d6b91d1dd","6568a9f37ea0b5e4d8b4ca44","7","","","","","","","","","","","","null","stimulus/SV_PolicingMSA/MO_1278/IMG_14_1278.jpg","null","","","","","","5","","","","","",""
"street view slide show","image-button-response","44","294986","0.0-44.0","","656776a7904ae00d6b91d1dd","6568a9f37ea0b5e4d8b4ca44","7","","","","","","","","","","","","null","stimulus/SV_PolicingMSA/MO_1278/IMG_4_1278.jpg","null","","","","","","5","","","","","",""
"street view slide show","image-button-response","45","296003","0.0-45.0","","656776a7904ae00d6b91d1dd","6568a9f37ea0b5e4d8b4ca44","7","","","","","","","","","","","","null","stimulus/SV_PolicingMSA/MO_1278/IMG_9_1278.jpg","null","","","","","","5","","","","","",""
"street view slide show","image-button-response","46","297014","0.0-46.0","","656776a7904ae00d6b91d1dd","6568a9f37ea0b5e4d8b4ca44","7","","","","","","","","","","","","null","stimulus/SV_PolicingMSA/MO_1278/IMG_1_1278.jpg","null","","","","","","5","","","","","",""
"street view slide show","image-button-response","47","298022","0.0-47.0","","656776a7904ae00d6b91d1dd","6568a9f37ea0b5e4d8b4ca44","7","","","","","","","","","","","","null","stimulus/SV_PolicingMSA/MO_1278/IMG_2_1278.jpg","null","","","","","","5","","","","","",""
"street view slide show","image-button-response","48","299027","0.0-48.0","","656776a7904ae00d6b91d1dd","6568a9f37ea0b5e4d8b4ca44","7","","","","","","","","","","","","null","stimulus/SV_PolicingMSA/MO_1278/IMG_12_1278.jpg","null","","","","","","5","","","","","",""
"dot matrix survey1","survey","49","315180","0.0-49.0","","656776a7904ae00d6b91d1dd","6568a9f37ea0b5e4d8b4ca44","7","","","","","","","","","","","","16144","","{""P0_Q0"":null,""P0_Q1"":{""wealthy"":2,""safe"":3,""walkable"":4,""traditional"":3,""diverse"":2}}","","","","","","5","[]","","","","",""
"dot matrix survey2","survey","50","327082","0.0-50.0","","656776a7904ae00d6b91d1dd","6568a9f37ea0b5e4d8b4ca44","7","","","","","","","","","","","","11898","","{""P0_Q0"":null,""P0_Q1"":{""violence"":1,""crime"":1,""drug"":2,""schools"":2,""opportunities"":3}}","","","","","","5","[]","","","","",""
"dot matrix survey3","survey","51","342370","0.0-51.0","","656776a7904ae00d6b91d1dd","6568a9f37ea0b5e4d8b4ca44","7","","","","","","","","","","","","15282","","{""P0_Q0"":null,""P0_Q1"":{""movein"":4,""moveout"":1,""shopping"":4,""walk"":3,""park"":4,""school"":4}}","","","","","","5","[]","","","","",""
"sliderTrial","html-slider-response","52","345842","0.0-52.0","","656776a7904ae00d6b91d1dd","6568a9f37ea0b5e4d8b4ca44","7","","","","","","","","","","","","3471","[""SV_PolicingMSA/MO_1278/IMG_6_1278.jpg"",""SV_PolicingMSA/MO_1278/IMG_0_1278.jpg"",""SV_PolicingMSA/MO_1278/IMG_14_1278.jpg"",""SV_PolicingMSA/MO_1278/IMG_4_1278.jpg"",""SV_PolicingMSA/MO_1278/IMG_9_1278.jpg"",""SV_PolicingMSA/MO_1278/IMG_1_1278.jpg"",""SV_PolicingMSA/MO_1278/IMG_2_1278.jpg"",""SV_PolicingMSA/MO_1278/IMG_12_1278.jpg""]","1","","","","","","5","","4","[""./rc_img/cop_condGroup_15_CommunitySafety_autoscaled.png"",""./rc_img/cop_condGroup_15_SafeStreets_autoscaled.png""]","1","",""
"sliderTrial","html-slider-response","53","348850","0.0-53.0","","656776a7904ae00d6b91d1dd","6568a9f37ea0b5e4d8b4ca44","7","","","","","","","","","","","","3007","[""SV_PolicingMSA/MO_1278/IMG_6_1278.jpg"",""SV_PolicingMSA/MO_1278/IMG_0_1278.jpg"",""SV_PolicingMSA/MO_1278/IMG_14_1278.jpg"",""SV_PolicingMSA/MO_1278/IMG_4_1278.jpg"",""SV_PolicingMSA/MO_1278/IMG_9_1278.jpg"",""SV_PolicingMSA/MO_1278/IMG_1_1278.jpg"",""SV_PolicingMSA/MO_1278/IMG_2_1278.jpg"",""SV_PolicingMSA/MO_1278/IMG_12_1278.jpg""]","7","","","","","","5","","4","[""./rc_img/cop_condGroup_16_SafeStreets_autoscaled.png"",""./rc_img/cop_condGroup_16_CommunitySafety_autoscaled.png""]","1","",""
"sliderTrial","html-slider-response","54","352350","0.0-54.0","","656776a7904ae00d6b91d1dd","6568a9f37ea0b5e4d8b4ca44","7","","","","","","","","","","","","3499","[""SV_PolicingMSA/MO_1278/IMG_6_1278.jpg"",""SV_PolicingMSA/MO_1278/IMG_0_1278.jpg"",""SV_PolicingMSA/MO_1278/IMG_14_1278.jpg"",""SV_PolicingMSA/MO_1278/IMG_4_1278.jpg"",""SV_PolicingMSA/MO_1278/IMG_9_1278.jpg"",""SV_PolicingMSA/MO_1278/IMG_1_1278.jpg"",""SV_PolicingMSA/MO_1278/IMG_2_1278.jpg"",""SV_PolicingMSA/MO_1278/IMG_12_1278.jpg""]","7","","","","","","5","","4","[""./rc_img/cop_condGroup_2_SafeStreets_autoscaled.png"",""./rc_img/cop_condGroup_2_CommunitySafety_autoscaled.png""]","1","",""
"sliderTrial","html-slider-response","55","355002","0.0-55.0","","656776a7904ae00d6b91d1dd","6568a9f37ea0b5e4d8b4ca44","7","","","","","","","","","","","","2651","[""SV_PolicingMSA/MO_1278/IMG_6_1278.jpg"",""SV_PolicingMSA/MO_1278/IMG_0_1278.jpg"",""SV_PolicingMSA/MO_1278/IMG_14_1278.jpg"",""SV_PolicingMSA/MO_1278/IMG_4_1278.jpg"",""SV_PolicingMSA/MO_1278/IMG_9_1278.jpg"",""SV_PolicingMSA/MO_1278/IMG_1_1278.jpg"",""SV_PolicingMSA/MO_1278/IMG_2_1278.jpg"",""SV_PolicingMSA/MO_1278/IMG_12_1278.jpg""]","7","","","","","","5","","4","[""./rc_img/cop_condGroup_14_SafeStreets_autoscaled.png"",""./rc_img/cop_condGroup_14_CommunitySafety_autoscaled.png""]","1","",""
"sliderTrial","html-slider-response","56","357880","0.0-56.0","","656776a7904ae00d6b91d1dd","6568a9f37ea0b5e4d8b4ca44","7","","","","","","","","","","","","2877","[""SV_PolicingMSA/MO_1278/IMG_6_1278.jpg"",""SV_PolicingMSA/MO_1278/IMG_0_1278.jpg"",""SV_PolicingMSA/MO_1278/IMG_14_1278.jpg"",""SV_PolicingMSA/MO_1278/IMG_4_1278.jpg"",""SV_PolicingMSA/MO_1278/IMG_9_1278.jpg"",""SV_PolicingMSA/MO_1278/IMG_1_1278.jpg"",""SV_PolicingMSA/MO_1278/IMG_2_1278.jpg"",""SV_PolicingMSA/MO_1278/IMG_12_1278.jpg""]","7","","","","","","5","","4","[""./rc_img/cop_condGroup_1_SafeStreets_autoscaled.png"",""./rc_img/cop_condGroup_1_CommunitySafety_autoscaled.png""]","1","",""
"before_SVSlide_prompt","html-button-response","57","359226","0.0-57.0","","656776a7904ae00d6b91d1dd","6568a9f37ea0b5e4d8b4ca44","7","","","","","","","","","","","","1345","Click [Next] to see the next neighborhood!","0","","","","","","","","","","","",""
"street view slide show","image-button-response","58","360238","0.0-58.0","","656776a7904ae00d6b91d1dd","6568a9f37ea0b5e4d8b4ca44","7","","","","","","","","","","","","null","stimulus/SV_PolicingMSA/MO_1004/IMG_5_1004.jpg","null","","","","","","1","","","","","",""
"street view slide show","image-button-response","59","361247","0.0-59.0","","656776a7904ae00d6b91d1dd","6568a9f37ea0b5e4d8b4ca44","7","","","","","","","","","","","","null","stimulus/SV_PolicingMSA/MO_1004/IMG_3_1004.jpg","null","","","","","","1","","","","","",""
"street view slide show","image-button-response","60","362260","0.0-60.0","","656776a7904ae00d6b91d1dd","6568a9f37ea0b5e4d8b4ca44","7","","","","","","","","","","","","null","stimulus/SV_PolicingMSA/MO_1004/IMG_0_1004.jpg","null","","","","","","1","","","","","",""
"street view slide show","image-button-response","61","363276","0.0-61.0","","656776a7904ae00d6b91d1dd","6568a9f37ea0b5e4d8b4ca44","7","","","","","","","","","","","","null","stimulus/SV_PolicingMSA/MO_1004/IMG_14_1004.jpg","null","","","","","","1","","","","","",""
"street view slide show","image-button-response","62","364291","0.0-62.0","","656776a7904ae00d6b91d1dd","6568a9f37ea0b5e4d8b4ca44","7","","","","","","","","","","","","null","stimulus/SV_PolicingMSA/MO_1004/IMG_6_1004.jpg","null","","","","","","1","","","","","",""
"street view slide show","image-button-response","63","365306","0.0-63.0","","656776a7904ae00d6b91d1dd","6568a9f37ea0b5e4d8b4ca44","7","","","","","","","","","","","","null","stimulus/SV_PolicingMSA/MO_1004/IMG_9_1004.jpg","null","","","","","","1","","","","","",""
"street view slide show","image-button-response","64","366310","0.0-64.0","","656776a7904ae00d6b91d1dd","6568a9f37ea0b5e4d8b4ca44","7","","","","","","","","","","","","null","stimulus/SV_PolicingMSA/MO_1004/IMG_12_1004.jpg","null","","","","","","1","","","","","",""
"street view slide show","image-button-response","65","367311","0.0-65.0","","656776a7904ae00d6b91d1dd","6568a9f37ea0b5e4d8b4ca44","7","","","","","","","","","","","","null","stimulus/SV_PolicingMSA/MO_1004/IMG_1_1004.jpg","null","","","","","","1","","","","","",""
"dot matrix survey1","survey","66","381938","0.0-66.0","","656776a7904ae00d6b91d1dd","6568a9f37ea0b5e4d8b4ca44","7","","","","","","","","","","","","14617","","{""P0_Q0"":null,""P0_Q1"":{""wealthy"":1,""safe"":3,""walkable"":4,""traditional"":4,""diverse"":3}}","","","","","","1","[]","","","","",""
"dot matrix survey2","survey","67","392856","0.0-67.0","","656776a7904ae00d6b91d1dd","6568a9f37ea0b5e4d8b4ca44","7","","","","","","","","","","","","10914","","{""P0_Q0"":null,""P0_Q1"":{""violence"":1,""crime"":1,""drug"":2,""schools"":2,""opportunities"":2}}","","","","","","1","[]","","","","",""
"dot matrix survey3","survey","68","408014","0.0-68.0","","656776a7904ae00d6b91d1dd","6568a9f37ea0b5e4d8b4ca44","7","","","","","","","","","","","","15154","","{""P0_Q0"":null,""P0_Q1"":{""movein"":2,""moveout"":1,""shopping"":4,""walk"":2,""park"":3,""school"":3}}","","","","","","1","[]","","","","",""
"sliderTrial_attention","html-slider-response","69","418020","0.0-69.0","","656776a7904ae00d6b91d1dd","6568a9f37ea0b5e4d8b4ca44","7","","","","","","","","","","","","null","[""SV_PolicingMSA/MO_1004/IMG_5_1004.jpg"",""SV_PolicingMSA/MO_1004/IMG_3_1004.jpg"",""SV_PolicingMSA/MO_1004/IMG_0_1004.jpg"",""SV_PolicingMSA/MO_1004/IMG_14_1004.jpg"",""SV_PolicingMSA/MO_1004/IMG_6_1004.jpg"",""SV_PolicingMSA/MO_1004/IMG_9_1004.jpg"",""SV_PolicingMSA/MO_1004/IMG_12_1004.jpg"",""SV_PolicingMSA/MO_1004/IMG_1_1004.jpg""]","null","","","","","","1","","4","[""./assets/img/attnchk.png"",""./assets/img/attnchk.png""]","","true",""
"sliderTrial","html-slider-response","70","423530","0.0-70.0","","656776a7904ae00d6b91d1dd","6568a9f37ea0b5e4d8b4ca44","7","","","","","","","","","","","","5509","[""SV_PolicingMSA/MO_1004/IMG_5_1004.jpg"",""SV_PolicingMSA/MO_1004/IMG_3_1004.jpg"",""SV_PolicingMSA/MO_1004/IMG_0_1004.jpg"",""SV_PolicingMSA/MO_1004/IMG_14_1004.jpg"",""SV_PolicingMSA/MO_1004/IMG_6_1004.jpg"",""SV_PolicingMSA/MO_1004/IMG_9_1004.jpg"",""SV_PolicingMSA/MO_1004/IMG_12_1004.jpg"",""SV_PolicingMSA/MO_1004/IMG_1_1004.jpg""]","2","","","","","","1","","4","[""./rc_img/cop_condGroup_5_CommunitySafety_autoscaled.png"",""./rc_img/cop_condGroup_5_SafeStreets_autoscaled.png""]","2","",""
"sliderTrial","html-slider-response","71","427542","0.0-71.0","","656776a7904ae00d6b91d1dd","6568a9f37ea0b5e4d8b4ca44","7","","","","","","","","","","","","4011","[""SV_PolicingMSA/MO_1004/IMG_5_1004.jpg"",""SV_PolicingMSA/MO_1004/IMG_3_1004.jpg"",""SV_PolicingMSA/MO_1004/IMG_0_1004.jpg"",""SV_PolicingMSA/MO_1004/IMG_14_1004.jpg"",""SV_PolicingMSA/MO_1004/IMG_6_1004.jpg"",""SV_PolicingMSA/MO_1004/IMG_9_1004.jpg"",""SV_PolicingMSA/MO_1004/IMG_12_1004.jpg"",""SV_PolicingMSA/MO_1004/IMG_1_1004.jpg""]","2","","","","","","1","","4","[""./rc_img/cop_condGroup_18_CommunitySafety_autoscaled.png"",""./rc_img/cop_condGroup_18_SafeStreets_autoscaled.png""]","2","",""
"sliderTrial","html-slider-response","72","430452","0.0-72.0","","656776a7904ae00d6b91d1dd","6568a9f37ea0b5e4d8b4ca44","7","","","","","","","","","","","","2909","[""SV_PolicingMSA/MO_1004/IMG_5_1004.jpg"",""SV_PolicingMSA/MO_1004/IMG_3_1004.jpg"",""SV_PolicingMSA/MO_1004/IMG_0_1004.jpg"",""SV_PolicingMSA/MO_1004/IMG_14_1004.jpg"",""SV_PolicingMSA/MO_1004/IMG_6_1004.jpg"",""SV_PolicingMSA/MO_1004/IMG_9_1004.jpg"",""SV_PolicingMSA/MO_1004/IMG_12_1004.jpg"",""SV_PolicingMSA/MO_1004/IMG_1_1004.jpg""]","3","","","","","","1","","4","[""./rc_img/cop_condGroup_8_CommunitySafety_autoscaled.png"",""./rc_img/cop_condGroup_8_SafeStreets_autoscaled.png""]","3","",""
"sliderTrial","html-slider-response","73","433282","0.0-73.0","","656776a7904ae00d6b91d1dd","6568a9f37ea0b5e4d8b4ca44","7","","","","","","","","","","","","2829","[""SV_PolicingMSA/MO_1004/IMG_5_1004.jpg"",""SV_PolicingMSA/MO_1004/IMG_3_1004.jpg"",""SV_PolicingMSA/MO_1004/IMG_0_1004.jpg"",""SV_PolicingMSA/MO_1004/IMG_14_1004.jpg"",""SV_PolicingMSA/MO_1004/IMG_6_1004.jpg"",""SV_PolicingMSA/MO_1004/IMG_9_1004.jpg"",""SV_PolicingMSA/MO_1004/IMG_12_1004.jpg"",""SV_PolicingMSA/MO_1004/IMG_1_1004.jpg""]","5","","","","","","1","","4","[""./rc_img/cop_condGroup_6_SafeStreets_autoscaled.png"",""./rc_img/cop_condGroup_6_CommunitySafety_autoscaled.png""]","3","",""
"sliderTrial","html-slider-response","74","435732","0.0-74.0","","656776a7904ae00d6b91d1dd","6568a9f37ea0b5e4d8b4ca44","7","","","","","","","","","","","","2449","[""SV_PolicingMSA/MO_1004/IMG_5_1004.jpg"",""SV_PolicingMSA/MO_1004/IMG_3_1004.jpg"",""SV_PolicingMSA/MO_1004/IMG_0_1004.jpg"",""SV_PolicingMSA/MO_1004/IMG_14_1004.jpg"",""SV_PolicingMSA/MO_1004/IMG_6_1004.jpg"",""SV_PolicingMSA/MO_1004/IMG_9_1004.jpg"",""SV_PolicingMSA/MO_1004/IMG_12_1004.jpg"",""SV_PolicingMSA/MO_1004/IMG_1_1004.jpg""]","5","","","","","","1","","4","[""./rc_img/cop_condGroup_4_SafeStreets_autoscaled.png"",""./rc_img/cop_condGroup_4_CommunitySafety_autoscaled.png""]","3","",""
"half-way","html-button-response","75","451492","0.0-75.0","","656776a7904ae00d6b91d1dd","6568a9f37ea0b5e4d8b4ca44","7","","","","","","","","","","","","null","
    <h3>You are now half way through the study.</h3>
    <p>Please take a quick, 15-second break before you continue.</p>
    <img src='assets/img/countdown-15.gif'>
    <p>The study will automatically advance forward after the countdown is complete. <br> However, you may click ""Next"" to advance forward now if you wish.</p>
    ","null","","","","","","","","","","","",""
"before_SVSlide_prompt","html-button-response","76","454774","0.0-76.0","","656776a7904ae00d6b91d1dd","6568a9f37ea0b5e4d8b4ca44","7","","","","","","","","","","","","3281","Click [Next] to see the next neighborhood!","0","","","","","","","","","","","",""
"street view slide show","image-button-response","77","455785","0.0-77.0","","656776a7904ae00d6b91d1dd","6568a9f37ea0b5e4d8b4ca44","7","","","","","","","","","","","","null","stimulus/SV_PolicingMSA/MO_60/IMG_7_60.jpg","null","","","","","","4","","","","","",""
"street view slide show","image-button-response","78","456794","0.0-78.0","","656776a7904ae00d6b91d1dd","6568a9f37ea0b5e4d8b4ca44","7","","","","","","","","","","","","null","stimulus/SV_PolicingMSA/MO_60/IMG_10_60.jpg","null","","","","","","4","","","","","",""
"street view slide show","image-button-response","79","457800","0.0-79.0","","656776a7904ae00d6b91d1dd","6568a9f37ea0b5e4d8b4ca44","7","","","","","","","","","","","","null","stimulus/SV_PolicingMSA/MO_60/IMG_14_60.jpg","null","","","","","","4","","","","","",""
"street view slide show","image-button-response","80","458803","0.0-80.0","","656776a7904ae00d6b91d1dd","6568a9f37ea0b5e4d8b4ca44","7","","","","","","","","","","","","null","stimulus/SV_PolicingMSA/MO_60/IMG_3_60.jpg","null","","","","","","4","","","","","",""
"street view slide show","image-button-response","81","459816","0.0-81.0","","656776a7904ae00d6b91d1dd","6568a9f37ea0b5e4d8b4ca44","7","","","","","","","","","","","","null","stimulus/SV_PolicingMSA/MO_60/IMG_0_60.jpg","null","","","","","","4","","","","","",""
"street view slide show","image-button-response","82","460821","0.0-82.0","","656776a7904ae00d6b91d1dd","6568a9f37ea0b5e4d8b4ca44","7","","","","","","","","","","","","null","stimulus/SV_PolicingMSA/MO_60/IMG_12_60.jpg","null","","","","","","4","","","","","",""
"street view slide show","image-button-response","83","461823","0.0-83.0","","656776a7904ae00d6b91d1dd","6568a9f37ea0b5e4d8b4ca44","7","","","","","","","","","","","","null","stimulus/SV_PolicingMSA/MO_60/IMG_5_60.jpg","null","","","","","","4","","","","","",""
"street view slide show","image-button-response","84","462836","0.0-84.0","","656776a7904ae00d6b91d1dd","6568a9f37ea0b5e4d8b4ca44","7","","","","","","","","","","","","null","stimulus/SV_PolicingMSA/MO_60/IMG_13_60.jpg","null","","","","","","4","","","","","",""
"dot matrix survey1","survey","85","482215","0.0-85.0","","656776a7904ae00d6b91d1dd","6568a9f37ea0b5e4d8b4ca44","7","","","","","","","","","","","","19370","","{""P0_Q0"":null,""P0_Q1"":{""wealthy"":3,""safe"":4,""walkable"":4,""traditional"":4,""diverse"":1}}","","","","","","4","[]","","","","",""
"dot matrix survey2","survey","86","490776","0.0-86.0","","656776a7904ae00d6b91d1dd","6568a9f37ea0b5e4d8b4ca44","7","","","","","","","","","","","","8558","","{""P0_Q0"":null,""P0_Q1"":{""violence"":1,""crime"":1,""drug"":2,""schools"":3,""opportunities"":3}}","","","","","","4","[]","","","","",""
"dot matrix survey3","survey","87","503181","0.0-87.0","","656776a7904ae00d6b91d1dd","6568a9f37ea0b5e4d8b4ca44","7","","","","","","","","","","","","12400","","{""P0_Q0"":null,""P0_Q1"":{""movein"":4,""moveout"":0,""shopping"":4,""walk"":3,""park"":4,""school"":4}}","","","","","","4","[]","","","","",""
"sliderTrial","html-slider-response","88","507032","0.0-88.0","","656776a7904ae00d6b91d1dd","6568a9f37ea0b5e4d8b4ca44","7","","","","","","","","","","","","3850","[""SV_PolicingMSA/MO_60/IMG_7_60.jpg"",""SV_PolicingMSA/MO_60/IMG_10_60.jpg"",""SV_PolicingMSA/MO_60/IMG_14_60.jpg"",""SV_PolicingMSA/MO_60/IMG_3_60.jpg"",""SV_PolicingMSA/MO_60/IMG_0_60.jpg"",""SV_PolicingMSA/MO_60/IMG_12_60.jpg"",""SV_PolicingMSA/MO_60/IMG_5_60.jpg"",""SV_PolicingMSA/MO_60/IMG_13_60.jpg""]","7","","","","","","4","","4","[""./rc_img/cop_condGroup_19_SafeStreets_autoscaled.png"",""./rc_img/cop_condGroup_19_CommunitySafety_autoscaled.png""]","1","",""
"sliderTrial","html-slider-response","89","511052","0.0-89.0","","656776a7904ae00d6b91d1dd","6568a9f37ea0b5e4d8b4ca44","7","","","","","","","","","","","","4019","[""SV_PolicingMSA/MO_60/IMG_7_60.jpg"",""SV_PolicingMSA/MO_60/IMG_10_60.jpg"",""SV_PolicingMSA/MO_60/IMG_14_60.jpg"",""SV_PolicingMSA/MO_60/IMG_3_60.jpg"",""SV_PolicingMSA/MO_60/IMG_0_60.jpg"",""SV_PolicingMSA/MO_60/IMG_12_60.jpg"",""SV_PolicingMSA/MO_60/IMG_5_60.jpg"",""SV_PolicingMSA/MO_60/IMG_13_60.jpg""]","7","","","","","","4","","4","[""./rc_img/cop_condGroup_17_SafeStreets_autoscaled.png"",""./rc_img/cop_condGroup_17_CommunitySafety_autoscaled.png""]","1","",""
"sliderTrial","html-slider-response","90","514374","0.0-90.0","","656776a7904ae00d6b91d1dd","6568a9f37ea0b5e4d8b4ca44","7","","","","","","","","","","","","3321","[""SV_PolicingMSA/MO_60/IMG_7_60.jpg"",""SV_PolicingMSA/MO_60/IMG_10_60.jpg"",""SV_PolicingMSA/MO_60/IMG_14_60.jpg"",""SV_PolicingMSA/MO_60/IMG_3_60.jpg"",""SV_PolicingMSA/MO_60/IMG_0_60.jpg"",""SV_PolicingMSA/MO_60/IMG_12_60.jpg"",""SV_PolicingMSA/MO_60/IMG_5_60.jpg"",""SV_PolicingMSA/MO_60/IMG_13_60.jpg""]","1","","","","","","4","","4","[""./rc_img/cop_condGroup_9_CommunitySafety_autoscaled.png"",""./rc_img/cop_condGroup_9_SafeStreets_autoscaled.png""]","1","",""
"sliderTrial","html-slider-response","91","517498","0.0-91.0","","656776a7904ae00d6b91d1dd","6568a9f37ea0b5e4d8b4ca44","7","","","","","","","","","","","","3123","[""SV_PolicingMSA/MO_60/IMG_7_60.jpg"",""SV_PolicingMSA/MO_60/IMG_10_60.jpg"",""SV_PolicingMSA/MO_60/IMG_14_60.jpg"",""SV_PolicingMSA/MO_60/IMG_3_60.jpg"",""SV_PolicingMSA/MO_60/IMG_0_60.jpg"",""SV_PolicingMSA/MO_60/IMG_12_60.jpg"",""SV_PolicingMSA/MO_60/IMG_5_60.jpg"",""SV_PolicingMSA/MO_60/IMG_13_60.jpg""]","2","","","","","","4","","4","[""./rc_img/cop_condGroup_3_CommunitySafety_autoscaled.png"",""./rc_img/cop_condGroup_3_SafeStreets_autoscaled.png""]","2","",""
"sliderTrial","html-slider-response","92","521604","0.0-92.0","","656776a7904ae00d6b91d1dd","6568a9f37ea0b5e4d8b4ca44","7","","","","","","","","","","","","4105","[""SV_PolicingMSA/MO_60/IMG_7_60.jpg"",""SV_PolicingMSA/MO_60/IMG_10_60.jpg"",""SV_PolicingMSA/MO_60/IMG_14_60.jpg"",""SV_PolicingMSA/MO_60/IMG_3_60.jpg"",""SV_PolicingMSA/MO_60/IMG_0_60.jpg"",""SV_PolicingMSA/MO_60/IMG_12_60.jpg"",""SV_PolicingMSA/MO_60/IMG_5_60.jpg"",""SV_PolicingMSA/MO_60/IMG_13_60.jpg""]","2","","","","","","4","","4","[""./rc_img/cop_condGroup_11_CommunitySafety_autoscaled.png"",""./rc_img/cop_condGroup_11_SafeStreets_autoscaled.png""]","2","",""
"before_SVSlide_prompt","html-button-response","93","522888","0.0-93.0","","656776a7904ae00d6b91d1dd","6568a9f37ea0b5e4d8b4ca44","7","","","","","","","","","","","","1283","Click [Next] to see the next neighborhood!","0","","","","","","","","","","","",""
"street view slide show","image-button-response","94","523889","0.0-94.0","","656776a7904ae00d6b91d1dd","6568a9f37ea0b5e4d8b4ca44","7","","","","","","","","","","","","null","stimulus/SV_PolicingMSA/MO_589/IMG_13_589.jpg","null","","","","","","2","","","","","",""
"street view slide show","image-button-response","95","524897","0.0-95.0","","656776a7904ae00d6b91d1dd","6568a9f37ea0b5e4d8b4ca44","7","","","","","","","","","","","","null","stimulus/SV_PolicingMSA/MO_589/IMG_8_589.jpg","null","","","","","","2","","","","","",""
"street view slide show","image-button-response","96","525902","0.0-96.0","","656776a7904ae00d6b91d1dd","6568a9f37ea0b5e4d8b4ca44","7","","","","","","","","","","","","null","stimulus/SV_PolicingMSA/MO_589/IMG_4_589.jpg","null","","","","","","2","","","","","",""
"street view slide show","image-button-response","97","526912","0.0-97.0","","656776a7904ae00d6b91d1dd","6568a9f37ea0b5e4d8b4ca44","7","","","","","","","","","","","","null","stimulus/SV_PolicingMSA/MO_589/IMG_1_589.jpg","null","","","","","","2","","","","","",""
"street view slide show","image-button-response","98","527923","0.0-98.0","","656776a7904ae00d6b91d1dd","6568a9f37ea0b5e4d8b4ca44","7","","","","","","","","","","","","null","stimulus/SV_PolicingMSA/MO_589/IMG_10_589.jpg","null","","","","","","2","","","","","",""
"street view slide show","image-button-response","99","528929","0.0-99.0","","656776a7904ae00d6b91d1dd","6568a9f37ea0b5e4d8b4ca44","7","","","","","","","","","","","","null","stimulus/SV_PolicingMSA/MO_589/IMG_9_589.jpg","null","","","","","","2","","","","","",""
"street view slide show","image-button-response","100","529936","0.0-100.0","","656776a7904ae00d6b91d1dd","6568a9f37ea0b5e4d8b4ca44","7","","","","","","","","","","","","null","stimulus/SV_PolicingMSA/MO_589/IMG_0_589.jpg","null","","","","","","2","","","","","",""
"street view slide show","image-button-response","101","530939","0.0-101.0","","656776a7904ae00d6b91d1dd","6568a9f37ea0b5e4d8b4ca44","7","","","","","","","","","","","","null","stimulus/SV_PolicingMSA/MO_589/IMG_12_589.jpg","null","","","","","","2","","","","","",""
"dot matrix survey1","survey","102","543126","0.0-102.0","","656776a7904ae00d6b91d1dd","6568a9f37ea0b5e4d8b4ca44","7","","","","","","","","","","","","12178","","{""P0_Q0"":null,""P0_Q1"":{""wealthy"":3,""safe"":4,""walkable"":4,""traditional"":3,""diverse"":2}}","","","","","","2","[]","","","","",""
"dot matrix survey2","survey","103","556439","0.0-103.0","","656776a7904ae00d6b91d1dd","6568a9f37ea0b5e4d8b4ca44","7","","","","","","","","","","","","13308","","{""P0_Q0"":null,""P0_Q1"":{""violence"":0,""crime"":0,""drug"":1,""schools"":4,""opportunities"":3}}","","","","","","2","[]","","","","",""
"dot matrix survey3","survey","104","570132","0.0-104.0","","656776a7904ae00d6b91d1dd","6568a9f37ea0b5e4d8b4ca44","7","","","","","","","","","","","","13690","","{""P0_Q0"":null,""P0_Q1"":{""movein"":4,""moveout"":0,""shopping"":4,""walk"":4,""park"":4,""school"":4}}","","","","","","2","[]","","","","",""
"sliderTrial","html-slider-response","105","573548","0.0-105.0","","656776a7904ae00d6b91d1dd","6568a9f37ea0b5e4d8b4ca44","7","","","","","","","","","","","","3415","[""SV_PolicingMSA/MO_589/IMG_13_589.jpg"",""SV_PolicingMSA/MO_589/IMG_8_589.jpg"",""SV_PolicingMSA/MO_589/IMG_4_589.jpg"",""SV_PolicingMSA/MO_589/IMG_1_589.jpg"",""SV_PolicingMSA/MO_589/IMG_10_589.jpg"",""SV_PolicingMSA/MO_589/IMG_9_589.jpg"",""SV_PolicingMSA/MO_589/IMG_0_589.jpg"",""SV_PolicingMSA/MO_589/IMG_12_589.jpg""]","1","","","","","","2","","4","[""./rc_img/cop_condGroup_12_CommunitySafety_autoscaled.png"",""./rc_img/cop_condGroup_12_SafeStreets_autoscaled.png""]","1","",""
"sliderTrial","html-slider-response","106","577460","0.0-106.0","","656776a7904ae00d6b91d1dd","6568a9f37ea0b5e4d8b4ca44","7","","","","","","","","","","","","3911","[""SV_PolicingMSA/MO_589/IMG_13_589.jpg"",""SV_PolicingMSA/MO_589/IMG_8_589.jpg"",""SV_PolicingMSA/MO_589/IMG_4_589.jpg"",""SV_PolicingMSA/MO_589/IMG_1_589.jpg"",""SV_PolicingMSA/MO_589/IMG_10_589.jpg"",""SV_PolicingMSA/MO_589/IMG_9_589.jpg"",""SV_PolicingMSA/MO_589/IMG_0_589.jpg"",""SV_PolicingMSA/MO_589/IMG_12_589.jpg""]","7","","","","","","2","","4","[""./rc_img/cop_condGroup_13_SafeStreets_autoscaled.png"",""./rc_img/cop_condGroup_13_CommunitySafety_autoscaled.png""]","1","",""
"sliderTrial","html-slider-response","107","581058","0.0-107.0","","656776a7904ae00d6b91d1dd","6568a9f37ea0b5e4d8b4ca44","7","","","","","","","","","","","","3597","[""SV_PolicingMSA/MO_589/IMG_13_589.jpg"",""SV_PolicingMSA/MO_589/IMG_8_589.jpg"",""SV_PolicingMSA/MO_589/IMG_4_589.jpg"",""SV_PolicingMSA/MO_589/IMG_1_589.jpg"",""SV_PolicingMSA/MO_589/IMG_10_589.jpg"",""SV_PolicingMSA/MO_589/IMG_9_589.jpg"",""SV_PolicingMSA/MO_589/IMG_0_589.jpg"",""SV_PolicingMSA/MO_589/IMG_12_589.jpg""]","7","","","","","","2","","4","[""./rc_img/cop_condGroup_7_SafeStreets_autoscaled.png"",""./rc_img/cop_condGroup_7_CommunitySafety_autoscaled.png""]","1","",""
"sliderTrial","html-slider-response","108","584550","0.0-108.0","","656776a7904ae00d6b91d1dd","6568a9f37ea0b5e4d8b4ca44","7","","","","","","","","","","","","3491","[""SV_PolicingMSA/MO_589/IMG_13_589.jpg"",""SV_PolicingMSA/MO_589/IMG_8_589.jpg"",""SV_PolicingMSA/MO_589/IMG_4_589.jpg"",""SV_PolicingMSA/MO_589/IMG_1_589.jpg"",""SV_PolicingMSA/MO_589/IMG_10_589.jpg"",""SV_PolicingMSA/MO_589/IMG_9_589.jpg"",""SV_PolicingMSA/MO_589/IMG_0_589.jpg"",""SV_PolicingMSA/MO_589/IMG_12_589.jpg""]","7","","","","","","2","","4","[""./rc_img/cop_condGroup_20_SafeStreets_autoscaled.png"",""./rc_img/cop_condGroup_20_CommunitySafety_autoscaled.png""]","1","",""
"sliderTrial","html-slider-response","109","587232","0.0-109.0","","656776a7904ae00d6b91d1dd","6568a9f37ea0b5e4d8b4ca44","7","","","","","","","","","","","","2681","[""SV_PolicingMSA/MO_589/IMG_13_589.jpg"",""SV_PolicingMSA/MO_589/IMG_8_589.jpg"",""SV_PolicingMSA/MO_589/IMG_4_589.jpg"",""SV_PolicingMSA/MO_589/IMG_1_589.jpg"",""SV_PolicingMSA/MO_589/IMG_10_589.jpg"",""SV_PolicingMSA/MO_589/IMG_9_589.jpg"",""SV_PolicingMSA/MO_589/IMG_0_589.jpg"",""SV_PolicingMSA/MO_589/IMG_12_589.jpg""]","7","","","","","","2","","4","[""./rc_img/cop_condGroup_10_SafeStreets_autoscaled.png"",""./rc_img/cop_condGroup_10_CommunitySafety_autoscaled.png""]","1","",""
"before_SVSlide_prompt","html-button-response","110","588546","0.0-110.0","","656776a7904ae00d6b91d1dd","6568a9f37ea0b5e4d8b4ca44","7","","","","","","","","","","","","1314","Click [Next] to see the next neighborhood!","0","","","","","","","","","","","",""
"street view slide show","image-button-response","111","589554","0.0-111.0","","656776a7904ae00d6b91d1dd","6568a9f37ea0b5e4d8b4ca44","7","","","","","","","","","","","","null","stimulus/SV_PolicingMSA/MO_1031/IMG_13_1031.jpg","null","","","","","","0","","","","","",""
"street view slide show","image-button-response","112","590563","0.0-112.0","","656776a7904ae00d6b91d1dd","6568a9f37ea0b5e4d8b4ca44","7","","","","","","","","","","","","null","stimulus/SV_PolicingMSA/MO_1031/IMG_9_1031.jpg","null","","","","","","0","","","","","",""
"street view slide show","image-button-response","113","591578","0.0-113.0","","656776a7904ae00d6b91d1dd","6568a9f37ea0b5e4d8b4ca44","7","","","","","","","","","","","","null","stimulus/SV_PolicingMSA/MO_1031/IMG_12_1031.jpg","null","","","","","","0","","","","","",""
"street view slide show","image-button-response","114","592583","0.0-114.0","","656776a7904ae00d6b91d1dd","6568a9f37ea0b5e4d8b4ca44","7","","","","","","","","","","","","null","stimulus/SV_PolicingMSA/MO_1031/IMG_11_1031.jpg","null","","","","","","0","","","","","",""
"street view slide show","image-button-response","115","593600","0.0-115.0","","656776a7904ae00d6b91d1dd","6568a9f37ea0b5e4d8b4ca44","7","","","","","","","","","","","","null","stimulus/SV_PolicingMSA/MO_1031/IMG_7_1031.jpg","null","","","","","","0","","","","","",""
"street view slide show","image-button-response","116","594603","0.0-116.0","","656776a7904ae00d6b91d1dd","6568a9f37ea0b5e4d8b4ca44","7","","","","","","","","","","","","null","stimulus/SV_PolicingMSA/MO_1031/IMG_0_1031.jpg","null","","","","","","0","","","","","",""
"street view slide show","image-button-response","117","595606","0.0-117.0","","656776a7904ae00d6b91d1dd","6568a9f37ea0b5e4d8b4ca44","7","","","","","","","","","","","","null","stimulus/SV_PolicingMSA/MO_1031/IMG_3_1031.jpg","null","","","","","","0","","","","","",""
"street view slide show","image-button-response","118","596611","0.0-118.0","","656776a7904ae00d6b91d1dd","6568a9f37ea0b5e4d8b4ca44","7","","","","","","","","","","","","null","stimulus/SV_PolicingMSA/MO_1031/IMG_2_1031.jpg","null","","","","","","0","","","","","",""
"dot matrix survey1","survey","119","608818","0.0-119.0","","656776a7904ae00d6b91d1dd","6568a9f37ea0b5e4d8b4ca44","7","","","","","","","","","","","","12199","","{""P0_Q0"":null,""P0_Q1"":{""wealthy"":2,""safe"":3,""walkable"":3,""traditional"":3,""diverse"":3}}","","","","","","0","[]","","","","",""
"dot matrix survey2","survey","120","618220","0.0-120.0","","656776a7904ae00d6b91d1dd","6568a9f37ea0b5e4d8b4ca44","7","","","","","","","","","","","","9398","","{""P0_Q0"":null,""P0_Q1"":{""violence"":2,""crime"":2,""drug"":2,""schools"":2,""opportunities"":2}}","","","","","","0","[]","","","","",""
"dot matrix survey3","survey","121","631947","0.0-121.0","","656776a7904ae00d6b91d1dd","6568a9f37ea0b5e4d8b4ca44","7","","","","","","","","","","","","13723","","{""P0_Q0"":null,""P0_Q1"":{""movein"":3,""moveout"":1,""shopping"":4,""walk"":2,""park"":4,""school"":4}}","","","","","","0","[]","","","","",""
"sliderTrial_attention","html-slider-response","122","641953","0.0-122.0","","656776a7904ae00d6b91d1dd","6568a9f37ea0b5e4d8b4ca44","7","","","","","","","","","","","","null","[""SV_PolicingMSA/MO_1031/IMG_13_1031.jpg"",""SV_PolicingMSA/MO_1031/IMG_9_1031.jpg"",""SV_PolicingMSA/MO_1031/IMG_12_1031.jpg"",""SV_PolicingMSA/MO_1031/IMG_11_1031.jpg"",""SV_PolicingMSA/MO_1031/IMG_7_1031.jpg"",""SV_PolicingMSA/MO_1031/IMG_0_1031.jpg"",""SV_PolicingMSA/MO_1031/IMG_3_1031.jpg"",""SV_PolicingMSA/MO_1031/IMG_2_1031.jpg""]","null","","","","","","0","","4","[""./assets/img/attnchk.png"",""./assets/img/attnchk.png""]","","true",""
"sliderTrial","html-slider-response","123","646142","0.0-123.0","","656776a7904ae00d6b91d1dd","6568a9f37ea0b5e4d8b4ca44","7","","","","","","","","","","","","4185","[""SV_PolicingMSA/MO_1031/IMG_13_1031.jpg"",""SV_PolicingMSA/MO_1031/IMG_9_1031.jpg"",""SV_PolicingMSA/MO_1031/IMG_12_1031.jpg"",""SV_PolicingMSA/MO_1031/IMG_11_1031.jpg"",""SV_PolicingMSA/MO_1031/IMG_7_1031.jpg"",""SV_PolicingMSA/MO_1031/IMG_0_1031.jpg"",""SV_PolicingMSA/MO_1031/IMG_3_1031.jpg"",""SV_PolicingMSA/MO_1031/IMG_2_1031.jpg""]","1","","","","","","0","","4","[""./rc_img/cop_condGroup_12_CommunitySafety_autoscaled.png"",""./rc_img/cop_condGroup_12_SafeStreets_autoscaled.png""]","1","",""
"sliderTrial","html-slider-response","124","651010","0.0-124.0","","656776a7904ae00d6b91d1dd","6568a9f37ea0b5e4d8b4ca44","7","","","","","","","","","","","","4867","[""SV_PolicingMSA/MO_1031/IMG_13_1031.jpg"",""SV_PolicingMSA/MO_1031/IMG_9_1031.jpg"",""SV_PolicingMSA/MO_1031/IMG_12_1031.jpg"",""SV_PolicingMSA/MO_1031/IMG_11_1031.jpg"",""SV_PolicingMSA/MO_1031/IMG_7_1031.jpg"",""SV_PolicingMSA/MO_1031/IMG_0_1031.jpg"",""SV_PolicingMSA/MO_1031/IMG_3_1031.jpg"",""SV_PolicingMSA/MO_1031/IMG_2_1031.jpg""]","7","","","","","","0","","4","[""./rc_img/cop_condGroup_13_SafeStreets_autoscaled.png"",""./rc_img/cop_condGroup_13_CommunitySafety_autoscaled.png""]","1","",""
"sliderTrial","html-slider-response","125","654136","0.0-125.0","","656776a7904ae00d6b91d1dd","6568a9f37ea0b5e4d8b4ca44","7","","","","","","","","","","","","3125","[""SV_PolicingMSA/MO_1031/IMG_13_1031.jpg"",""SV_PolicingMSA/MO_1031/IMG_9_1031.jpg"",""SV_PolicingMSA/MO_1031/IMG_12_1031.jpg"",""SV_PolicingMSA/MO_1031/IMG_11_1031.jpg"",""SV_PolicingMSA/MO_1031/IMG_7_1031.jpg"",""SV_PolicingMSA/MO_1031/IMG_0_1031.jpg"",""SV_PolicingMSA/MO_1031/IMG_3_1031.jpg"",""SV_PolicingMSA/MO_1031/IMG_2_1031.jpg""]","7","","","","","","0","","4","[""./rc_img/cop_condGroup_7_SafeStreets_autoscaled.png"",""./rc_img/cop_condGroup_7_CommunitySafety_autoscaled.png""]","1","",""
"sliderTrial","html-slider-response","126","656508","0.0-126.0","","656776a7904ae00d6b91d1dd","6568a9f37ea0b5e4d8b4ca44","7","","","","","","","","","","","","2371","[""SV_PolicingMSA/MO_1031/IMG_13_1031.jpg"",""SV_PolicingMSA/MO_1031/IMG_9_1031.jpg"",""SV_PolicingMSA/MO_1031/IMG_12_1031.jpg"",""SV_PolicingMSA/MO_1031/IMG_11_1031.jpg"",""SV_PolicingMSA/MO_1031/IMG_7_1031.jpg"",""SV_PolicingMSA/MO_1031/IMG_0_1031.jpg"",""SV_PolicingMSA/MO_1031/IMG_3_1031.jpg"",""SV_PolicingMSA/MO_1031/IMG_2_1031.jpg""]","7","","","","","","0","","4","[""./rc_img/cop_condGroup_20_SafeStreets_autoscaled.png"",""./rc_img/cop_condGroup_20_CommunitySafety_autoscaled.png""]","1","",""
"sliderTrial","html-slider-response","127","659222","0.0-127.0","","656776a7904ae00d6b91d1dd","6568a9f37ea0b5e4d8b4ca44","7","","","","","","","","","","","","2713","[""SV_PolicingMSA/MO_1031/IMG_13_1031.jpg"",""SV_PolicingMSA/MO_1031/IMG_9_1031.jpg"",""SV_PolicingMSA/MO_1031/IMG_12_1031.jpg"",""SV_PolicingMSA/MO_1031/IMG_11_1031.jpg"",""SV_PolicingMSA/MO_1031/IMG_7_1031.jpg"",""SV_PolicingMSA/MO_1031/IMG_0_1031.jpg"",""SV_PolicingMSA/MO_1031/IMG_3_1031.jpg"",""SV_PolicingMSA/MO_1031/IMG_2_1031.jpg""]","7","","","","","","0","","4","[""./rc_img/cop_condGroup_10_SafeStreets_autoscaled.png"",""./rc_img/cop_condGroup_10_CommunitySafety_autoscaled.png""]","1","",""
"before_SVSlide_prompt","html-button-response","128","660364","0.0-128.0","","656776a7904ae00d6b91d1dd","6568a9f37ea0b5e4d8b4ca44","7","","","","","","","","","","","","1142","Click [Next] to see the next neighborhood!","0","","","","","","","","","","","",""
"street view slide show","image-button-response","129","661375","0.0-129.0","","656776a7904ae00d6b91d1dd","6568a9f37ea0b5e4d8b4ca44","7","","","","","","","","","","","","null","stimulus/SV_PolicingMSA/MO_1289/IMG_7_1289.jpg","null","","","","","","3","","","","","",""
"street view slide show","image-button-response","130","662385","0.0-130.0","","656776a7904ae00d6b91d1dd","6568a9f37ea0b5e4d8b4ca44","7","","","","","","","","","","","","null","stimulus/SV_PolicingMSA/MO_1289/IMG_11_1289.jpg","null","","","","","","3","","","","","",""
"street view slide show","image-button-response","131","663393","0.0-131.0","","656776a7904ae00d6b91d1dd","6568a9f37ea0b5e4d8b4ca44","7","","","","","","","","","","","","null","stimulus/SV_PolicingMSA/MO_1289/IMG_5_1289.jpg","null","","","","","","3","","","","","",""
"street view slide show","image-button-response","132","664405","0.0-132.0","","656776a7904ae00d6b91d1dd","6568a9f37ea0b5e4d8b4ca44","7","","","","","","","","","","","","null","stimulus/SV_PolicingMSA/MO_1289/IMG_4_1289.jpg","null","","","","","","3","","","","","",""
"street view slide show","image-button-response","133","665413","0.0-133.0","","656776a7904ae00d6b91d1dd","6568a9f37ea0b5e4d8b4ca44","7","","","","","","","","","","","","null","stimulus/SV_PolicingMSA/MO_1289/IMG_6_1289.jpg","null","","","","","","3","","","","","",""
"street view slide show","image-button-response","134","666424","0.0-134.0","","656776a7904ae00d6b91d1dd","6568a9f37ea0b5e4d8b4ca44","7","","","","","","","","","","","","null","stimulus/SV_PolicingMSA/MO_1289/IMG_3_1289.jpg","null","","","","","","3","","","","","",""
"street view slide show","image-button-response","135","667438","0.0-135.0","","656776a7904ae00d6b91d1dd","6568a9f37ea0b5e4d8b4ca44","7","","","","","","","","","","","","null","stimulus/SV_PolicingMSA/MO_1289/IMG_1_1289.jpg","null","","","","","","3","","","","","",""
"street view slide show","image-button-response","136","668441","0.0-136.0","","656776a7904ae00d6b91d1dd","6568a9f37ea0b5e4d8b4ca44","7","","","","","","","","","","","","null","stimulus/SV_PolicingMSA/MO_1289/IMG_8_1289.jpg","null","","","","","","3","","","","","",""
"dot matrix survey1","survey","137","680770","0.0-137.0","","656776a7904ae00d6b91d1dd","6568a9f37ea0b5e4d8b4ca44","7","","","","","","","","","","","","12319","","{""P0_Q0"":null,""P0_Q1"":{""wealthy"":1,""safe"":3,""walkable"":4,""traditional"":4,""diverse"":3}}","","","","","","3","[]","","","","",""
"dot matrix survey2","survey","138","693145","0.0-138.0","","656776a7904ae00d6b91d1dd","6568a9f37ea0b5e4d8b4ca44","7","","","","","","","","","","","","12370","","{""P0_Q0"":null,""P0_Q1"":{""violence"":1,""crime"":1,""drug"":2,""schools"":2,""opportunities"":2}}","","","","","","3","[]","","","","",""
"dot matrix survey3","survey","139","704334","0.0-139.0","","656776a7904ae00d6b91d1dd","6568a9f37ea0b5e4d8b4ca44","7","","","","","","","","","","","","11186","","{""P0_Q0"":null,""P0_Q1"":{""movein"":4,""moveout"":1,""shopping"":4,""walk"":2,""park"":4,""school"":4}}","","","","","","3","[]","","","","",""
"sliderTrial","html-slider-response","140","708282","0.0-140.0","","656776a7904ae00d6b91d1dd","6568a9f37ea0b5e4d8b4ca44","7","","","","","","","","","","","","3947","[""SV_PolicingMSA/MO_1289/IMG_7_1289.jpg"",""SV_PolicingMSA/MO_1289/IMG_11_1289.jpg"",""SV_PolicingMSA/MO_1289/IMG_5_1289.jpg"",""SV_PolicingMSA/MO_1289/IMG_4_1289.jpg"",""SV_PolicingMSA/MO_1289/IMG_6_1289.jpg"",""SV_PolicingMSA/MO_1289/IMG_3_1289.jpg"",""SV_PolicingMSA/MO_1289/IMG_1_1289.jpg"",""SV_PolicingMSA/MO_1289/IMG_8_1289.jpg""]","2","","","","","","3","","4","[""./rc_img/cop_condGroup_5_CommunitySafety_autoscaled.png"",""./rc_img/cop_condGroup_5_SafeStreets_autoscaled.png""]","2","",""
"sliderTrial","html-slider-response","141","711284","0.0-141.0","","656776a7904ae00d6b91d1dd","6568a9f37ea0b5e4d8b4ca44","7","","","","","","","","","","","","3000","[""SV_PolicingMSA/MO_1289/IMG_7_1289.jpg"",""SV_PolicingMSA/MO_1289/IMG_11_1289.jpg"",""SV_PolicingMSA/MO_1289/IMG_5_1289.jpg"",""SV_PolicingMSA/MO_1289/IMG_4_1289.jpg"",""SV_PolicingMSA/MO_1289/IMG_6_1289.jpg"",""SV_PolicingMSA/MO_1289/IMG_3_1289.jpg"",""SV_PolicingMSA/MO_1289/IMG_1_1289.jpg"",""SV_PolicingMSA/MO_1289/IMG_8_1289.jpg""]","2","","","","","","3","","4","[""./rc_img/cop_condGroup_18_CommunitySafety_autoscaled.png"",""./rc_img/cop_condGroup_18_SafeStreets_autoscaled.png""]","2","",""
"sliderTrial","html-slider-response","142","713602","0.0-142.0","","656776a7904ae00d6b91d1dd","6568a9f37ea0b5e4d8b4ca44","7","","","","","","","","","","","","2317","[""SV_PolicingMSA/MO_1289/IMG_7_1289.jpg"",""SV_PolicingMSA/MO_1289/IMG_11_1289.jpg"",""SV_PolicingMSA/MO_1289/IMG_5_1289.jpg"",""SV_PolicingMSA/MO_1289/IMG_4_1289.jpg"",""SV_PolicingMSA/MO_1289/IMG_6_1289.jpg"",""SV_PolicingMSA/MO_1289/IMG_3_1289.jpg"",""SV_PolicingMSA/MO_1289/IMG_1_1289.jpg"",""SV_PolicingMSA/MO_1289/IMG_8_1289.jpg""]","3","","","","","","3","","4","[""./rc_img/cop_condGroup_8_CommunitySafety_autoscaled.png"",""./rc_img/cop_condGroup_8_SafeStreets_autoscaled.png""]","3","",""
"sliderTrial","html-slider-response","143","716164","0.0-143.0","","656776a7904ae00d6b91d1dd","6568a9f37ea0b5e4d8b4ca44","7","","","","","","","","","","","","2561","[""SV_PolicingMSA/MO_1289/IMG_7_1289.jpg"",""SV_PolicingMSA/MO_1289/IMG_11_1289.jpg"",""SV_PolicingMSA/MO_1289/IMG_5_1289.jpg"",""SV_PolicingMSA/MO_1289/IMG_4_1289.jpg"",""SV_PolicingMSA/MO_1289/IMG_6_1289.jpg"",""SV_PolicingMSA/MO_1289/IMG_3_1289.jpg"",""SV_PolicingMSA/MO_1289/IMG_1_1289.jpg"",""SV_PolicingMSA/MO_1289/IMG_8_1289.jpg""]","6","","","","","","3","","4","[""./rc_img/cop_condGroup_6_SafeStreets_autoscaled.png"",""./rc_img/cop_condGroup_6_CommunitySafety_autoscaled.png""]","2","",""
"sliderTrial","html-slider-response","144","718260","0.0-144.0","","656776a7904ae00d6b91d1dd","6568a9f37ea0b5e4d8b4ca44","7","","","","","","","","","","","","2095","[""SV_PolicingMSA/MO_1289/IMG_7_1289.jpg"",""SV_PolicingMSA/MO_1289/IMG_11_1289.jpg"",""SV_PolicingMSA/MO_1289/IMG_5_1289.jpg"",""SV_PolicingMSA/MO_1289/IMG_4_1289.jpg"",""SV_PolicingMSA/MO_1289/IMG_6_1289.jpg"",""SV_PolicingMSA/MO_1289/IMG_3_1289.jpg"",""SV_PolicingMSA/MO_1289/IMG_1_1289.jpg"",""SV_PolicingMSA/MO_1289/IMG_8_1289.jpg""]","6","","","","","","3","","4","[""./rc_img/cop_condGroup_4_SafeStreets_autoscaled.png"",""./rc_img/cop_condGroup_4_CommunitySafety_autoscaled.png""]","2","",""
"demographics","survey-html-form","145","737245","0.0-145.0","","656776a7904ae00d6b91d1dd","6568a9f37ea0b5e4d8b4ca44","7","","","","","","","","","","","","18983","","{""age"":""65"",""sex"":""female"",""gender"":""woman"",""gender-self-describe"":"""",""zipcode"":""78244""}","","","","","","","","","","","",""
"demographics-list","survey","146","759639","0.0-146.0","","656776a7904ae00d6b91d1dd","6568a9f37ea0b5e4d8b4ca44","7","","","","","","","","","","","","22376","","{""P0_Q0"":null,""race-ethnicity"":[""White or of European ancestry""],""education"":""Bachelor’s degree"",""P1_Q0"":null,""ideology"":""Conservative"",""P2_Q0"":null,""num-moves"":-15,""P3_Q0"":null,""social-ladder"":3}","","","","","","","[]","","","","",""
"end-survey","survey-text","147","777634","0.0-147.0","","656776a7904ae00d6b91d1dd","6568a9f37ea0b5e4d8b4ca44","7","","","","","","","","","","","","17991","","{""Q0"":""""}","","","","","","","","","","","","2"
"end-survey","html-button-response","148","784500","0.0-148.0","","656776a7904ae00d6b91d1dd","6568a9f37ea0b5e4d8b4ca44","7","","","","","","","","","","","","6865","
    You've reached the end of the survey. <br><br> 
    <b>Do not close or refresh this window.</b><br>
    On the next page, you will be automatically redirected to Prolific. <br><br>

    <div class=""alert alert-warning""><b>
    </div>
","0","","","","","","","","","","","",""
