"task","trial_type","trial_index","time_elapsed","internal_node_id","subject_id","study_id","session_id","section","width","height","webaudio","browser","browser_version","mobile","os","fullscreen","vsync_rate","webcam","microphone","rt","stimulus","response","success","timeout","failed_images","failed_audio","failed_video","block","accuracy","slider_start","choices","standardized_response","correct","num_attention_checks_correct"
"pavlovia-init","pavlovia","0","974","0.0-0.0","","656776a7904ae00d6b91d1dd","6568a96b709c0ee9bada53af","5","","","","","","","","","","","","","","","","","","","","","","","","","",""
"browser-check","browser-check","1","1971","0.0-1.0","","656776a7904ae00d6b91d1dd","6568a96b709c0ee9bada53af","5","1280","603","true","chrome","119.0.0","false","Windows 10","true","60.6","true","true","","","","","","","","","","","","","","",""
"consent","html-button-response","2","5609","0.0-2.0","","656776a7904ae00d6b91d1dd","6568a96b709c0ee9bada53af","5","","","","","","","","","","","","3637","
        <div style=""font-size: 80%; max-width:700px"">
            <h2>CONSENT FORM</h2>
        
            <div style=""text-align: left"">
            <h4>DESCRIPTION</h4>
            <p>
            You will complete a short task where you give your impressions of various neighborhoods and assign individuals to those spaces, and answer some questions about your thoughts and opinions.<br>
            The University of Michigan Institutional Review Board Health Sciences and Behavioral Sciences has determined that this study is exempt from IRB oversight.
            </p>

            <h4>TIME INVOLVEMENT</h4>
            <p>Your participation will take approximately 15 minutes. You will receive $3.15 upon completion of the study.</p>
        
            <h4>RISKS AND BENEFITS</h4>
            <p>
            The risks associated with this study are minimal. The benefits which may reasonably be expected to result from this study are none. We cannot and do not guarantee or promise that you will receive any benefits from this study.
            </p>
          
            <h4>SUBJECT'S RIGHTS</h4>
            <p>
            If you have read this form and have decided to participate in this project, please understand your participation is voluntary and you have the right to withdraw your consent or discontinue participation at any time without penalty or loss of benefits to which you are otherwise entitled. The alternative is not to participate. You have the right to refuse to answer particular questions. Your individual privacy will be maintained in all published and written data resulting from the study.
            </p>

            <h4>HUMAN SUBJECT APPROVAL</h4>
            <p>
            This study is exempt from ongoing IRB review.
            </p>

            <h4>CONTACT INFORMATION</h4>
            If you have any questions, concerns or complaints about this research, its procedures, risks and benefits, contact the Protocol Director, Nicholas Camp, npcamp@umich.edu, (443) 851-6783. <br>

            If you have questions about your rights as a research participant, or wish to obtain information, ask questions or discuss any concerns about this study with someone other than the researcher(s), please contact the following:<br><br>
            University of Michigan<br>
            Health Sciences and Behavioral Sciences Institutional Review Board (IRB-HSBS)<br>
            2800 Plymouth Road<br>
            Building 520, Room 1169Ann Arbor, MI 48109-2800<br>
            Telephone: 734-936-0933 or toll free (866) 936-0933<br>
            Fax: 734-936-1852<br>
            E-mail: irbhsbs@umich.edu<br><br>

            You can also contact the University of Michigan Compliance Hotline at 1-866-990-0111. You may also print this consent form to keep.
            <br><br>
            <div class=""alert alert-warning""><b>
            Do you consent to participate in this study? If you consent to participate in this study, please click “Accept and Continue”. If you select ""Decline and Exit"", you will be exited from the survey. <br>
            </b></div>
            </div>
        </div>
    ","1","","","","","","","","","","","",""
"","preload","3","8011","0.0-3.0","","656776a7904ae00d6b91d1dd","6568a96b709c0ee9bada53af","5","","","","","","","","","","","","","","","true","false","[]","[]","[]","","","","","","",""
"instructions","html-button-response","4","14555","0.0-4.0","","656776a7904ae00d6b91d1dd","6568a96b709c0ee9bada53af","5","","","","","","","","","","","","6543","
        <div class=""text-container"">
        <h1>Welcome to the study!</h1>
        
        <div class=""text-left"">
            <p>
                In this study, we are interested in what people can tell about spaces from Google Street View images. <br> Google Street View takes pictures of streets used for Google Earth and Google Maps. <br>You’ll see Google Street View images of different places and answer some questions about each one.<br>
            </p>
        </div>
        <img src = ""assets/img/example.png"" width = 500px, height = auto>
        <br>
    <br>
    ","0","","","","","","","","","","","",""
"instructions","html-button-response","5","16395","0.0-5.0","","656776a7904ae00d6b91d1dd","6568a96b709c0ee9bada53af","5","","","","","","","","","","","","1839","
    <div class=""text-container"">
        <div class=""text-center"">
            <p>Please remember that your answers are completely anonymous.<br>Go with your gut response- there are no right or wrong answers!</p>
        </div>
    <br>
","0","","","","","","","","","","","",""
"before_SVSlide_prompt","html-button-response","6","17466","0.0-6.0","","656776a7904ae00d6b91d1dd","6568a96b709c0ee9bada53af","5","","","","","","","","","","","","1069","Click [Next] to see the next neighborhood!","0","","","","","","","","","","","",""
"street view slide show","image-button-response","7","18486","0.0-7.0","","656776a7904ae00d6b91d1dd","6568a96b709c0ee9bada53af","5","","","","","","","","","","","","null","stimulus/SV_PolicingMSA/MI_2715/IMG_5_2715.jpg","null","","","","","","4","","","","","",""
"street view slide show","image-button-response","8","19497","0.0-8.0","","656776a7904ae00d6b91d1dd","6568a96b709c0ee9bada53af","5","","","","","","","","","","","","null","stimulus/SV_PolicingMSA/MI_2715/IMG_12_2715.jpg","null","","","","","","4","","","","","",""
"street view slide show","image-button-response","9","20510","0.0-9.0","","656776a7904ae00d6b91d1dd","6568a96b709c0ee9bada53af","5","","","","","","","","","","","","null","stimulus/SV_PolicingMSA/MI_2715/IMG_10_2715.jpg","null","","","","","","4","","","","","",""
"street view slide show","image-button-response","10","21522","0.0-10.0","","656776a7904ae00d6b91d1dd","6568a96b709c0ee9bada53af","5","","","","","","","","","","","","null","stimulus/SV_PolicingMSA/MI_2715/IMG_8_2715.jpg","null","","","","","","4","","","","","",""
"street view slide show","image-button-response","11","22538","0.0-11.0","","656776a7904ae00d6b91d1dd","6568a96b709c0ee9bada53af","5","","","","","","","","","","","","null","stimulus/SV_PolicingMSA/MI_2715/IMG_6_2715.jpg","null","","","","","","4","","","","","",""
"street view slide show","image-button-response","12","23548","0.0-12.0","","656776a7904ae00d6b91d1dd","6568a96b709c0ee9bada53af","5","","","","","","","","","","","","null","stimulus/SV_PolicingMSA/MI_2715/IMG_4_2715.jpg","null","","","","","","4","","","","","",""
"street view slide show","image-button-response","13","24560","0.0-13.0","","656776a7904ae00d6b91d1dd","6568a96b709c0ee9bada53af","5","","","","","","","","","","","","null","stimulus/SV_PolicingMSA/MI_2715/IMG_3_2715.jpg","null","","","","","","4","","","","","",""
"street view slide show","image-button-response","14","25571","0.0-14.0","","656776a7904ae00d6b91d1dd","6568a96b709c0ee9bada53af","5","","","","","","","","","","","","null","stimulus/SV_PolicingMSA/MI_2715/IMG_0_2715.jpg","null","","","","","","4","","","","","",""
"dot matrix survey1","survey","15","41927","0.0-15.0","","656776a7904ae00d6b91d1dd","6568a96b709c0ee9bada53af","5","","","","","","","","","","","","16272","","{""P0_Q0"":null,""P0_Q1"":{""wealthy"":1,""safe"":2,""walkable"":0,""traditional"":3,""diverse"":0}}","","","","","","4","[]","","","","",""
"dot matrix survey2","survey","16","71593","0.0-16.0","","656776a7904ae00d6b91d1dd","6568a96b709c0ee9bada53af","5","","","","","","","","","","","","29647","","{""P0_Q0"":null,""P0_Q1"":{""violence"":1,""crime"":1,""drug"":4,""schools"":1,""opportunities"":0}}","","","","","","4","[]","","","","",""
"dot matrix survey3","survey","17","96683","0.0-17.0","","656776a7904ae00d6b91d1dd","6568a96b709c0ee9bada53af","5","","","","","","","","","","","","25074","","{""P0_Q0"":null,""P0_Q1"":{""movein"":1,""moveout"":3,""shopping"":2,""walk"":1,""park"":3,""school"":2}}","","","","","","4","[]","","","","",""
"sliderTrial","html-slider-response","18","107696","0.0-18.0","","656776a7904ae00d6b91d1dd","6568a96b709c0ee9bada53af","5","","","","","","","","","","","","11010","[""SV_PolicingMSA/MI_2715/IMG_5_2715.jpg"",""SV_PolicingMSA/MI_2715/IMG_12_2715.jpg"",""SV_PolicingMSA/MI_2715/IMG_10_2715.jpg"",""SV_PolicingMSA/MI_2715/IMG_8_2715.jpg"",""SV_PolicingMSA/MI_2715/IMG_6_2715.jpg"",""SV_PolicingMSA/MI_2715/IMG_4_2715.jpg"",""SV_PolicingMSA/MI_2715/IMG_3_2715.jpg"",""SV_PolicingMSA/MI_2715/IMG_0_2715.jpg""]","5","","","","","","4","","4","[""./rc_img/cop_condGroup_1_CommunitySafety_autoscaled.png"",""./rc_img/cop_condGroup_1_SafeStreets_autoscaled.png""]","5","",""
"sliderTrial","html-slider-response","19","116709","0.0-19.0","","656776a7904ae00d6b91d1dd","6568a96b709c0ee9bada53af","5","","","","","","","","","","","","9010","[""SV_PolicingMSA/MI_2715/IMG_5_2715.jpg"",""SV_PolicingMSA/MI_2715/IMG_12_2715.jpg"",""SV_PolicingMSA/MI_2715/IMG_10_2715.jpg"",""SV_PolicingMSA/MI_2715/IMG_8_2715.jpg"",""SV_PolicingMSA/MI_2715/IMG_6_2715.jpg"",""SV_PolicingMSA/MI_2715/IMG_4_2715.jpg"",""SV_PolicingMSA/MI_2715/IMG_3_2715.jpg"",""SV_PolicingMSA/MI_2715/IMG_0_2715.jpg""]","5","","","","","","4","","4","[""./rc_img/cop_condGroup_17_SafeStreets_autoscaled.png"",""./rc_img/cop_condGroup_17_CommunitySafety_autoscaled.png""]","3","",""
"sliderTrial","html-slider-response","20","121282","0.0-20.0","","656776a7904ae00d6b91d1dd","6568a96b709c0ee9bada53af","5","","","","","","","","","","","","4570","[""SV_PolicingMSA/MI_2715/IMG_5_2715.jpg"",""SV_PolicingMSA/MI_2715/IMG_12_2715.jpg"",""SV_PolicingMSA/MI_2715/IMG_10_2715.jpg"",""SV_PolicingMSA/MI_2715/IMG_8_2715.jpg"",""SV_PolicingMSA/MI_2715/IMG_6_2715.jpg"",""SV_PolicingMSA/MI_2715/IMG_4_2715.jpg"",""SV_PolicingMSA/MI_2715/IMG_3_2715.jpg"",""SV_PolicingMSA/MI_2715/IMG_0_2715.jpg""]","5","","","","","","4","","4","[""./rc_img/cop_condGroup_6_SafeStreets_autoscaled.png"",""./rc_img/cop_condGroup_6_CommunitySafety_autoscaled.png""]","3","",""
"sliderTrial","html-slider-response","21","127685","0.0-21.0","","656776a7904ae00d6b91d1dd","6568a96b709c0ee9bada53af","5","","","","","","","","","","","","6400","[""SV_PolicingMSA/MI_2715/IMG_5_2715.jpg"",""SV_PolicingMSA/MI_2715/IMG_12_2715.jpg"",""SV_PolicingMSA/MI_2715/IMG_10_2715.jpg"",""SV_PolicingMSA/MI_2715/IMG_8_2715.jpg"",""SV_PolicingMSA/MI_2715/IMG_6_2715.jpg"",""SV_PolicingMSA/MI_2715/IMG_4_2715.jpg"",""SV_PolicingMSA/MI_2715/IMG_3_2715.jpg"",""SV_PolicingMSA/MI_2715/IMG_0_2715.jpg""]","5","","","","","","4","","4","[""./rc_img/cop_condGroup_13_SafeStreets_autoscaled.png"",""./rc_img/cop_condGroup_13_CommunitySafety_autoscaled.png""]","3","",""
"sliderTrial","html-slider-response","22","133390","0.0-22.0","","656776a7904ae00d6b91d1dd","6568a96b709c0ee9bada53af","5","","","","","","","","","","","","5701","[""SV_PolicingMSA/MI_2715/IMG_5_2715.jpg"",""SV_PolicingMSA/MI_2715/IMG_12_2715.jpg"",""SV_PolicingMSA/MI_2715/IMG_10_2715.jpg"",""SV_PolicingMSA/MI_2715/IMG_8_2715.jpg"",""SV_PolicingMSA/MI_2715/IMG_6_2715.jpg"",""SV_PolicingMSA/MI_2715/IMG_4_2715.jpg"",""SV_PolicingMSA/MI_2715/IMG_3_2715.jpg"",""SV_PolicingMSA/MI_2715/IMG_0_2715.jpg""]","3","","","","","","4","","4","[""./rc_img/cop_condGroup_19_CommunitySafety_autoscaled.png"",""./rc_img/cop_condGroup_19_SafeStreets_autoscaled.png""]","3","",""
"before_SVSlide_prompt","html-button-response","23","134568","0.0-23.0","","656776a7904ae00d6b91d1dd","6568a96b709c0ee9bada53af","5","","","","","","","","","","","","1177","Click [Next] to see the next neighborhood!","0","","","","","","","","","","","",""
"street view slide show","image-button-response","24","135579","0.0-24.0","","656776a7904ae00d6b91d1dd","6568a96b709c0ee9bada53af","5","","","","","","","","","","","","null","stimulus/SV_PolicingMSA/MI_1822/IMG_7_1822.jpg","null","","","","","","3","","","","","",""
"street view slide show","image-button-response","25","136583","0.0-25.0","","656776a7904ae00d6b91d1dd","6568a96b709c0ee9bada53af","5","","","","","","","","","","","","null","stimulus/SV_PolicingMSA/MI_1822/IMG_9_1822.jpg","null","","","","","","3","","","","","",""
"street view slide show","image-button-response","26","137598","0.0-26.0","","656776a7904ae00d6b91d1dd","6568a96b709c0ee9bada53af","5","","","","","","","","","","","","null","stimulus/SV_PolicingMSA/MI_1822/IMG_10_1822.jpg","null","","","","","","3","","","","","",""
"street view slide show","image-button-response","27","138612","0.0-27.0","","656776a7904ae00d6b91d1dd","6568a96b709c0ee9bada53af","5","","","","","","","","","","","","null","stimulus/SV_PolicingMSA/MI_1822/IMG_3_1822.jpg","null","","","","","","3","","","","","",""
"street view slide show","image-button-response","28","139623","0.0-28.0","","656776a7904ae00d6b91d1dd","6568a96b709c0ee9bada53af","5","","","","","","","","","","","","null","stimulus/SV_PolicingMSA/MI_1822/IMG_6_1822.jpg","null","","","","","","3","","","","","",""
"street view slide show","image-button-response","29","140637","0.0-29.0","","656776a7904ae00d6b91d1dd","6568a96b709c0ee9bada53af","5","","","","","","","","","","","","null","stimulus/SV_PolicingMSA/MI_1822/IMG_0_1822.jpg","null","","","","","","3","","","","","",""
"street view slide show","image-button-response","30","141649","0.0-30.0","","656776a7904ae00d6b91d1dd","6568a96b709c0ee9bada53af","5","","","","","","","","","","","","null","stimulus/SV_PolicingMSA/MI_1822/IMG_4_1822.jpg","null","","","","","","3","","","","","",""
"street view slide show","image-button-response","31","142662","0.0-31.0","","656776a7904ae00d6b91d1dd","6568a96b709c0ee9bada53af","5","","","","","","","","","","","","null","stimulus/SV_PolicingMSA/MI_1822/IMG_5_1822.jpg","null","","","","","","3","","","","","",""
"dot matrix survey1","survey","32","158265","0.0-32.0","","656776a7904ae00d6b91d1dd","6568a96b709c0ee9bada53af","5","","","","","","","","","","","","15587","","{""P0_Q0"":null,""P0_Q1"":{""wealthy"":1,""safe"":3,""walkable"":1,""traditional"":2,""diverse"":0}}","","","","","","3","[]","","","","",""
"dot matrix survey2","survey","33","178430","0.0-33.0","","656776a7904ae00d6b91d1dd","6568a96b709c0ee9bada53af","5","","","","","","","","","","","","20147","","{""P0_Q0"":null,""P0_Q1"":{""violence"":1,""crime"":1,""drug"":3,""schools"":2,""opportunities"":1}}","","","","","","3","[]","","","","",""
"dot matrix survey3","survey","34","190176","0.0-34.0","","656776a7904ae00d6b91d1dd","6568a96b709c0ee9bada53af","5","","","","","","","","","","","","11730","","{""P0_Q0"":null,""P0_Q1"":{""movein"":1,""moveout"":3,""shopping"":2,""walk"":1,""park"":2,""school"":2}}","","","","","","3","[]","","","","",""
"sliderTrial","html-slider-response","35","195581","0.0-35.0","","656776a7904ae00d6b91d1dd","6568a96b709c0ee9bada53af","5","","","","","","","","","","","","5401","[""SV_PolicingMSA/MI_1822/IMG_7_1822.jpg"",""SV_PolicingMSA/MI_1822/IMG_9_1822.jpg"",""SV_PolicingMSA/MI_1822/IMG_10_1822.jpg"",""SV_PolicingMSA/MI_1822/IMG_3_1822.jpg"",""SV_PolicingMSA/MI_1822/IMG_6_1822.jpg"",""SV_PolicingMSA/MI_1822/IMG_0_1822.jpg"",""SV_PolicingMSA/MI_1822/IMG_4_1822.jpg"",""SV_PolicingMSA/MI_1822/IMG_5_1822.jpg""]","4","","","","","","3","","4","[""./rc_img/cop_condGroup_12_CommunitySafety_autoscaled.png"",""./rc_img/cop_condGroup_12_SafeStreets_autoscaled.png""]","4","",""
"sliderTrial","html-slider-response","36","198714","0.0-36.0","","656776a7904ae00d6b91d1dd","6568a96b709c0ee9bada53af","5","","","","","","","","","","","","3130","[""SV_PolicingMSA/MI_1822/IMG_7_1822.jpg"",""SV_PolicingMSA/MI_1822/IMG_9_1822.jpg"",""SV_PolicingMSA/MI_1822/IMG_10_1822.jpg"",""SV_PolicingMSA/MI_1822/IMG_3_1822.jpg"",""SV_PolicingMSA/MI_1822/IMG_6_1822.jpg"",""SV_PolicingMSA/MI_1822/IMG_0_1822.jpg"",""SV_PolicingMSA/MI_1822/IMG_4_1822.jpg"",""SV_PolicingMSA/MI_1822/IMG_5_1822.jpg""]","3","","","","","","3","","4","[""./rc_img/cop_condGroup_18_CommunitySafety_autoscaled.png"",""./rc_img/cop_condGroup_18_SafeStreets_autoscaled.png""]","3","",""
"sliderTrial","html-slider-response","37","202052","0.0-37.0","","656776a7904ae00d6b91d1dd","6568a96b709c0ee9bada53af","5","","","","","","","","","","","","3334","[""SV_PolicingMSA/MI_1822/IMG_7_1822.jpg"",""SV_PolicingMSA/MI_1822/IMG_9_1822.jpg"",""SV_PolicingMSA/MI_1822/IMG_10_1822.jpg"",""SV_PolicingMSA/MI_1822/IMG_3_1822.jpg"",""SV_PolicingMSA/MI_1822/IMG_6_1822.jpg"",""SV_PolicingMSA/MI_1822/IMG_0_1822.jpg"",""SV_PolicingMSA/MI_1822/IMG_4_1822.jpg"",""SV_PolicingMSA/MI_1822/IMG_5_1822.jpg""]","5","","","","","","3","","4","[""./rc_img/cop_condGroup_9_SafeStreets_autoscaled.png"",""./rc_img/cop_condGroup_9_CommunitySafety_autoscaled.png""]","3","",""
"sliderTrial","html-slider-response","38","205750","0.0-38.0","","656776a7904ae00d6b91d1dd","6568a96b709c0ee9bada53af","5","","","","","","","","","","","","3696","[""SV_PolicingMSA/MI_1822/IMG_7_1822.jpg"",""SV_PolicingMSA/MI_1822/IMG_9_1822.jpg"",""SV_PolicingMSA/MI_1822/IMG_10_1822.jpg"",""SV_PolicingMSA/MI_1822/IMG_3_1822.jpg"",""SV_PolicingMSA/MI_1822/IMG_6_1822.jpg"",""SV_PolicingMSA/MI_1822/IMG_0_1822.jpg"",""SV_PolicingMSA/MI_1822/IMG_4_1822.jpg"",""SV_PolicingMSA/MI_1822/IMG_5_1822.jpg""]","4","","","","","","3","","4","[""./rc_img/cop_condGroup_10_CommunitySafety_autoscaled.png"",""./rc_img/cop_condGroup_10_SafeStreets_autoscaled.png""]","4","",""
"sliderTrial","html-slider-response","39","208007","0.0-39.0","","656776a7904ae00d6b91d1dd","6568a96b709c0ee9bada53af","5","","","","","","","","","","","","2254","[""SV_PolicingMSA/MI_1822/IMG_7_1822.jpg"",""SV_PolicingMSA/MI_1822/IMG_9_1822.jpg"",""SV_PolicingMSA/MI_1822/IMG_10_1822.jpg"",""SV_PolicingMSA/MI_1822/IMG_3_1822.jpg"",""SV_PolicingMSA/MI_1822/IMG_6_1822.jpg"",""SV_PolicingMSA/MI_1822/IMG_0_1822.jpg"",""SV_PolicingMSA/MI_1822/IMG_4_1822.jpg"",""SV_PolicingMSA/MI_1822/IMG_5_1822.jpg""]","4","","","","","","3","","4","[""./rc_img/cop_condGroup_20_SafeStreets_autoscaled.png"",""./rc_img/cop_condGroup_20_CommunitySafety_autoscaled.png""]","4","",""
"before_SVSlide_prompt","html-button-response","40","209567","0.0-40.0","","656776a7904ae00d6b91d1dd","6568a96b709c0ee9bada53af","5","","","","","","","","","","","","1558","Click [Next] to see the next neighborhood!","0","","","","","","","","","","","",""
"street view slide show","image-button-response","41","210585","0.0-41.0","","656776a7904ae00d6b91d1dd","6568a96b709c0ee9bada53af","5","","","","","","","","","","","","null","stimulus/SV_PolicingMSA/MI_2578/IMG_12_2578.jpg","null","","","","","","2","","","","","",""
"street view slide show","image-button-response","42","211597","0.0-42.0","","656776a7904ae00d6b91d1dd","6568a96b709c0ee9bada53af","5","","","","","","","","","","","","null","stimulus/SV_PolicingMSA/MI_2578/IMG_1_2578.jpg","null","","","","","","2","","","","","",""
"street view slide show","image-button-response","43","212608","0.0-43.0","","656776a7904ae00d6b91d1dd","6568a96b709c0ee9bada53af","5","","","","","","","","","","","","null","stimulus/SV_PolicingMSA/MI_2578/IMG_4_2578.jpg","null","","","","","","2","","","","","",""
"street view slide show","image-button-response","44","213624","0.0-44.0","","656776a7904ae00d6b91d1dd","6568a96b709c0ee9bada53af","5","","","","","","","","","","","","null","stimulus/SV_PolicingMSA/MI_2578/IMG_9_2578.jpg","null","","","","","","2","","","","","",""
"street view slide show","image-button-response","45","214636","0.0-45.0","","656776a7904ae00d6b91d1dd","6568a96b709c0ee9bada53af","5","","","","","","","","","","","","null","stimulus/SV_PolicingMSA/MI_2578/IMG_0_2578.jpg","null","","","","","","2","","","","","",""
"street view slide show","image-button-response","46","215651","0.0-46.0","","656776a7904ae00d6b91d1dd","6568a96b709c0ee9bada53af","5","","","","","","","","","","","","null","stimulus/SV_PolicingMSA/MI_2578/IMG_7_2578.jpg","null","","","","","","2","","","","","",""
"street view slide show","image-button-response","47","216662","0.0-47.0","","656776a7904ae00d6b91d1dd","6568a96b709c0ee9bada53af","5","","","","","","","","","","","","null","stimulus/SV_PolicingMSA/MI_2578/IMG_6_2578.jpg","null","","","","","","2","","","","","",""
"street view slide show","image-button-response","48","217676","0.0-48.0","","656776a7904ae00d6b91d1dd","6568a96b709c0ee9bada53af","5","","","","","","","","","","","","null","stimulus/SV_PolicingMSA/MI_2578/IMG_11_2578.jpg","null","","","","","","2","","","","","",""
"dot matrix survey1","survey","49","230341","0.0-49.0","","656776a7904ae00d6b91d1dd","6568a96b709c0ee9bada53af","5","","","","","","","","","","","","12649","","{""P0_Q0"":null,""P0_Q1"":{""wealthy"":1,""safe"":2,""walkable"":1,""traditional"":2,""diverse"":0}}","","","","","","2","[]","","","","",""
"dot matrix survey2","survey","50","244411","0.0-50.0","","656776a7904ae00d6b91d1dd","6568a96b709c0ee9bada53af","5","","","","","","","","","","","","14056","","{""P0_Q0"":null,""P0_Q1"":{""violence"":1,""crime"":1,""drug"":3,""schools"":2,""opportunities"":2}}","","","","","","2","[]","","","","",""
"dot matrix survey3","survey","51","257551","0.0-51.0","","656776a7904ae00d6b91d1dd","6568a96b709c0ee9bada53af","5","","","","","","","","","","","","13123","","{""P0_Q0"":null,""P0_Q1"":{""movein"":1,""moveout"":3,""shopping"":2,""walk"":1,""park"":2,""school"":2}}","","","","","","2","[]","","","","",""
"sliderTrial","html-slider-response","52","260487","0.0-52.0","","656776a7904ae00d6b91d1dd","6568a96b709c0ee9bada53af","5","","","","","","","","","","","","2933","[""SV_PolicingMSA/MI_2578/IMG_12_2578.jpg"",""SV_PolicingMSA/MI_2578/IMG_1_2578.jpg"",""SV_PolicingMSA/MI_2578/IMG_4_2578.jpg"",""SV_PolicingMSA/MI_2578/IMG_9_2578.jpg"",""SV_PolicingMSA/MI_2578/IMG_0_2578.jpg"",""SV_PolicingMSA/MI_2578/IMG_7_2578.jpg"",""SV_PolicingMSA/MI_2578/IMG_6_2578.jpg"",""SV_PolicingMSA/MI_2578/IMG_11_2578.jpg""]","3","","","","","","2","","4","[""./rc_img/cop_condGroup_3_CommunitySafety_autoscaled.png"",""./rc_img/cop_condGroup_3_SafeStreets_autoscaled.png""]","3","",""
"sliderTrial","html-slider-response","53","263105","0.0-53.0","","656776a7904ae00d6b91d1dd","6568a96b709c0ee9bada53af","5","","","","","","","","","","","","2616","[""SV_PolicingMSA/MI_2578/IMG_12_2578.jpg"",""SV_PolicingMSA/MI_2578/IMG_1_2578.jpg"",""SV_PolicingMSA/MI_2578/IMG_4_2578.jpg"",""SV_PolicingMSA/MI_2578/IMG_9_2578.jpg"",""SV_PolicingMSA/MI_2578/IMG_0_2578.jpg"",""SV_PolicingMSA/MI_2578/IMG_7_2578.jpg"",""SV_PolicingMSA/MI_2578/IMG_6_2578.jpg"",""SV_PolicingMSA/MI_2578/IMG_11_2578.jpg""]","3","","","","","","2","","4","[""./rc_img/cop_condGroup_2_CommunitySafety_autoscaled.png"",""./rc_img/cop_condGroup_2_SafeStreets_autoscaled.png""]","3","",""
"sliderTrial","html-slider-response","54","265227","0.0-54.0","","656776a7904ae00d6b91d1dd","6568a96b709c0ee9bada53af","5","","","","","","","","","","","","2118","[""SV_PolicingMSA/MI_2578/IMG_12_2578.jpg"",""SV_PolicingMSA/MI_2578/IMG_1_2578.jpg"",""SV_PolicingMSA/MI_2578/IMG_4_2578.jpg"",""SV_PolicingMSA/MI_2578/IMG_9_2578.jpg"",""SV_PolicingMSA/MI_2578/IMG_0_2578.jpg"",""SV_PolicingMSA/MI_2578/IMG_7_2578.jpg"",""SV_PolicingMSA/MI_2578/IMG_6_2578.jpg"",""SV_PolicingMSA/MI_2578/IMG_11_2578.jpg""]","3","","","","","","2","","4","[""./rc_img/cop_condGroup_11_CommunitySafety_autoscaled.png"",""./rc_img/cop_condGroup_11_SafeStreets_autoscaled.png""]","3","",""
"sliderTrial","html-slider-response","55","267563","0.0-55.0","","656776a7904ae00d6b91d1dd","6568a96b709c0ee9bada53af","5","","","","","","","","","","","","2333","[""SV_PolicingMSA/MI_2578/IMG_12_2578.jpg"",""SV_PolicingMSA/MI_2578/IMG_1_2578.jpg"",""SV_PolicingMSA/MI_2578/IMG_4_2578.jpg"",""SV_PolicingMSA/MI_2578/IMG_9_2578.jpg"",""SV_PolicingMSA/MI_2578/IMG_0_2578.jpg"",""SV_PolicingMSA/MI_2578/IMG_7_2578.jpg"",""SV_PolicingMSA/MI_2578/IMG_6_2578.jpg"",""SV_PolicingMSA/MI_2578/IMG_11_2578.jpg""]","5","","","","","","2","","4","[""./rc_img/cop_condGroup_16_SafeStreets_autoscaled.png"",""./rc_img/cop_condGroup_16_CommunitySafety_autoscaled.png""]","3","",""
"sliderTrial","html-slider-response","56","269721","0.0-56.0","","656776a7904ae00d6b91d1dd","6568a96b709c0ee9bada53af","5","","","","","","","","","","","","2155","[""SV_PolicingMSA/MI_2578/IMG_12_2578.jpg"",""SV_PolicingMSA/MI_2578/IMG_1_2578.jpg"",""SV_PolicingMSA/MI_2578/IMG_4_2578.jpg"",""SV_PolicingMSA/MI_2578/IMG_9_2578.jpg"",""SV_PolicingMSA/MI_2578/IMG_0_2578.jpg"",""SV_PolicingMSA/MI_2578/IMG_7_2578.jpg"",""SV_PolicingMSA/MI_2578/IMG_6_2578.jpg"",""SV_PolicingMSA/MI_2578/IMG_11_2578.jpg""]","5","","","","","","2","","4","[""./rc_img/cop_condGroup_4_SafeStreets_autoscaled.png"",""./rc_img/cop_condGroup_4_CommunitySafety_autoscaled.png""]","3","",""
"before_SVSlide_prompt","html-button-response","57","270928","0.0-57.0","","656776a7904ae00d6b91d1dd","6568a96b709c0ee9bada53af","5","","","","","","","","","","","","1204","Click [Next] to see the next neighborhood!","0","","","","","","","","","","","",""
"street view slide show","image-button-response","58","271947","0.0-58.0","","656776a7904ae00d6b91d1dd","6568a96b709c0ee9bada53af","5","","","","","","","","","","","","null","stimulus/SV_PolicingMSA/MI_1103/IMG_5_1103.jpg","null","","","","","","5","","","","","",""
"street view slide show","image-button-response","59","272960","0.0-59.0","","656776a7904ae00d6b91d1dd","6568a96b709c0ee9bada53af","5","","","","","","","","","","","","null","stimulus/SV_PolicingMSA/MI_1103/IMG_9_1103.jpg","null","","","","","","5","","","","","",""
"street view slide show","image-button-response","60","273970","0.0-60.0","","656776a7904ae00d6b91d1dd","6568a96b709c0ee9bada53af","5","","","","","","","","","","","","null","stimulus/SV_PolicingMSA/MI_1103/IMG_13_1103.jpg","null","","","","","","5","","","","","",""
"street view slide show","image-button-response","61","274981","0.0-61.0","","656776a7904ae00d6b91d1dd","6568a96b709c0ee9bada53af","5","","","","","","","","","","","","null","stimulus/SV_PolicingMSA/MI_1103/IMG_8_1103.jpg","null","","","","","","5","","","","","",""
"street view slide show","image-button-response","62","275995","0.0-62.0","","656776a7904ae00d6b91d1dd","6568a96b709c0ee9bada53af","5","","","","","","","","","","","","null","stimulus/SV_PolicingMSA/MI_1103/IMG_12_1103.jpg","null","","","","","","5","","","","","",""
"street view slide show","image-button-response","63","277012","0.0-63.0","","656776a7904ae00d6b91d1dd","6568a96b709c0ee9bada53af","5","","","","","","","","","","","","null","stimulus/SV_PolicingMSA/MI_1103/IMG_2_1103.jpg","null","","","","","","5","","","","","",""
"street view slide show","image-button-response","64","278025","0.0-64.0","","656776a7904ae00d6b91d1dd","6568a96b709c0ee9bada53af","5","","","","","","","","","","","","null","stimulus/SV_PolicingMSA/MI_1103/IMG_0_1103.jpg","null","","","","","","5","","","","","",""
"street view slide show","image-button-response","65","279028","0.0-65.0","","656776a7904ae00d6b91d1dd","6568a96b709c0ee9bada53af","5","","","","","","","","","","","","null","stimulus/SV_PolicingMSA/MI_1103/IMG_1_1103.jpg","null","","","","","","5","","","","","",""
"dot matrix survey1","survey","66","298237","0.0-66.0","","656776a7904ae00d6b91d1dd","6568a96b709c0ee9bada53af","5","","","","","","","","","","","","19194","","{""P0_Q0"":null,""P0_Q1"":{""wealthy"":3,""safe"":2,""walkable"":2,""traditional"":3,""diverse"":1}}","","","","","","5","[]","","","","",""
"dot matrix survey2","survey","67","311994","0.0-67.0","","656776a7904ae00d6b91d1dd","6568a96b709c0ee9bada53af","5","","","","","","","","","","","","13747","","{""P0_Q0"":null,""P0_Q1"":{""violence"":0,""crime"":1,""drug"":2,""schools"":3,""opportunities"":2}}","","","","","","5","[]","","","","",""
"dot matrix survey3","survey","68","324456","0.0-68.0","","656776a7904ae00d6b91d1dd","6568a96b709c0ee9bada53af","5","","","","","","","","","","","","12449","","{""P0_Q0"":null,""P0_Q1"":{""movein"":1,""moveout"":3,""shopping"":3,""walk"":1,""park"":3,""school"":3}}","","","","","","5","[]","","","","",""
"sliderTrial","html-slider-response","69","330329","0.0-69.0","","656776a7904ae00d6b91d1dd","6568a96b709c0ee9bada53af","5","","","","","","","","","","","","5867","[""SV_PolicingMSA/MI_1103/IMG_5_1103.jpg"",""SV_PolicingMSA/MI_1103/IMG_9_1103.jpg"",""SV_PolicingMSA/MI_1103/IMG_13_1103.jpg"",""SV_PolicingMSA/MI_1103/IMG_8_1103.jpg"",""SV_PolicingMSA/MI_1103/IMG_12_1103.jpg"",""SV_PolicingMSA/MI_1103/IMG_2_1103.jpg"",""SV_PolicingMSA/MI_1103/IMG_0_1103.jpg"",""SV_PolicingMSA/MI_1103/IMG_1_1103.jpg""]","3","","","","","","5","","4","[""./rc_img/cop_condGroup_12_CommunitySafety_autoscaled.png"",""./rc_img/cop_condGroup_12_SafeStreets_autoscaled.png""]","3","",""
"sliderTrial","html-slider-response","70","333939","0.0-70.0","","656776a7904ae00d6b91d1dd","6568a96b709c0ee9bada53af","5","","","","","","","","","","","","3607","[""SV_PolicingMSA/MI_1103/IMG_5_1103.jpg"",""SV_PolicingMSA/MI_1103/IMG_9_1103.jpg"",""SV_PolicingMSA/MI_1103/IMG_13_1103.jpg"",""SV_PolicingMSA/MI_1103/IMG_8_1103.jpg"",""SV_PolicingMSA/MI_1103/IMG_12_1103.jpg"",""SV_PolicingMSA/MI_1103/IMG_2_1103.jpg"",""SV_PolicingMSA/MI_1103/IMG_0_1103.jpg"",""SV_PolicingMSA/MI_1103/IMG_1_1103.jpg""]","3","","","","","","5","","4","[""./rc_img/cop_condGroup_18_CommunitySafety_autoscaled.png"",""./rc_img/cop_condGroup_18_SafeStreets_autoscaled.png""]","3","",""
"sliderTrial","html-slider-response","71","336736","0.0-71.0","","656776a7904ae00d6b91d1dd","6568a96b709c0ee9bada53af","5","","","","","","","","","","","","2794","[""SV_PolicingMSA/MI_1103/IMG_5_1103.jpg"",""SV_PolicingMSA/MI_1103/IMG_9_1103.jpg"",""SV_PolicingMSA/MI_1103/IMG_13_1103.jpg"",""SV_PolicingMSA/MI_1103/IMG_8_1103.jpg"",""SV_PolicingMSA/MI_1103/IMG_12_1103.jpg"",""SV_PolicingMSA/MI_1103/IMG_2_1103.jpg"",""SV_PolicingMSA/MI_1103/IMG_0_1103.jpg"",""SV_PolicingMSA/MI_1103/IMG_1_1103.jpg""]","5","","","","","","5","","4","[""./rc_img/cop_condGroup_9_SafeStreets_autoscaled.png"",""./rc_img/cop_condGroup_9_CommunitySafety_autoscaled.png""]","3","",""
"sliderTrial","html-slider-response","72","339304","0.0-72.0","","656776a7904ae00d6b91d1dd","6568a96b709c0ee9bada53af","5","","","","","","","","","","","","2565","[""SV_PolicingMSA/MI_1103/IMG_5_1103.jpg"",""SV_PolicingMSA/MI_1103/IMG_9_1103.jpg"",""SV_PolicingMSA/MI_1103/IMG_13_1103.jpg"",""SV_PolicingMSA/MI_1103/IMG_8_1103.jpg"",""SV_PolicingMSA/MI_1103/IMG_12_1103.jpg"",""SV_PolicingMSA/MI_1103/IMG_2_1103.jpg"",""SV_PolicingMSA/MI_1103/IMG_0_1103.jpg"",""SV_PolicingMSA/MI_1103/IMG_1_1103.jpg""]","3","","","","","","5","","4","[""./rc_img/cop_condGroup_10_CommunitySafety_autoscaled.png"",""./rc_img/cop_condGroup_10_SafeStreets_autoscaled.png""]","3","",""
"sliderTrial","html-slider-response","73","342881","0.0-73.0","","656776a7904ae00d6b91d1dd","6568a96b709c0ee9bada53af","5","","","","","","","","","","","","3573","[""SV_PolicingMSA/MI_1103/IMG_5_1103.jpg"",""SV_PolicingMSA/MI_1103/IMG_9_1103.jpg"",""SV_PolicingMSA/MI_1103/IMG_13_1103.jpg"",""SV_PolicingMSA/MI_1103/IMG_8_1103.jpg"",""SV_PolicingMSA/MI_1103/IMG_12_1103.jpg"",""SV_PolicingMSA/MI_1103/IMG_2_1103.jpg"",""SV_PolicingMSA/MI_1103/IMG_0_1103.jpg"",""SV_PolicingMSA/MI_1103/IMG_1_1103.jpg""]","5","","","","","","5","","4","[""./rc_img/cop_condGroup_20_SafeStreets_autoscaled.png"",""./rc_img/cop_condGroup_20_CommunitySafety_autoscaled.png""]","3","",""
"half-way","html-button-response","74","346940","0.0-74.0","","656776a7904ae00d6b91d1dd","6568a96b709c0ee9bada53af","5","","","","","","","","","","","","4055","
    <h3>You are now half way through the study.</h3>
    <p>Please take a quick, 15-second break before you continue.</p>
    <img src='assets/img/countdown-15.gif'>
    <p>The study will automatically advance forward after the countdown is complete. <br> However, you may click ""Next"" to advance forward now if you wish.</p>
    ","0","","","","","","","","","","","",""
"before_SVSlide_prompt","html-button-response","75","348152","0.0-75.0","","656776a7904ae00d6b91d1dd","6568a96b709c0ee9bada53af","5","","","","","","","","","","","","1212","Click [Next] to see the next neighborhood!","0","","","","","","","","","","","",""
"street view slide show","image-button-response","76","349168","0.0-76.0","","656776a7904ae00d6b91d1dd","6568a96b709c0ee9bada53af","5","","","","","","","","","","","","null","stimulus/SV_PolicingMSA/MI_1868/IMG_10_1868.jpg","null","","","","","","2","","","","","",""
"street view slide show","image-button-response","77","350180","0.0-77.0","","656776a7904ae00d6b91d1dd","6568a96b709c0ee9bada53af","5","","","","","","","","","","","","null","stimulus/SV_PolicingMSA/MI_1868/IMG_4_1868.jpg","null","","","","","","2","","","","","",""
"street view slide show","image-button-response","78","351194","0.0-78.0","","656776a7904ae00d6b91d1dd","6568a96b709c0ee9bada53af","5","","","","","","","","","","","","null","stimulus/SV_PolicingMSA/MI_1868/IMG_13_1868.jpg","null","","","","","","2","","","","","",""
"street view slide show","image-button-response","79","352210","0.0-79.0","","656776a7904ae00d6b91d1dd","6568a96b709c0ee9bada53af","5","","","","","","","","","","","","null","stimulus/SV_PolicingMSA/MI_1868/IMG_3_1868.jpg","null","","","","","","2","","","","","",""
"street view slide show","image-button-response","80","353224","0.0-80.0","","656776a7904ae00d6b91d1dd","6568a96b709c0ee9bada53af","5","","","","","","","","","","","","null","stimulus/SV_PolicingMSA/MI_1868/IMG_1_1868.jpg","null","","","","","","2","","","","","",""
"street view slide show","image-button-response","81","354226","0.0-81.0","","656776a7904ae00d6b91d1dd","6568a96b709c0ee9bada53af","5","","","","","","","","","","","","null","stimulus/SV_PolicingMSA/MI_1868/IMG_11_1868.jpg","null","","","","","","2","","","","","",""
"street view slide show","image-button-response","82","355238","0.0-82.0","","656776a7904ae00d6b91d1dd","6568a96b709c0ee9bada53af","5","","","","","","","","","","","","null","stimulus/SV_PolicingMSA/MI_1868/IMG_0_1868.jpg","null","","","","","","2","","","","","",""
"street view slide show","image-button-response","83","356250","0.0-83.0","","656776a7904ae00d6b91d1dd","6568a96b709c0ee9bada53af","5","","","","","","","","","","","","null","stimulus/SV_PolicingMSA/MI_1868/IMG_8_1868.jpg","null","","","","","","2","","","","","",""
"dot matrix survey1","survey","84","369736","0.0-84.0","","656776a7904ae00d6b91d1dd","6568a96b709c0ee9bada53af","5","","","","","","","","","","","","13471","","{""P0_Q0"":null,""P0_Q1"":{""wealthy"":2,""safe"":3,""walkable"":2,""traditional"":3,""diverse"":0}}","","","","","","2","[]","","","","",""
"dot matrix survey2","survey","85","380602","0.0-85.0","","656776a7904ae00d6b91d1dd","6568a96b709c0ee9bada53af","5","","","","","","","","","","","","10856","","{""P0_Q0"":null,""P0_Q1"":{""violence"":1,""crime"":1,""drug"":2,""schools"":3,""opportunities"":2}}","","","","","","2","[]","","","","",""
"dot matrix survey3","survey","86","393470","0.0-86.0","","656776a7904ae00d6b91d1dd","6568a96b709c0ee9bada53af","5","","","","","","","","","","","","12855","","{""P0_Q0"":null,""P0_Q1"":{""movein"":1,""moveout"":3,""shopping"":2,""walk"":1,""park"":3,""school"":3}}","","","","","","2","[]","","","","",""
"sliderTrial","html-slider-response","87","396700","0.0-87.0","","656776a7904ae00d6b91d1dd","6568a96b709c0ee9bada53af","5","","","","","","","","","","","","3226","[""SV_PolicingMSA/MI_1868/IMG_10_1868.jpg"",""SV_PolicingMSA/MI_1868/IMG_4_1868.jpg"",""SV_PolicingMSA/MI_1868/IMG_13_1868.jpg"",""SV_PolicingMSA/MI_1868/IMG_3_1868.jpg"",""SV_PolicingMSA/MI_1868/IMG_1_1868.jpg"",""SV_PolicingMSA/MI_1868/IMG_11_1868.jpg"",""SV_PolicingMSA/MI_1868/IMG_0_1868.jpg"",""SV_PolicingMSA/MI_1868/IMG_8_1868.jpg""]","3","","","","","","2","","4","[""./rc_img/cop_condGroup_1_CommunitySafety_autoscaled.png"",""./rc_img/cop_condGroup_1_SafeStreets_autoscaled.png""]","3","",""
"sliderTrial","html-slider-response","88","398686","0.0-88.0","","656776a7904ae00d6b91d1dd","6568a96b709c0ee9bada53af","5","","","","","","","","","","","","1982","[""SV_PolicingMSA/MI_1868/IMG_10_1868.jpg"",""SV_PolicingMSA/MI_1868/IMG_4_1868.jpg"",""SV_PolicingMSA/MI_1868/IMG_13_1868.jpg"",""SV_PolicingMSA/MI_1868/IMG_3_1868.jpg"",""SV_PolicingMSA/MI_1868/IMG_1_1868.jpg"",""SV_PolicingMSA/MI_1868/IMG_11_1868.jpg"",""SV_PolicingMSA/MI_1868/IMG_0_1868.jpg"",""SV_PolicingMSA/MI_1868/IMG_8_1868.jpg""]","5","","","","","","2","","4","[""./rc_img/cop_condGroup_17_SafeStreets_autoscaled.png"",""./rc_img/cop_condGroup_17_CommunitySafety_autoscaled.png""]","3","",""
"sliderTrial","html-slider-response","89","402702","0.0-89.0","","656776a7904ae00d6b91d1dd","6568a96b709c0ee9bada53af","5","","","","","","","","","","","","4014","[""SV_PolicingMSA/MI_1868/IMG_10_1868.jpg"",""SV_PolicingMSA/MI_1868/IMG_4_1868.jpg"",""SV_PolicingMSA/MI_1868/IMG_13_1868.jpg"",""SV_PolicingMSA/MI_1868/IMG_3_1868.jpg"",""SV_PolicingMSA/MI_1868/IMG_1_1868.jpg"",""SV_PolicingMSA/MI_1868/IMG_11_1868.jpg"",""SV_PolicingMSA/MI_1868/IMG_0_1868.jpg"",""SV_PolicingMSA/MI_1868/IMG_8_1868.jpg""]","5","","","","","","2","","4","[""./rc_img/cop_condGroup_6_SafeStreets_autoscaled.png"",""./rc_img/cop_condGroup_6_CommunitySafety_autoscaled.png""]","3","",""
"sliderTrial","html-slider-response","90","405689","0.0-90.0","","656776a7904ae00d6b91d1dd","6568a96b709c0ee9bada53af","5","","","","","","","","","","","","2984","[""SV_PolicingMSA/MI_1868/IMG_10_1868.jpg"",""SV_PolicingMSA/MI_1868/IMG_4_1868.jpg"",""SV_PolicingMSA/MI_1868/IMG_13_1868.jpg"",""SV_PolicingMSA/MI_1868/IMG_3_1868.jpg"",""SV_PolicingMSA/MI_1868/IMG_1_1868.jpg"",""SV_PolicingMSA/MI_1868/IMG_11_1868.jpg"",""SV_PolicingMSA/MI_1868/IMG_0_1868.jpg"",""SV_PolicingMSA/MI_1868/IMG_8_1868.jpg""]","5","","","","","","2","","4","[""./rc_img/cop_condGroup_13_SafeStreets_autoscaled.png"",""./rc_img/cop_condGroup_13_CommunitySafety_autoscaled.png""]","3","",""
"sliderTrial","html-slider-response","91","408237","0.0-91.0","","656776a7904ae00d6b91d1dd","6568a96b709c0ee9bada53af","5","","","","","","","","","","","","2545","[""SV_PolicingMSA/MI_1868/IMG_10_1868.jpg"",""SV_PolicingMSA/MI_1868/IMG_4_1868.jpg"",""SV_PolicingMSA/MI_1868/IMG_13_1868.jpg"",""SV_PolicingMSA/MI_1868/IMG_3_1868.jpg"",""SV_PolicingMSA/MI_1868/IMG_1_1868.jpg"",""SV_PolicingMSA/MI_1868/IMG_11_1868.jpg"",""SV_PolicingMSA/MI_1868/IMG_0_1868.jpg"",""SV_PolicingMSA/MI_1868/IMG_8_1868.jpg""]","3","","","","","","2","","4","[""./rc_img/cop_condGroup_19_CommunitySafety_autoscaled.png"",""./rc_img/cop_condGroup_19_SafeStreets_autoscaled.png""]","3","",""
"before_SVSlide_prompt","html-button-response","92","409387","0.0-92.0","","656776a7904ae00d6b91d1dd","6568a96b709c0ee9bada53af","5","","","","","","","","","","","","1149","Click [Next] to see the next neighborhood!","0","","","","","","","","","","","",""
"street view slide show","image-button-response","93","410395","0.0-93.0","","656776a7904ae00d6b91d1dd","6568a96b709c0ee9bada53af","5","","","","","","","","","","","","null","stimulus/SV_PolicingMSA/MI_1808/IMG_10_1808.jpg","null","","","","","","1","","","","","",""
"street view slide show","image-button-response","94","411400","0.0-94.0","","656776a7904ae00d6b91d1dd","6568a96b709c0ee9bada53af","5","","","","","","","","","","","","null","stimulus/SV_PolicingMSA/MI_1808/IMG_4_1808.jpg","null","","","","","","1","","","","","",""
"street view slide show","image-button-response","95","412413","0.0-95.0","","656776a7904ae00d6b91d1dd","6568a96b709c0ee9bada53af","5","","","","","","","","","","","","null","stimulus/SV_PolicingMSA/MI_1808/IMG_0_1808.jpg","null","","","","","","1","","","","","",""
"street view slide show","image-button-response","96","413427","0.0-96.0","","656776a7904ae00d6b91d1dd","6568a96b709c0ee9bada53af","5","","","","","","","","","","","","null","stimulus/SV_PolicingMSA/MI_1808/IMG_5_1808.jpg","null","","","","","","1","","","","","",""
"street view slide show","image-button-response","97","414429","0.0-97.0","","656776a7904ae00d6b91d1dd","6568a96b709c0ee9bada53af","5","","","","","","","","","","","","null","stimulus/SV_PolicingMSA/MI_1808/IMG_7_1808.jpg","null","","","","","","1","","","","","",""
"street view slide show","image-button-response","98","415443","0.0-98.0","","656776a7904ae00d6b91d1dd","6568a96b709c0ee9bada53af","5","","","","","","","","","","","","null","stimulus/SV_PolicingMSA/MI_1808/IMG_3_1808.jpg","null","","","","","","1","","","","","",""
"street view slide show","image-button-response","99","416458","0.0-99.0","","656776a7904ae00d6b91d1dd","6568a96b709c0ee9bada53af","5","","","","","","","","","","","","null","stimulus/SV_PolicingMSA/MI_1808/IMG_13_1808.jpg","null","","","","","","1","","","","","",""
"street view slide show","image-button-response","100","417468","0.0-100.0","","656776a7904ae00d6b91d1dd","6568a96b709c0ee9bada53af","5","","","","","","","","","","","","null","stimulus/SV_PolicingMSA/MI_1808/IMG_14_1808.jpg","null","","","","","","1","","","","","",""
"dot matrix survey1","survey","101","432712","0.0-101.0","","656776a7904ae00d6b91d1dd","6568a96b709c0ee9bada53af","5","","","","","","","","","","","","15230","","{""P0_Q0"":null,""P0_Q1"":{""wealthy"":1,""safe"":2,""walkable"":2,""traditional"":2,""diverse"":0}}","","","","","","1","[]","","","","",""
"dot matrix survey2","survey","102","443820","0.0-102.0","","656776a7904ae00d6b91d1dd","6568a96b709c0ee9bada53af","5","","","","","","","","","","","","11095","","{""P0_Q0"":null,""P0_Q1"":{""violence"":1,""crime"":1,""drug"":3,""schools"":2,""opportunities"":1}}","","","","","","1","[]","","","","",""
"dot matrix survey3","survey","103","456883","0.0-103.0","","656776a7904ae00d6b91d1dd","6568a96b709c0ee9bada53af","5","","","","","","","","","","","","13052","","{""P0_Q0"":null,""P0_Q1"":{""movein"":1,""moveout"":3,""shopping"":2,""walk"":1,""park"":2,""school"":1}}","","","","","","1","[]","","","","",""
"sliderTrial","html-slider-response","104","461214","0.0-104.0","","656776a7904ae00d6b91d1dd","6568a96b709c0ee9bada53af","5","","","","","","","","","","","","4326","[""SV_PolicingMSA/MI_1808/IMG_10_1808.jpg"",""SV_PolicingMSA/MI_1808/IMG_4_1808.jpg"",""SV_PolicingMSA/MI_1808/IMG_0_1808.jpg"",""SV_PolicingMSA/MI_1808/IMG_5_1808.jpg"",""SV_PolicingMSA/MI_1808/IMG_7_1808.jpg"",""SV_PolicingMSA/MI_1808/IMG_3_1808.jpg"",""SV_PolicingMSA/MI_1808/IMG_13_1808.jpg"",""SV_PolicingMSA/MI_1808/IMG_14_1808.jpg""]","3","","","","","","1","","4","[""./rc_img/cop_condGroup_5_CommunitySafety_autoscaled.png"",""./rc_img/cop_condGroup_5_SafeStreets_autoscaled.png""]","3","",""
"sliderTrial","html-slider-response","105","463060","0.0-105.0","","656776a7904ae00d6b91d1dd","6568a96b709c0ee9bada53af","5","","","","","","","","","","","","1841","[""SV_PolicingMSA/MI_1808/IMG_10_1808.jpg"",""SV_PolicingMSA/MI_1808/IMG_4_1808.jpg"",""SV_PolicingMSA/MI_1808/IMG_0_1808.jpg"",""SV_PolicingMSA/MI_1808/IMG_5_1808.jpg"",""SV_PolicingMSA/MI_1808/IMG_7_1808.jpg"",""SV_PolicingMSA/MI_1808/IMG_3_1808.jpg"",""SV_PolicingMSA/MI_1808/IMG_13_1808.jpg"",""SV_PolicingMSA/MI_1808/IMG_14_1808.jpg""]","5","","","","","","1","","4","[""./rc_img/cop_condGroup_8_SafeStreets_autoscaled.png"",""./rc_img/cop_condGroup_8_CommunitySafety_autoscaled.png""]","3","",""
"sliderTrial","html-slider-response","106","466404","0.0-106.0","","656776a7904ae00d6b91d1dd","6568a96b709c0ee9bada53af","5","","","","","","","","","","","","3341","[""SV_PolicingMSA/MI_1808/IMG_10_1808.jpg"",""SV_PolicingMSA/MI_1808/IMG_4_1808.jpg"",""SV_PolicingMSA/MI_1808/IMG_0_1808.jpg"",""SV_PolicingMSA/MI_1808/IMG_5_1808.jpg"",""SV_PolicingMSA/MI_1808/IMG_7_1808.jpg"",""SV_PolicingMSA/MI_1808/IMG_3_1808.jpg"",""SV_PolicingMSA/MI_1808/IMG_13_1808.jpg"",""SV_PolicingMSA/MI_1808/IMG_14_1808.jpg""]","3","","","","","","1","","4","[""./rc_img/cop_condGroup_7_CommunitySafety_autoscaled.png"",""./rc_img/cop_condGroup_7_SafeStreets_autoscaled.png""]","3","",""
"sliderTrial","html-slider-response","107","468618","0.0-107.0","","656776a7904ae00d6b91d1dd","6568a96b709c0ee9bada53af","5","","","","","","","","","","","","2211","[""SV_PolicingMSA/MI_1808/IMG_10_1808.jpg"",""SV_PolicingMSA/MI_1808/IMG_4_1808.jpg"",""SV_PolicingMSA/MI_1808/IMG_0_1808.jpg"",""SV_PolicingMSA/MI_1808/IMG_5_1808.jpg"",""SV_PolicingMSA/MI_1808/IMG_7_1808.jpg"",""SV_PolicingMSA/MI_1808/IMG_3_1808.jpg"",""SV_PolicingMSA/MI_1808/IMG_13_1808.jpg"",""SV_PolicingMSA/MI_1808/IMG_14_1808.jpg""]","5","","","","","","1","","4","[""./rc_img/cop_condGroup_15_SafeStreets_autoscaled.png"",""./rc_img/cop_condGroup_15_CommunitySafety_autoscaled.png""]","3","",""
"sliderTrial_attention","html-slider-response","108","478629","0.0-108.0","","656776a7904ae00d6b91d1dd","6568a96b709c0ee9bada53af","5","","","","","","","","","","","","null","[""SV_PolicingMSA/MI_1808/IMG_10_1808.jpg"",""SV_PolicingMSA/MI_1808/IMG_4_1808.jpg"",""SV_PolicingMSA/MI_1808/IMG_0_1808.jpg"",""SV_PolicingMSA/MI_1808/IMG_5_1808.jpg"",""SV_PolicingMSA/MI_1808/IMG_7_1808.jpg"",""SV_PolicingMSA/MI_1808/IMG_3_1808.jpg"",""SV_PolicingMSA/MI_1808/IMG_13_1808.jpg"",""SV_PolicingMSA/MI_1808/IMG_14_1808.jpg""]","null","","","","","","1","","4","[""./assets/img/attnchk.png"",""./assets/img/attnchk.png""]","","true",""
"sliderTrial","html-slider-response","109","483205","0.0-109.0","","656776a7904ae00d6b91d1dd","6568a96b709c0ee9bada53af","5","","","","","","","","","","","","4573","[""SV_PolicingMSA/MI_1808/IMG_10_1808.jpg"",""SV_PolicingMSA/MI_1808/IMG_4_1808.jpg"",""SV_PolicingMSA/MI_1808/IMG_0_1808.jpg"",""SV_PolicingMSA/MI_1808/IMG_5_1808.jpg"",""SV_PolicingMSA/MI_1808/IMG_7_1808.jpg"",""SV_PolicingMSA/MI_1808/IMG_3_1808.jpg"",""SV_PolicingMSA/MI_1808/IMG_13_1808.jpg"",""SV_PolicingMSA/MI_1808/IMG_14_1808.jpg""]","5","","","","","","1","","4","[""./rc_img/cop_condGroup_14_SafeStreets_autoscaled.png"",""./rc_img/cop_condGroup_14_CommunitySafety_autoscaled.png""]","3","",""
"before_SVSlide_prompt","html-button-response","110","484332","0.0-110.0","","656776a7904ae00d6b91d1dd","6568a96b709c0ee9bada53af","5","","","","","","","","","","","","1126","Click [Next] to see the next neighborhood!","0","","","","","","","","","","","",""
"street view slide show","image-button-response","111","485343","0.0-111.0","","656776a7904ae00d6b91d1dd","6568a96b709c0ee9bada53af","5","","","","","","","","","","","","null","stimulus/SV_PolicingMSA/MI_2582/IMG_11_2582.jpg","null","","","","","","3","","","","","",""
"street view slide show","image-button-response","112","486358","0.0-112.0","","656776a7904ae00d6b91d1dd","6568a96b709c0ee9bada53af","5","","","","","","","","","","","","null","stimulus/SV_PolicingMSA/MI_2582/IMG_4_2582.jpg","null","","","","","","3","","","","","",""
"street view slide show","image-button-response","113","487372","0.0-113.0","","656776a7904ae00d6b91d1dd","6568a96b709c0ee9bada53af","5","","","","","","","","","","","","null","stimulus/SV_PolicingMSA/MI_2582/IMG_3_2582.jpg","null","","","","","","3","","","","","",""
"street view slide show","image-button-response","114","488382","0.0-114.0","","656776a7904ae00d6b91d1dd","6568a96b709c0ee9bada53af","5","","","","","","","","","","","","null","stimulus/SV_PolicingMSA/MI_2582/IMG_1_2582.jpg","null","","","","","","3","","","","","",""
"street view slide show","image-button-response","115","489397","0.0-115.0","","656776a7904ae00d6b91d1dd","6568a96b709c0ee9bada53af","5","","","","","","","","","","","","null","stimulus/SV_PolicingMSA/MI_2582/IMG_9_2582.jpg","null","","","","","","3","","","","","",""
"street view slide show","image-button-response","116","490413","0.0-116.0","","656776a7904ae00d6b91d1dd","6568a96b709c0ee9bada53af","5","","","","","","","","","","","","null","stimulus/SV_PolicingMSA/MI_2582/IMG_10_2582.jpg","null","","","","","","3","","","","","",""
"street view slide show","image-button-response","117","491430","0.0-117.0","","656776a7904ae00d6b91d1dd","6568a96b709c0ee9bada53af","5","","","","","","","","","","","","null","stimulus/SV_PolicingMSA/MI_2582/IMG_7_2582.jpg","null","","","","","","3","","","","","",""
"street view slide show","image-button-response","118","492446","0.0-118.0","","656776a7904ae00d6b91d1dd","6568a96b709c0ee9bada53af","5","","","","","","","","","","","","null","stimulus/SV_PolicingMSA/MI_2582/IMG_5_2582.jpg","null","","","","","","3","","","","","",""
"dot matrix survey1","survey","119","542901","0.0-119.0","","656776a7904ae00d6b91d1dd","6568a96b709c0ee9bada53af","5","","","","","","","","","","","","50439","","{""P0_Q0"":null,""P0_Q1"":{""wealthy"":1,""safe"":2,""walkable"":1,""traditional"":3,""diverse"":0}}","","","","","","3","[]","","","","",""
"dot matrix survey2","survey","120","562036","0.0-120.0","","656776a7904ae00d6b91d1dd","6568a96b709c0ee9bada53af","5","","","","","","","","","","","","19125","","{""P0_Q0"":null,""P0_Q1"":{""violence"":1,""crime"":1,""drug"":3,""schools"":2,""opportunities"":1}}","","","","","","3","[]","","","","",""
"dot matrix survey3","survey","121","602278","0.0-121.0","","656776a7904ae00d6b91d1dd","6568a96b709c0ee9bada53af","5","","","","","","","","","","","","40230","","{""P0_Q0"":null,""P0_Q1"":{""movein"":1,""moveout"":3,""shopping"":2,""walk"":1,""park"":2,""school"":2}}","","","","","","3","[]","","","","",""
"sliderTrial","html-slider-response","122","607619","0.0-122.0","","656776a7904ae00d6b91d1dd","6568a96b709c0ee9bada53af","5","","","","","","","","","","","","5338","[""SV_PolicingMSA/MI_2582/IMG_11_2582.jpg"",""SV_PolicingMSA/MI_2582/IMG_4_2582.jpg"",""SV_PolicingMSA/MI_2582/IMG_3_2582.jpg"",""SV_PolicingMSA/MI_2582/IMG_1_2582.jpg"",""SV_PolicingMSA/MI_2582/IMG_9_2582.jpg"",""SV_PolicingMSA/MI_2582/IMG_10_2582.jpg"",""SV_PolicingMSA/MI_2582/IMG_7_2582.jpg"",""SV_PolicingMSA/MI_2582/IMG_5_2582.jpg""]","3","","","","","","3","","4","[""./rc_img/cop_condGroup_5_CommunitySafety_autoscaled.png"",""./rc_img/cop_condGroup_5_SafeStreets_autoscaled.png""]","3","",""
"sliderTrial","html-slider-response","123","609853","0.0-123.0","","656776a7904ae00d6b91d1dd","6568a96b709c0ee9bada53af","5","","","","","","","","","","","","2230","[""SV_PolicingMSA/MI_2582/IMG_11_2582.jpg"",""SV_PolicingMSA/MI_2582/IMG_4_2582.jpg"",""SV_PolicingMSA/MI_2582/IMG_3_2582.jpg"",""SV_PolicingMSA/MI_2582/IMG_1_2582.jpg"",""SV_PolicingMSA/MI_2582/IMG_9_2582.jpg"",""SV_PolicingMSA/MI_2582/IMG_10_2582.jpg"",""SV_PolicingMSA/MI_2582/IMG_7_2582.jpg"",""SV_PolicingMSA/MI_2582/IMG_5_2582.jpg""]","5","","","","","","3","","4","[""./rc_img/cop_condGroup_8_SafeStreets_autoscaled.png"",""./rc_img/cop_condGroup_8_CommunitySafety_autoscaled.png""]","3","",""
"sliderTrial","html-slider-response","124","613158","0.0-124.0","","656776a7904ae00d6b91d1dd","6568a96b709c0ee9bada53af","5","","","","","","","","","","","","3302","[""SV_PolicingMSA/MI_2582/IMG_11_2582.jpg"",""SV_PolicingMSA/MI_2582/IMG_4_2582.jpg"",""SV_PolicingMSA/MI_2582/IMG_3_2582.jpg"",""SV_PolicingMSA/MI_2582/IMG_1_2582.jpg"",""SV_PolicingMSA/MI_2582/IMG_9_2582.jpg"",""SV_PolicingMSA/MI_2582/IMG_10_2582.jpg"",""SV_PolicingMSA/MI_2582/IMG_7_2582.jpg"",""SV_PolicingMSA/MI_2582/IMG_5_2582.jpg""]","3","","","","","","3","","4","[""./rc_img/cop_condGroup_7_CommunitySafety_autoscaled.png"",""./rc_img/cop_condGroup_7_SafeStreets_autoscaled.png""]","3","",""
"sliderTrial","html-slider-response","125","615895","0.0-125.0","","656776a7904ae00d6b91d1dd","6568a96b709c0ee9bada53af","5","","","","","","","","","","","","2734","[""SV_PolicingMSA/MI_2582/IMG_11_2582.jpg"",""SV_PolicingMSA/MI_2582/IMG_4_2582.jpg"",""SV_PolicingMSA/MI_2582/IMG_3_2582.jpg"",""SV_PolicingMSA/MI_2582/IMG_1_2582.jpg"",""SV_PolicingMSA/MI_2582/IMG_9_2582.jpg"",""SV_PolicingMSA/MI_2582/IMG_10_2582.jpg"",""SV_PolicingMSA/MI_2582/IMG_7_2582.jpg"",""SV_PolicingMSA/MI_2582/IMG_5_2582.jpg""]","5","","","","","","3","","4","[""./rc_img/cop_condGroup_15_SafeStreets_autoscaled.png"",""./rc_img/cop_condGroup_15_CommunitySafety_autoscaled.png""]","3","",""
"sliderTrial","html-slider-response","126","618300","0.0-126.0","","656776a7904ae00d6b91d1dd","6568a96b709c0ee9bada53af","5","","","","","","","","","","","","2401","[""SV_PolicingMSA/MI_2582/IMG_11_2582.jpg"",""SV_PolicingMSA/MI_2582/IMG_4_2582.jpg"",""SV_PolicingMSA/MI_2582/IMG_3_2582.jpg"",""SV_PolicingMSA/MI_2582/IMG_1_2582.jpg"",""SV_PolicingMSA/MI_2582/IMG_9_2582.jpg"",""SV_PolicingMSA/MI_2582/IMG_10_2582.jpg"",""SV_PolicingMSA/MI_2582/IMG_7_2582.jpg"",""SV_PolicingMSA/MI_2582/IMG_5_2582.jpg""]","5","","","","","","3","","4","[""./rc_img/cop_condGroup_14_SafeStreets_autoscaled.png"",""./rc_img/cop_condGroup_14_CommunitySafety_autoscaled.png""]","3","",""
"before_SVSlide_prompt","html-button-response","127","619682","0.0-127.0","","656776a7904ae00d6b91d1dd","6568a96b709c0ee9bada53af","5","","","","","","","","","","","","1380","Click [Next] to see the next neighborhood!","0","","","","","","","","","","","",""
"street view slide show","image-button-response","128","620692","0.0-128.0","","656776a7904ae00d6b91d1dd","6568a96b709c0ee9bada53af","5","","","","","","","","","","","","null","stimulus/SV_PolicingMSA/MI_1804/IMG_12_1804.jpg","null","","","","","","0","","","","","",""
"street view slide show","image-button-response","129","621707","0.0-129.0","","656776a7904ae00d6b91d1dd","6568a96b709c0ee9bada53af","5","","","","","","","","","","","","null","stimulus/SV_PolicingMSA/MI_1804/IMG_0_1804.jpg","null","","","","","","0","","","","","",""
"street view slide show","image-button-response","130","622720","0.0-130.0","","656776a7904ae00d6b91d1dd","6568a96b709c0ee9bada53af","5","","","","","","","","","","","","null","stimulus/SV_PolicingMSA/MI_1804/IMG_8_1804.jpg","null","","","","","","0","","","","","",""
"street view slide show","image-button-response","131","623728","0.0-131.0","","656776a7904ae00d6b91d1dd","6568a96b709c0ee9bada53af","5","","","","","","","","","","","","null","stimulus/SV_PolicingMSA/MI_1804/IMG_9_1804.jpg","null","","","","","","0","","","","","",""
"street view slide show","image-button-response","132","624743","0.0-132.0","","656776a7904ae00d6b91d1dd","6568a96b709c0ee9bada53af","5","","","","","","","","","","","","null","stimulus/SV_PolicingMSA/MI_1804/IMG_3_1804.jpg","null","","","","","","0","","","","","",""
"street view slide show","image-button-response","133","625755","0.0-133.0","","656776a7904ae00d6b91d1dd","6568a96b709c0ee9bada53af","5","","","","","","","","","","","","null","stimulus/SV_PolicingMSA/MI_1804/IMG_14_1804.jpg","null","","","","","","0","","","","","",""
"street view slide show","image-button-response","134","626766","0.0-134.0","","656776a7904ae00d6b91d1dd","6568a96b709c0ee9bada53af","5","","","","","","","","","","","","null","stimulus/SV_PolicingMSA/MI_1804/IMG_7_1804.jpg","null","","","","","","0","","","","","",""
"street view slide show","image-button-response","135","627776","0.0-135.0","","656776a7904ae00d6b91d1dd","6568a96b709c0ee9bada53af","5","","","","","","","","","","","","null","stimulus/SV_PolicingMSA/MI_1804/IMG_5_1804.jpg","null","","","","","","0","","","","","",""
"dot matrix survey1","survey","136","636103","0.0-136.0","","656776a7904ae00d6b91d1dd","6568a96b709c0ee9bada53af","5","","","","","","","","","","","","8314","","{""P0_Q0"":null,""P0_Q1"":{""wealthy"":1,""safe"":2,""walkable"":1,""traditional"":2,""diverse"":0}}","","","","","","0","[]","","","","",""
"dot matrix survey2","survey","137","644606","0.0-137.0","","656776a7904ae00d6b91d1dd","6568a96b709c0ee9bada53af","5","","","","","","","","","","","","8491","","{""P0_Q0"":null,""P0_Q1"":{""violence"":1,""crime"":1,""drug"":3,""schools"":2,""opportunities"":1}}","","","","","","0","[]","","","","",""
"dot matrix survey3","survey","138","656046","0.0-138.0","","656776a7904ae00d6b91d1dd","6568a96b709c0ee9bada53af","5","","","","","","","","","","","","11429","","{""P0_Q0"":null,""P0_Q1"":{""movein"":1,""moveout"":3,""shopping"":2,""walk"":1,""park"":3,""school"":2}}","","","","","","0","[]","","","","",""
"sliderTrial","html-slider-response","139","659353","0.0-139.0","","656776a7904ae00d6b91d1dd","6568a96b709c0ee9bada53af","5","","","","","","","","","","","","3305","[""SV_PolicingMSA/MI_1804/IMG_12_1804.jpg"",""SV_PolicingMSA/MI_1804/IMG_0_1804.jpg"",""SV_PolicingMSA/MI_1804/IMG_8_1804.jpg"",""SV_PolicingMSA/MI_1804/IMG_9_1804.jpg"",""SV_PolicingMSA/MI_1804/IMG_3_1804.jpg"",""SV_PolicingMSA/MI_1804/IMG_14_1804.jpg"",""SV_PolicingMSA/MI_1804/IMG_7_1804.jpg"",""SV_PolicingMSA/MI_1804/IMG_5_1804.jpg""]","3","","","","","","0","","4","[""./rc_img/cop_condGroup_3_CommunitySafety_autoscaled.png"",""./rc_img/cop_condGroup_3_SafeStreets_autoscaled.png""]","3","",""
"sliderTrial","html-slider-response","140","661487","0.0-140.0","","656776a7904ae00d6b91d1dd","6568a96b709c0ee9bada53af","5","","","","","","","","","","","","2131","[""SV_PolicingMSA/MI_1804/IMG_12_1804.jpg"",""SV_PolicingMSA/MI_1804/IMG_0_1804.jpg"",""SV_PolicingMSA/MI_1804/IMG_8_1804.jpg"",""SV_PolicingMSA/MI_1804/IMG_9_1804.jpg"",""SV_PolicingMSA/MI_1804/IMG_3_1804.jpg"",""SV_PolicingMSA/MI_1804/IMG_14_1804.jpg"",""SV_PolicingMSA/MI_1804/IMG_7_1804.jpg"",""SV_PolicingMSA/MI_1804/IMG_5_1804.jpg""]","3","","","","","","0","","4","[""./rc_img/cop_condGroup_2_CommunitySafety_autoscaled.png"",""./rc_img/cop_condGroup_2_SafeStreets_autoscaled.png""]","3","",""
"sliderTrial_attention","html-slider-response","141","671507","0.0-141.0","","656776a7904ae00d6b91d1dd","6568a96b709c0ee9bada53af","5","","","","","","","","","","","","null","[""SV_PolicingMSA/MI_1804/IMG_12_1804.jpg"",""SV_PolicingMSA/MI_1804/IMG_0_1804.jpg"",""SV_PolicingMSA/MI_1804/IMG_8_1804.jpg"",""SV_PolicingMSA/MI_1804/IMG_9_1804.jpg"",""SV_PolicingMSA/MI_1804/IMG_3_1804.jpg"",""SV_PolicingMSA/MI_1804/IMG_14_1804.jpg"",""SV_PolicingMSA/MI_1804/IMG_7_1804.jpg"",""SV_PolicingMSA/MI_1804/IMG_5_1804.jpg""]","null","","","","","","0","","4","[""./assets/img/attnchk.png"",""./assets/img/attnchk.png""]","","true",""
"sliderTrial","html-slider-response","142","674161","0.0-142.0","","656776a7904ae00d6b91d1dd","6568a96b709c0ee9bada53af","5","","","","","","","","","","","","2651","[""SV_PolicingMSA/MI_1804/IMG_12_1804.jpg"",""SV_PolicingMSA/MI_1804/IMG_0_1804.jpg"",""SV_PolicingMSA/MI_1804/IMG_8_1804.jpg"",""SV_PolicingMSA/MI_1804/IMG_9_1804.jpg"",""SV_PolicingMSA/MI_1804/IMG_3_1804.jpg"",""SV_PolicingMSA/MI_1804/IMG_14_1804.jpg"",""SV_PolicingMSA/MI_1804/IMG_7_1804.jpg"",""SV_PolicingMSA/MI_1804/IMG_5_1804.jpg""]","3","","","","","","0","","4","[""./rc_img/cop_condGroup_11_CommunitySafety_autoscaled.png"",""./rc_img/cop_condGroup_11_SafeStreets_autoscaled.png""]","3","",""
"sliderTrial","html-slider-response","143","680295","0.0-143.0","","656776a7904ae00d6b91d1dd","6568a96b709c0ee9bada53af","5","","","","","","","","","","","","6131","[""SV_PolicingMSA/MI_1804/IMG_12_1804.jpg"",""SV_PolicingMSA/MI_1804/IMG_0_1804.jpg"",""SV_PolicingMSA/MI_1804/IMG_8_1804.jpg"",""SV_PolicingMSA/MI_1804/IMG_9_1804.jpg"",""SV_PolicingMSA/MI_1804/IMG_3_1804.jpg"",""SV_PolicingMSA/MI_1804/IMG_14_1804.jpg"",""SV_PolicingMSA/MI_1804/IMG_7_1804.jpg"",""SV_PolicingMSA/MI_1804/IMG_5_1804.jpg""]","5","","","","","","0","","4","[""./rc_img/cop_condGroup_16_SafeStreets_autoscaled.png"",""./rc_img/cop_condGroup_16_CommunitySafety_autoscaled.png""]","3","",""
"sliderTrial","html-slider-response","144","682875","0.0-144.0","","656776a7904ae00d6b91d1dd","6568a96b709c0ee9bada53af","5","","","","","","","","","","","","2577","[""SV_PolicingMSA/MI_1804/IMG_12_1804.jpg"",""SV_PolicingMSA/MI_1804/IMG_0_1804.jpg"",""SV_PolicingMSA/MI_1804/IMG_8_1804.jpg"",""SV_PolicingMSA/MI_1804/IMG_9_1804.jpg"",""SV_PolicingMSA/MI_1804/IMG_3_1804.jpg"",""SV_PolicingMSA/MI_1804/IMG_14_1804.jpg"",""SV_PolicingMSA/MI_1804/IMG_7_1804.jpg"",""SV_PolicingMSA/MI_1804/IMG_5_1804.jpg""]","5","","","","","","0","","4","[""./rc_img/cop_condGroup_4_SafeStreets_autoscaled.png"",""./rc_img/cop_condGroup_4_CommunitySafety_autoscaled.png""]","3","",""
"demographics","survey-html-form","145","713799","0.0-145.0","","656776a7904ae00d6b91d1dd","6568a96b709c0ee9bada53af","5","","","","","","","","","","","","30919","","{""age"":""24"",""sex"":""female"",""gender"":""woman"",""gender-self-describe"":"""",""zipcode"":""11237""}","","","","","","","","","","","",""
"demographics-list","survey","146","745035","0.0-146.0","","656776a7904ae00d6b91d1dd","6568a96b709c0ee9bada53af","5","","","","","","","","","","","","31185","","{""P0_Q0"":null,""race-ethnicity"":[""White or of European ancestry""],""education"":""Bachelor’s degree"",""P1_Q0"":null,""ideology"":""Very Liberal"",""P2_Q0"":null,""num-moves"":1,""P3_Q0"":null,""social-ladder"":6}","","","","","","","[]","","","","",""
"end-survey","survey-text","147","759423","0.0-147.0","","656776a7904ae00d6b91d1dd","6568a96b709c0ee9bada53af","5","","","","","","","","","","","","14373","","{""Q0"":""""}","","","","","","","","","","","","2"
"end-survey","html-button-response","148","761238","0.0-148.0","","656776a7904ae00d6b91d1dd","6568a96b709c0ee9bada53af","5","","","","","","","","","","","","1812","
    You've reached the end of the survey. <br><br> 
    <b>Do not close or refresh this window.</b><br>
    On the next page, you will be automatically redirected to Prolific. <br><br>

    <div class=""alert alert-warning""><b>
    </div>
","0","","","","","","","","","","","",""
