"task","trial_type","trial_index","time_elapsed","internal_node_id","subject_id","study_id","session_id","section","width","height","webaudio","browser","browser_version","mobile","os","fullscreen","vsync_rate","webcam","microphone","rt","stimulus","response","success","timeout","failed_images","failed_audio","failed_video","block","accuracy","slider_start","choices","standardized_response","correct","num_attention_checks_correct"
"pavlovia-init","pavlovia","0","965","0.0-0.0","","656776a7904ae00d6b91d1dd","6568ae2f8afd6b009da7efb9","7","","","","","","","","","","","","","","","","","","","","","","","","","",""
"browser-check","browser-check","1","1975","0.0-1.0","","656776a7904ae00d6b91d1dd","6568ae2f8afd6b009da7efb9","7","1366","643","true","chrome","119.0.0","false","Windows 10","true","60.12","true","true","","","","","","","","","","","","","","",""
"consent","html-button-response","2","5730","0.0-2.0","","656776a7904ae00d6b91d1dd","6568ae2f8afd6b009da7efb9","7","","","","","","","","","","","","3753","
        <div style=""font-size: 80%; max-width:700px"">
            <h2>CONSENT FORM</h2>
        
            <div style=""text-align: left"">
            <h4>DESCRIPTION</h4>
            <p>
            You will complete a short task where you give your impressions of various neighborhoods and assign individuals to those spaces, and answer some questions about your thoughts and opinions.<br>
            The University of Michigan Institutional Review Board Health Sciences and Behavioral Sciences has determined that this study is exempt from IRB oversight.
            </p>

            <h4>TIME INVOLVEMENT</h4>
            <p>Your participation will take approximately 15 minutes. You will receive $3.15 upon completion of the study.</p>
        
            <h4>RISKS AND BENEFITS</h4>
            <p>
            The risks associated with this study are minimal. The benefits which may reasonably be expected to result from this study are none. We cannot and do not guarantee or promise that you will receive any benefits from this study.
            </p>
          
            <h4>SUBJECT'S RIGHTS</h4>
            <p>
            If you have read this form and have decided to participate in this project, please understand your participation is voluntary and you have the right to withdraw your consent or discontinue participation at any time without penalty or loss of benefits to which you are otherwise entitled. The alternative is not to participate. You have the right to refuse to answer particular questions. Your individual privacy will be maintained in all published and written data resulting from the study.
            </p>

            <h4>HUMAN SUBJECT APPROVAL</h4>
            <p>
            This study is exempt from ongoing IRB review.
            </p>

            <h4>CONTACT INFORMATION</h4>
            If you have any questions, concerns or complaints about this research, its procedures, risks and benefits, contact the Protocol Director, Nicholas Camp, npcamp@umich.edu, (443) 851-6783. <br>

            If you have questions about your rights as a research participant, or wish to obtain information, ask questions or discuss any concerns about this study with someone other than the researcher(s), please contact the following:<br><br>
            University of Michigan<br>
            Health Sciences and Behavioral Sciences Institutional Review Board (IRB-HSBS)<br>
            2800 Plymouth Road<br>
            Building 520, Room 1169Ann Arbor, MI 48109-2800<br>
            Telephone: 734-936-0933 or toll free (866) 936-0933<br>
            Fax: 734-936-1852<br>
            E-mail: irbhsbs@umich.edu<br><br>

            You can also contact the University of Michigan Compliance Hotline at 1-866-990-0111. You may also print this consent form to keep.
            <br><br>
            <div class=""alert alert-warning""><b>
            Do you consent to participate in this study? If you consent to participate in this study, please click “Accept and Continue”. If you select ""Decline and Exit"", you will be exited from the survey. <br>
            </b></div>
            </div>
        </div>
    ","1","","","","","","","","","","","",""
"","preload","3","7276","0.0-3.0","","656776a7904ae00d6b91d1dd","6568ae2f8afd6b009da7efb9","7","","","","","","","","","","","","","","","true","false","[]","[]","[]","","","","","","",""
"instructions","html-button-response","4","35177","0.0-4.0","","656776a7904ae00d6b91d1dd","6568ae2f8afd6b009da7efb9","7","","","","","","","","","","","","27901","
        <div class=""text-container"">
        <h1>Welcome to the study!</h1>
        
        <div class=""text-left"">
            <p>
                In this study, we are interested in what people can tell about spaces from Google Street View images. <br> Google Street View takes pictures of streets used for Google Earth and Google Maps. <br>You’ll see Google Street View images of different places and answer some questions about each one.<br>
            </p>
        </div>
        <img src = ""assets/img/example.png"" width = 500px, height = auto>
        <br>
    <br>
    ","0","","","","","","","","","","","",""
"instructions","html-button-response","5","38265","0.0-5.0","","656776a7904ae00d6b91d1dd","6568ae2f8afd6b009da7efb9","7","","","","","","","","","","","","3087","
    <div class=""text-container"">
        <div class=""text-center"">
            <p>Please remember that your answers are completely anonymous.<br>Go with your gut response- there are no right or wrong answers!</p>
        </div>
    <br>
","0","","","","","","","","","","","",""
"before_SVSlide_prompt","html-button-response","6","39225","0.0-6.0","","656776a7904ae00d6b91d1dd","6568ae2f8afd6b009da7efb9","7","","","","","","","","","","","","960","Click [Next] to see the next neighborhood!","0","","","","","","","","","","","",""
"street view slide show","image-button-response","7","40237","0.0-7.0","","656776a7904ae00d6b91d1dd","6568ae2f8afd6b009da7efb9","7","","","","","","","","","","","","null","stimulus/SV_PolicingMSA/MO_1031/IMG_13_1031.jpg","null","","","","","","0","","","","","",""
"street view slide show","image-button-response","8","41240","0.0-8.0","","656776a7904ae00d6b91d1dd","6568ae2f8afd6b009da7efb9","7","","","","","","","","","","","","null","stimulus/SV_PolicingMSA/MO_1031/IMG_9_1031.jpg","null","","","","","","0","","","","","",""
"street view slide show","image-button-response","9","42251","0.0-9.0","","656776a7904ae00d6b91d1dd","6568ae2f8afd6b009da7efb9","7","","","","","","","","","","","","null","stimulus/SV_PolicingMSA/MO_1031/IMG_12_1031.jpg","null","","","","","","0","","","","","",""
"street view slide show","image-button-response","10","43264","0.0-10.0","","656776a7904ae00d6b91d1dd","6568ae2f8afd6b009da7efb9","7","","","","","","","","","","","","null","stimulus/SV_PolicingMSA/MO_1031/IMG_11_1031.jpg","null","","","","","","0","","","","","",""
"street view slide show","image-button-response","11","44272","0.0-11.0","","656776a7904ae00d6b91d1dd","6568ae2f8afd6b009da7efb9","7","","","","","","","","","","","","null","stimulus/SV_PolicingMSA/MO_1031/IMG_7_1031.jpg","null","","","","","","0","","","","","",""
"street view slide show","image-button-response","12","45274","0.0-12.0","","656776a7904ae00d6b91d1dd","6568ae2f8afd6b009da7efb9","7","","","","","","","","","","","","null","stimulus/SV_PolicingMSA/MO_1031/IMG_0_1031.jpg","null","","","","","","0","","","","","",""
"street view slide show","image-button-response","13","46280","0.0-13.0","","656776a7904ae00d6b91d1dd","6568ae2f8afd6b009da7efb9","7","","","","","","","","","","","","null","stimulus/SV_PolicingMSA/MO_1031/IMG_3_1031.jpg","null","","","","","","0","","","","","",""
"street view slide show","image-button-response","14","47285","0.0-14.0","","656776a7904ae00d6b91d1dd","6568ae2f8afd6b009da7efb9","7","","","","","","","","","","","","null","stimulus/SV_PolicingMSA/MO_1031/IMG_2_1031.jpg","null","","","","","","0","","","","","",""
"dot matrix survey1","survey","15","75140","0.0-15.0","","656776a7904ae00d6b91d1dd","6568ae2f8afd6b009da7efb9","7","","","","","","","","","","","","27819","","{""P0_Q0"":null,""P0_Q1"":{""wealthy"":1,""safe"":3,""walkable"":4,""traditional"":1,""diverse"":2}}","","","","","","0","[]","","","","",""
"dot matrix survey2","survey","16","91555","0.0-16.0","","656776a7904ae00d6b91d1dd","6568ae2f8afd6b009da7efb9","7","","","","","","","","","","","","16409","","{""P0_Q0"":null,""P0_Q1"":{""violence"":0,""crime"":0,""drug"":2,""schools"":1,""opportunities"":1}}","","","","","","0","[]","","","","",""
"dot matrix survey3","survey","17","116159","0.0-17.0","","656776a7904ae00d6b91d1dd","6568ae2f8afd6b009da7efb9","7","","","","","","","","","","","","24598","","{""P0_Q0"":null,""P0_Q1"":{""movein"":0,""moveout"":2,""shopping"":2,""walk"":2,""park"":2,""school"":2}}","","","","","","0","[]","","","","",""
"sliderTrial","html-slider-response","18","138722","0.0-18.0","","656776a7904ae00d6b91d1dd","6568ae2f8afd6b009da7efb9","7","","","","","","","","","","","","22561","[""SV_PolicingMSA/MO_1031/IMG_13_1031.jpg"",""SV_PolicingMSA/MO_1031/IMG_9_1031.jpg"",""SV_PolicingMSA/MO_1031/IMG_12_1031.jpg"",""SV_PolicingMSA/MO_1031/IMG_11_1031.jpg"",""SV_PolicingMSA/MO_1031/IMG_7_1031.jpg"",""SV_PolicingMSA/MO_1031/IMG_0_1031.jpg"",""SV_PolicingMSA/MO_1031/IMG_3_1031.jpg"",""SV_PolicingMSA/MO_1031/IMG_2_1031.jpg""]","4","","","","","","0","","4","[""./rc_img/cop_condGroup_16_CommunitySafety_autoscaled.png"",""./rc_img/cop_condGroup_16_SafeStreets_autoscaled.png""]","4","",""
"sliderTrial","html-slider-response","19","143098","0.0-19.0","","656776a7904ae00d6b91d1dd","6568ae2f8afd6b009da7efb9","7","","","","","","","","","","","","4374","[""SV_PolicingMSA/MO_1031/IMG_13_1031.jpg"",""SV_PolicingMSA/MO_1031/IMG_9_1031.jpg"",""SV_PolicingMSA/MO_1031/IMG_12_1031.jpg"",""SV_PolicingMSA/MO_1031/IMG_11_1031.jpg"",""SV_PolicingMSA/MO_1031/IMG_7_1031.jpg"",""SV_PolicingMSA/MO_1031/IMG_0_1031.jpg"",""SV_PolicingMSA/MO_1031/IMG_3_1031.jpg"",""SV_PolicingMSA/MO_1031/IMG_2_1031.jpg""]","4","","","","","","0","","4","[""./rc_img/cop_condGroup_1_CommunitySafety_autoscaled.png"",""./rc_img/cop_condGroup_1_SafeStreets_autoscaled.png""]","4","",""
"sliderTrial_attention","html-slider-response","20","153110","0.0-20.0","","656776a7904ae00d6b91d1dd","6568ae2f8afd6b009da7efb9","7","","","","","","","","","","","","null","[""SV_PolicingMSA/MO_1031/IMG_13_1031.jpg"",""SV_PolicingMSA/MO_1031/IMG_9_1031.jpg"",""SV_PolicingMSA/MO_1031/IMG_12_1031.jpg"",""SV_PolicingMSA/MO_1031/IMG_11_1031.jpg"",""SV_PolicingMSA/MO_1031/IMG_7_1031.jpg"",""SV_PolicingMSA/MO_1031/IMG_0_1031.jpg"",""SV_PolicingMSA/MO_1031/IMG_3_1031.jpg"",""SV_PolicingMSA/MO_1031/IMG_2_1031.jpg""]","null","","","","","","0","","4","[""./assets/img/attnchk.png"",""./assets/img/attnchk.png""]","","true",""
"sliderTrial","html-slider-response","21","162970","0.0-21.0","","656776a7904ae00d6b91d1dd","6568ae2f8afd6b009da7efb9","7","","","","","","","","","","","","9857","[""SV_PolicingMSA/MO_1031/IMG_13_1031.jpg"",""SV_PolicingMSA/MO_1031/IMG_9_1031.jpg"",""SV_PolicingMSA/MO_1031/IMG_12_1031.jpg"",""SV_PolicingMSA/MO_1031/IMG_11_1031.jpg"",""SV_PolicingMSA/MO_1031/IMG_7_1031.jpg"",""SV_PolicingMSA/MO_1031/IMG_0_1031.jpg"",""SV_PolicingMSA/MO_1031/IMG_3_1031.jpg"",""SV_PolicingMSA/MO_1031/IMG_2_1031.jpg""]","4","","","","","","0","","4","[""./rc_img/cop_condGroup_2_SafeStreets_autoscaled.png"",""./rc_img/cop_condGroup_2_CommunitySafety_autoscaled.png""]","4","",""
"sliderTrial","html-slider-response","22","168034","0.0-22.0","","656776a7904ae00d6b91d1dd","6568ae2f8afd6b009da7efb9","7","","","","","","","","","","","","5064","[""SV_PolicingMSA/MO_1031/IMG_13_1031.jpg"",""SV_PolicingMSA/MO_1031/IMG_9_1031.jpg"",""SV_PolicingMSA/MO_1031/IMG_12_1031.jpg"",""SV_PolicingMSA/MO_1031/IMG_11_1031.jpg"",""SV_PolicingMSA/MO_1031/IMG_7_1031.jpg"",""SV_PolicingMSA/MO_1031/IMG_0_1031.jpg"",""SV_PolicingMSA/MO_1031/IMG_3_1031.jpg"",""SV_PolicingMSA/MO_1031/IMG_2_1031.jpg""]","4","","","","","","0","","4","[""./rc_img/cop_condGroup_3_CommunitySafety_autoscaled.png"",""./rc_img/cop_condGroup_3_SafeStreets_autoscaled.png""]","4","",""
"sliderTrial","html-slider-response","23","171706","0.0-23.0","","656776a7904ae00d6b91d1dd","6568ae2f8afd6b009da7efb9","7","","","","","","","","","","","","3671","[""SV_PolicingMSA/MO_1031/IMG_13_1031.jpg"",""SV_PolicingMSA/MO_1031/IMG_9_1031.jpg"",""SV_PolicingMSA/MO_1031/IMG_12_1031.jpg"",""SV_PolicingMSA/MO_1031/IMG_11_1031.jpg"",""SV_PolicingMSA/MO_1031/IMG_7_1031.jpg"",""SV_PolicingMSA/MO_1031/IMG_0_1031.jpg"",""SV_PolicingMSA/MO_1031/IMG_3_1031.jpg"",""SV_PolicingMSA/MO_1031/IMG_2_1031.jpg""]","4","","","","","","0","","4","[""./rc_img/cop_condGroup_9_SafeStreets_autoscaled.png"",""./rc_img/cop_condGroup_9_CommunitySafety_autoscaled.png""]","4","",""
"before_SVSlide_prompt","html-button-response","24","173106","0.0-24.0","","656776a7904ae00d6b91d1dd","6568ae2f8afd6b009da7efb9","7","","","","","","","","","","","","1399","Click [Next] to see the next neighborhood!","0","","","","","","","","","","","",""
"street view slide show","image-button-response","25","174121","0.0-25.0","","656776a7904ae00d6b91d1dd","6568ae2f8afd6b009da7efb9","7","","","","","","","","","","","","null","stimulus/SV_PolicingMSA/MO_1004/IMG_5_1004.jpg","null","","","","","","1","","","","","",""
"street view slide show","image-button-response","26","175124","0.0-26.0","","656776a7904ae00d6b91d1dd","6568ae2f8afd6b009da7efb9","7","","","","","","","","","","","","null","stimulus/SV_PolicingMSA/MO_1004/IMG_3_1004.jpg","null","","","","","","1","","","","","",""
"street view slide show","image-button-response","27","176125","0.0-27.0","","656776a7904ae00d6b91d1dd","6568ae2f8afd6b009da7efb9","7","","","","","","","","","","","","null","stimulus/SV_PolicingMSA/MO_1004/IMG_0_1004.jpg","null","","","","","","1","","","","","",""
"street view slide show","image-button-response","28","177129","0.0-28.0","","656776a7904ae00d6b91d1dd","6568ae2f8afd6b009da7efb9","7","","","","","","","","","","","","null","stimulus/SV_PolicingMSA/MO_1004/IMG_14_1004.jpg","null","","","","","","1","","","","","",""
"street view slide show","image-button-response","29","178132","0.0-29.0","","656776a7904ae00d6b91d1dd","6568ae2f8afd6b009da7efb9","7","","","","","","","","","","","","null","stimulus/SV_PolicingMSA/MO_1004/IMG_6_1004.jpg","null","","","","","","1","","","","","",""
"street view slide show","image-button-response","30","179137","0.0-30.0","","656776a7904ae00d6b91d1dd","6568ae2f8afd6b009da7efb9","7","","","","","","","","","","","","null","stimulus/SV_PolicingMSA/MO_1004/IMG_9_1004.jpg","null","","","","","","1","","","","","",""
"street view slide show","image-button-response","31","180140","0.0-31.0","","656776a7904ae00d6b91d1dd","6568ae2f8afd6b009da7efb9","7","","","","","","","","","","","","null","stimulus/SV_PolicingMSA/MO_1004/IMG_12_1004.jpg","null","","","","","","1","","","","","",""
"street view slide show","image-button-response","32","181144","0.0-32.0","","656776a7904ae00d6b91d1dd","6568ae2f8afd6b009da7efb9","7","","","","","","","","","","","","null","stimulus/SV_PolicingMSA/MO_1004/IMG_1_1004.jpg","null","","","","","","1","","","","","",""
"dot matrix survey1","survey","33","203494","0.0-33.0","","656776a7904ae00d6b91d1dd","6568ae2f8afd6b009da7efb9","7","","","","","","","","","","","","22341","","{""P0_Q0"":null,""P0_Q1"":{""wealthy"":1,""safe"":4,""walkable"":4,""traditional"":4,""diverse"":2}}","","","","","","1","[]","","","","",""
"dot matrix survey2","survey","34","216734","0.0-34.0","","656776a7904ae00d6b91d1dd","6568ae2f8afd6b009da7efb9","7","","","","","","","","","","","","13234","","{""P0_Q0"":null,""P0_Q1"":{""violence"":0,""crime"":1,""drug"":2,""schools"":3,""opportunities"":3}}","","","","","","1","[]","","","","",""
"dot matrix survey3","survey","35","237006","0.0-35.0","","656776a7904ae00d6b91d1dd","6568ae2f8afd6b009da7efb9","7","","","","","","","","","","","","20268","","{""P0_Q0"":null,""P0_Q1"":{""movein"":2,""moveout"":1,""shopping"":2,""walk"":4,""park"":3,""school"":3}}","","","","","","1","[]","","","","",""
"sliderTrial","html-slider-response","36","240242","0.0-36.0","","656776a7904ae00d6b91d1dd","6568ae2f8afd6b009da7efb9","7","","","","","","","","","","","","3235","[""SV_PolicingMSA/MO_1004/IMG_5_1004.jpg"",""SV_PolicingMSA/MO_1004/IMG_3_1004.jpg"",""SV_PolicingMSA/MO_1004/IMG_0_1004.jpg"",""SV_PolicingMSA/MO_1004/IMG_14_1004.jpg"",""SV_PolicingMSA/MO_1004/IMG_6_1004.jpg"",""SV_PolicingMSA/MO_1004/IMG_9_1004.jpg"",""SV_PolicingMSA/MO_1004/IMG_12_1004.jpg"",""SV_PolicingMSA/MO_1004/IMG_1_1004.jpg""]","4","","","","","","1","","4","[""./rc_img/cop_condGroup_5_CommunitySafety_autoscaled.png"",""./rc_img/cop_condGroup_5_SafeStreets_autoscaled.png""]","4","",""
"sliderTrial","html-slider-response","37","242658","0.0-37.0","","656776a7904ae00d6b91d1dd","6568ae2f8afd6b009da7efb9","7","","","","","","","","","","","","2415","[""SV_PolicingMSA/MO_1004/IMG_5_1004.jpg"",""SV_PolicingMSA/MO_1004/IMG_3_1004.jpg"",""SV_PolicingMSA/MO_1004/IMG_0_1004.jpg"",""SV_PolicingMSA/MO_1004/IMG_14_1004.jpg"",""SV_PolicingMSA/MO_1004/IMG_6_1004.jpg"",""SV_PolicingMSA/MO_1004/IMG_9_1004.jpg"",""SV_PolicingMSA/MO_1004/IMG_12_1004.jpg"",""SV_PolicingMSA/MO_1004/IMG_1_1004.jpg""]","4","","","","","","1","","4","[""./rc_img/cop_condGroup_7_SafeStreets_autoscaled.png"",""./rc_img/cop_condGroup_7_CommunitySafety_autoscaled.png""]","4","",""
"sliderTrial","html-slider-response","38","246466","0.0-38.0","","656776a7904ae00d6b91d1dd","6568ae2f8afd6b009da7efb9","7","","","","","","","","","","","","3807","[""SV_PolicingMSA/MO_1004/IMG_5_1004.jpg"",""SV_PolicingMSA/MO_1004/IMG_3_1004.jpg"",""SV_PolicingMSA/MO_1004/IMG_0_1004.jpg"",""SV_PolicingMSA/MO_1004/IMG_14_1004.jpg"",""SV_PolicingMSA/MO_1004/IMG_6_1004.jpg"",""SV_PolicingMSA/MO_1004/IMG_9_1004.jpg"",""SV_PolicingMSA/MO_1004/IMG_12_1004.jpg"",""SV_PolicingMSA/MO_1004/IMG_1_1004.jpg""]","4","","","","","","1","","4","[""./rc_img/cop_condGroup_10_CommunitySafety_autoscaled.png"",""./rc_img/cop_condGroup_10_SafeStreets_autoscaled.png""]","4","",""
"sliderTrial","html-slider-response","39","250378","0.0-39.0","","656776a7904ae00d6b91d1dd","6568ae2f8afd6b009da7efb9","7","","","","","","","","","","","","3911","[""SV_PolicingMSA/MO_1004/IMG_5_1004.jpg"",""SV_PolicingMSA/MO_1004/IMG_3_1004.jpg"",""SV_PolicingMSA/MO_1004/IMG_0_1004.jpg"",""SV_PolicingMSA/MO_1004/IMG_14_1004.jpg"",""SV_PolicingMSA/MO_1004/IMG_6_1004.jpg"",""SV_PolicingMSA/MO_1004/IMG_9_1004.jpg"",""SV_PolicingMSA/MO_1004/IMG_12_1004.jpg"",""SV_PolicingMSA/MO_1004/IMG_1_1004.jpg""]","4","","","","","","1","","4","[""./rc_img/cop_condGroup_19_SafeStreets_autoscaled.png"",""./rc_img/cop_condGroup_19_CommunitySafety_autoscaled.png""]","4","",""
"sliderTrial_attention","html-slider-response","40","260383","0.0-40.0","","656776a7904ae00d6b91d1dd","6568ae2f8afd6b009da7efb9","7","","","","","","","","","","","","null","[""SV_PolicingMSA/MO_1004/IMG_5_1004.jpg"",""SV_PolicingMSA/MO_1004/IMG_3_1004.jpg"",""SV_PolicingMSA/MO_1004/IMG_0_1004.jpg"",""SV_PolicingMSA/MO_1004/IMG_14_1004.jpg"",""SV_PolicingMSA/MO_1004/IMG_6_1004.jpg"",""SV_PolicingMSA/MO_1004/IMG_9_1004.jpg"",""SV_PolicingMSA/MO_1004/IMG_12_1004.jpg"",""SV_PolicingMSA/MO_1004/IMG_1_1004.jpg""]","null","","","","","","1","","4","[""./assets/img/attnchk.png"",""./assets/img/attnchk.png""]","","true",""
"sliderTrial","html-slider-response","41","264137","0.0-41.0","","656776a7904ae00d6b91d1dd","6568ae2f8afd6b009da7efb9","7","","","","","","","","","","","","3750","[""SV_PolicingMSA/MO_1004/IMG_5_1004.jpg"",""SV_PolicingMSA/MO_1004/IMG_3_1004.jpg"",""SV_PolicingMSA/MO_1004/IMG_0_1004.jpg"",""SV_PolicingMSA/MO_1004/IMG_14_1004.jpg"",""SV_PolicingMSA/MO_1004/IMG_6_1004.jpg"",""SV_PolicingMSA/MO_1004/IMG_9_1004.jpg"",""SV_PolicingMSA/MO_1004/IMG_12_1004.jpg"",""SV_PolicingMSA/MO_1004/IMG_1_1004.jpg""]","4","","","","","","1","","4","[""./rc_img/cop_condGroup_4_CommunitySafety_autoscaled.png"",""./rc_img/cop_condGroup_4_SafeStreets_autoscaled.png""]","4","",""
"before_SVSlide_prompt","html-button-response","42","265242","0.0-42.0","","656776a7904ae00d6b91d1dd","6568ae2f8afd6b009da7efb9","7","","","","","","","","","","","","1104","Click [Next] to see the next neighborhood!","0","","","","","","","","","","","",""
"street view slide show","image-button-response","43","266244","0.0-43.0","","656776a7904ae00d6b91d1dd","6568ae2f8afd6b009da7efb9","7","","","","","","","","","","","","null","stimulus/SV_PolicingMSA/MO_982/IMG_0_982.jpg","null","","","","","","2","","","","","",""
"street view slide show","image-button-response","44","267247","0.0-44.0","","656776a7904ae00d6b91d1dd","6568ae2f8afd6b009da7efb9","7","","","","","","","","","","","","null","stimulus/SV_PolicingMSA/MO_982/IMG_12_982.jpg","null","","","","","","2","","","","","",""
"street view slide show","image-button-response","45","268261","0.0-45.0","","656776a7904ae00d6b91d1dd","6568ae2f8afd6b009da7efb9","7","","","","","","","","","","","","null","stimulus/SV_PolicingMSA/MO_982/IMG_10_982.jpg","null","","","","","","2","","","","","",""
"street view slide show","image-button-response","46","269277","0.0-46.0","","656776a7904ae00d6b91d1dd","6568ae2f8afd6b009da7efb9","7","","","","","","","","","","","","null","stimulus/SV_PolicingMSA/MO_982/IMG_7_982.jpg","null","","","","","","2","","","","","",""
"street view slide show","image-button-response","47","270279","0.0-47.0","","656776a7904ae00d6b91d1dd","6568ae2f8afd6b009da7efb9","7","","","","","","","","","","","","null","stimulus/SV_PolicingMSA/MO_982/IMG_14_982.jpg","null","","","","","","2","","","","","",""
"street view slide show","image-button-response","48","271283","0.0-48.0","","656776a7904ae00d6b91d1dd","6568ae2f8afd6b009da7efb9","7","","","","","","","","","","","","null","stimulus/SV_PolicingMSA/MO_982/IMG_13_982.jpg","null","","","","","","2","","","","","",""
"street view slide show","image-button-response","49","272286","0.0-49.0","","656776a7904ae00d6b91d1dd","6568ae2f8afd6b009da7efb9","7","","","","","","","","","","","","null","stimulus/SV_PolicingMSA/MO_982/IMG_8_982.jpg","null","","","","","","2","","","","","",""
"street view slide show","image-button-response","50","273292","0.0-50.0","","656776a7904ae00d6b91d1dd","6568ae2f8afd6b009da7efb9","7","","","","","","","","","","","","null","stimulus/SV_PolicingMSA/MO_982/IMG_2_982.jpg","null","","","","","","2","","","","","",""
"dot matrix survey1","survey","51","288526","0.0-51.0","","656776a7904ae00d6b91d1dd","6568ae2f8afd6b009da7efb9","7","","","","","","","","","","","","15226","","{""P0_Q0"":null,""P0_Q1"":{""wealthy"":3,""safe"":4,""walkable"":4,""traditional"":3,""diverse"":1}}","","","","","","2","[]","","","","",""
"dot matrix survey2","survey","52","297254","0.0-52.0","","656776a7904ae00d6b91d1dd","6568ae2f8afd6b009da7efb9","7","","","","","","","","","","","","8723","","{""P0_Q0"":null,""P0_Q1"":{""violence"":0,""crime"":0,""drug"":2,""schools"":4,""opportunities"":3}}","","","","","","2","[]","","","","",""
"dot matrix survey3","survey","53","311831","0.0-53.0","","656776a7904ae00d6b91d1dd","6568ae2f8afd6b009da7efb9","7","","","","","","","","","","","","14572","","{""P0_Q0"":null,""P0_Q1"":{""movein"":3,""moveout"":0,""shopping"":3,""walk"":4,""park"":4,""school"":4}}","","","","","","2","[]","","","","",""
"sliderTrial","html-slider-response","54","314674","0.0-54.0","","656776a7904ae00d6b91d1dd","6568ae2f8afd6b009da7efb9","7","","","","","","","","","","","","2842","[""SV_PolicingMSA/MO_982/IMG_0_982.jpg"",""SV_PolicingMSA/MO_982/IMG_12_982.jpg"",""SV_PolicingMSA/MO_982/IMG_10_982.jpg"",""SV_PolicingMSA/MO_982/IMG_7_982.jpg"",""SV_PolicingMSA/MO_982/IMG_14_982.jpg"",""SV_PolicingMSA/MO_982/IMG_13_982.jpg"",""SV_PolicingMSA/MO_982/IMG_8_982.jpg"",""SV_PolicingMSA/MO_982/IMG_2_982.jpg""]","4","","","","","","2","","4","[""./rc_img/cop_condGroup_18_SafeStreets_autoscaled.png"",""./rc_img/cop_condGroup_18_CommunitySafety_autoscaled.png""]","4","",""
"sliderTrial","html-slider-response","55","316610","0.0-55.0","","656776a7904ae00d6b91d1dd","6568ae2f8afd6b009da7efb9","7","","","","","","","","","","","","1935","[""SV_PolicingMSA/MO_982/IMG_0_982.jpg"",""SV_PolicingMSA/MO_982/IMG_12_982.jpg"",""SV_PolicingMSA/MO_982/IMG_10_982.jpg"",""SV_PolicingMSA/MO_982/IMG_7_982.jpg"",""SV_PolicingMSA/MO_982/IMG_14_982.jpg"",""SV_PolicingMSA/MO_982/IMG_13_982.jpg"",""SV_PolicingMSA/MO_982/IMG_8_982.jpg"",""SV_PolicingMSA/MO_982/IMG_2_982.jpg""]","4","","","","","","2","","4","[""./rc_img/cop_condGroup_14_CommunitySafety_autoscaled.png"",""./rc_img/cop_condGroup_14_SafeStreets_autoscaled.png""]","4","",""
"sliderTrial","html-slider-response","56","318434","0.0-56.0","","656776a7904ae00d6b91d1dd","6568ae2f8afd6b009da7efb9","7","","","","","","","","","","","","1823","[""SV_PolicingMSA/MO_982/IMG_0_982.jpg"",""SV_PolicingMSA/MO_982/IMG_12_982.jpg"",""SV_PolicingMSA/MO_982/IMG_10_982.jpg"",""SV_PolicingMSA/MO_982/IMG_7_982.jpg"",""SV_PolicingMSA/MO_982/IMG_14_982.jpg"",""SV_PolicingMSA/MO_982/IMG_13_982.jpg"",""SV_PolicingMSA/MO_982/IMG_8_982.jpg"",""SV_PolicingMSA/MO_982/IMG_2_982.jpg""]","4","","","","","","2","","4","[""./rc_img/cop_condGroup_11_SafeStreets_autoscaled.png"",""./rc_img/cop_condGroup_11_CommunitySafety_autoscaled.png""]","4","",""
"sliderTrial","html-slider-response","57","320314","0.0-57.0","","656776a7904ae00d6b91d1dd","6568ae2f8afd6b009da7efb9","7","","","","","","","","","","","","1879","[""SV_PolicingMSA/MO_982/IMG_0_982.jpg"",""SV_PolicingMSA/MO_982/IMG_12_982.jpg"",""SV_PolicingMSA/MO_982/IMG_10_982.jpg"",""SV_PolicingMSA/MO_982/IMG_7_982.jpg"",""SV_PolicingMSA/MO_982/IMG_14_982.jpg"",""SV_PolicingMSA/MO_982/IMG_13_982.jpg"",""SV_PolicingMSA/MO_982/IMG_8_982.jpg"",""SV_PolicingMSA/MO_982/IMG_2_982.jpg""]","4","","","","","","2","","4","[""./rc_img/cop_condGroup_13_SafeStreets_autoscaled.png"",""./rc_img/cop_condGroup_13_CommunitySafety_autoscaled.png""]","4","",""
"sliderTrial","html-slider-response","58","321962","0.0-58.0","","656776a7904ae00d6b91d1dd","6568ae2f8afd6b009da7efb9","7","","","","","","","","","","","","1647","[""SV_PolicingMSA/MO_982/IMG_0_982.jpg"",""SV_PolicingMSA/MO_982/IMG_12_982.jpg"",""SV_PolicingMSA/MO_982/IMG_10_982.jpg"",""SV_PolicingMSA/MO_982/IMG_7_982.jpg"",""SV_PolicingMSA/MO_982/IMG_14_982.jpg"",""SV_PolicingMSA/MO_982/IMG_13_982.jpg"",""SV_PolicingMSA/MO_982/IMG_8_982.jpg"",""SV_PolicingMSA/MO_982/IMG_2_982.jpg""]","4","","","","","","2","","4","[""./rc_img/cop_condGroup_8_CommunitySafety_autoscaled.png"",""./rc_img/cop_condGroup_8_SafeStreets_autoscaled.png""]","4","",""
"before_SVSlide_prompt","html-button-response","59","323122","0.0-59.0","","656776a7904ae00d6b91d1dd","6568ae2f8afd6b009da7efb9","7","","","","","","","","","","","","1159","Click [Next] to see the next neighborhood!","0","","","","","","","","","","","",""
"street view slide show","image-button-response","60","324133","0.0-60.0","","656776a7904ae00d6b91d1dd","6568ae2f8afd6b009da7efb9","7","","","","","","","","","","","","null","stimulus/SV_PolicingMSA/MO_628/IMG_14_628.jpg","null","","","","","","3","","","","","",""
"street view slide show","image-button-response","61","325137","0.0-61.0","","656776a7904ae00d6b91d1dd","6568ae2f8afd6b009da7efb9","7","","","","","","","","","","","","null","stimulus/SV_PolicingMSA/MO_628/IMG_10_628.jpg","null","","","","","","3","","","","","",""
"street view slide show","image-button-response","62","326141","0.0-62.0","","656776a7904ae00d6b91d1dd","6568ae2f8afd6b009da7efb9","7","","","","","","","","","","","","null","stimulus/SV_PolicingMSA/MO_628/IMG_6_628.jpg","null","","","","","","3","","","","","",""
"street view slide show","image-button-response","63","327145","0.0-63.0","","656776a7904ae00d6b91d1dd","6568ae2f8afd6b009da7efb9","7","","","","","","","","","","","","null","stimulus/SV_PolicingMSA/MO_628/IMG_9_628.jpg","null","","","","","","3","","","","","",""
"street view slide show","image-button-response","64","328149","0.0-64.0","","656776a7904ae00d6b91d1dd","6568ae2f8afd6b009da7efb9","7","","","","","","","","","","","","null","stimulus/SV_PolicingMSA/MO_628/IMG_4_628.jpg","null","","","","","","3","","","","","",""
"street view slide show","image-button-response","65","329152","0.0-65.0","","656776a7904ae00d6b91d1dd","6568ae2f8afd6b009da7efb9","7","","","","","","","","","","","","null","stimulus/SV_PolicingMSA/MO_628/IMG_1_628.jpg","null","","","","","","3","","","","","",""
"street view slide show","image-button-response","66","330156","0.0-66.0","","656776a7904ae00d6b91d1dd","6568ae2f8afd6b009da7efb9","7","","","","","","","","","","","","null","stimulus/SV_PolicingMSA/MO_628/IMG_5_628.jpg","null","","","","","","3","","","","","",""
"street view slide show","image-button-response","67","331158","0.0-67.0","","656776a7904ae00d6b91d1dd","6568ae2f8afd6b009da7efb9","7","","","","","","","","","","","","null","stimulus/SV_PolicingMSA/MO_628/IMG_0_628.jpg","null","","","","","","3","","","","","",""
"dot matrix survey1","survey","68","347614","0.0-68.0","","656776a7904ae00d6b91d1dd","6568ae2f8afd6b009da7efb9","7","","","","","","","","","","","","16448","","{""P0_Q0"":null,""P0_Q1"":{""wealthy"":1,""safe"":2,""walkable"":4,""traditional"":3,""diverse"":2}}","","","","","","3","[]","","","","",""
"dot matrix survey2","survey","69","363726","0.0-69.0","","656776a7904ae00d6b91d1dd","6568ae2f8afd6b009da7efb9","7","","","","","","","","","","","","16107","","{""P0_Q0"":null,""P0_Q1"":{""violence"":1,""crime"":2,""drug"":2,""schools"":3,""opportunities"":3}}","","","","","","3","[]","","","","",""
"dot matrix survey3","survey","70","379974","0.0-70.0","","656776a7904ae00d6b91d1dd","6568ae2f8afd6b009da7efb9","7","","","","","","","","","","","","16244","","{""P0_Q0"":null,""P0_Q1"":{""movein"":2,""moveout"":1,""shopping"":3,""walk"":3,""park"":3,""school"":3}}","","","","","","3","[]","","","","",""
"sliderTrial","html-slider-response","71","382514","0.0-71.0","","656776a7904ae00d6b91d1dd","6568ae2f8afd6b009da7efb9","7","","","","","","","","","","","","2538","[""SV_PolicingMSA/MO_628/IMG_14_628.jpg"",""SV_PolicingMSA/MO_628/IMG_10_628.jpg"",""SV_PolicingMSA/MO_628/IMG_6_628.jpg"",""SV_PolicingMSA/MO_628/IMG_9_628.jpg"",""SV_PolicingMSA/MO_628/IMG_4_628.jpg"",""SV_PolicingMSA/MO_628/IMG_1_628.jpg"",""SV_PolicingMSA/MO_628/IMG_5_628.jpg"",""SV_PolicingMSA/MO_628/IMG_0_628.jpg""]","4","","","","","","3","","4","[""./rc_img/cop_condGroup_17_SafeStreets_autoscaled.png"",""./rc_img/cop_condGroup_17_CommunitySafety_autoscaled.png""]","4","",""
"sliderTrial","html-slider-response","72","384306","0.0-72.0","","656776a7904ae00d6b91d1dd","6568ae2f8afd6b009da7efb9","7","","","","","","","","","","","","1791","[""SV_PolicingMSA/MO_628/IMG_14_628.jpg"",""SV_PolicingMSA/MO_628/IMG_10_628.jpg"",""SV_PolicingMSA/MO_628/IMG_6_628.jpg"",""SV_PolicingMSA/MO_628/IMG_9_628.jpg"",""SV_PolicingMSA/MO_628/IMG_4_628.jpg"",""SV_PolicingMSA/MO_628/IMG_1_628.jpg"",""SV_PolicingMSA/MO_628/IMG_5_628.jpg"",""SV_PolicingMSA/MO_628/IMG_0_628.jpg""]","4","","","","","","3","","4","[""./rc_img/cop_condGroup_12_SafeStreets_autoscaled.png"",""./rc_img/cop_condGroup_12_CommunitySafety_autoscaled.png""]","4","",""
"sliderTrial","html-slider-response","73","385722","0.0-73.0","","656776a7904ae00d6b91d1dd","6568ae2f8afd6b009da7efb9","7","","","","","","","","","","","","1415","[""SV_PolicingMSA/MO_628/IMG_14_628.jpg"",""SV_PolicingMSA/MO_628/IMG_10_628.jpg"",""SV_PolicingMSA/MO_628/IMG_6_628.jpg"",""SV_PolicingMSA/MO_628/IMG_9_628.jpg"",""SV_PolicingMSA/MO_628/IMG_4_628.jpg"",""SV_PolicingMSA/MO_628/IMG_1_628.jpg"",""SV_PolicingMSA/MO_628/IMG_5_628.jpg"",""SV_PolicingMSA/MO_628/IMG_0_628.jpg""]","4","","","","","","3","","4","[""./rc_img/cop_condGroup_6_CommunitySafety_autoscaled.png"",""./rc_img/cop_condGroup_6_SafeStreets_autoscaled.png""]","4","",""
"sliderTrial","html-slider-response","74","387202","0.0-74.0","","656776a7904ae00d6b91d1dd","6568ae2f8afd6b009da7efb9","7","","","","","","","","","","","","1479","[""SV_PolicingMSA/MO_628/IMG_14_628.jpg"",""SV_PolicingMSA/MO_628/IMG_10_628.jpg"",""SV_PolicingMSA/MO_628/IMG_6_628.jpg"",""SV_PolicingMSA/MO_628/IMG_9_628.jpg"",""SV_PolicingMSA/MO_628/IMG_4_628.jpg"",""SV_PolicingMSA/MO_628/IMG_1_628.jpg"",""SV_PolicingMSA/MO_628/IMG_5_628.jpg"",""SV_PolicingMSA/MO_628/IMG_0_628.jpg""]","4","","","","","","3","","4","[""./rc_img/cop_condGroup_15_SafeStreets_autoscaled.png"",""./rc_img/cop_condGroup_15_CommunitySafety_autoscaled.png""]","4","",""
"sliderTrial","html-slider-response","75","388922","0.0-75.0","","656776a7904ae00d6b91d1dd","6568ae2f8afd6b009da7efb9","7","","","","","","","","","","","","1719","[""SV_PolicingMSA/MO_628/IMG_14_628.jpg"",""SV_PolicingMSA/MO_628/IMG_10_628.jpg"",""SV_PolicingMSA/MO_628/IMG_6_628.jpg"",""SV_PolicingMSA/MO_628/IMG_9_628.jpg"",""SV_PolicingMSA/MO_628/IMG_4_628.jpg"",""SV_PolicingMSA/MO_628/IMG_1_628.jpg"",""SV_PolicingMSA/MO_628/IMG_5_628.jpg"",""SV_PolicingMSA/MO_628/IMG_0_628.jpg""]","4","","","","","","3","","4","[""./rc_img/cop_condGroup_20_SafeStreets_autoscaled.png"",""./rc_img/cop_condGroup_20_CommunitySafety_autoscaled.png""]","4","",""
"half-way","html-button-response","76","404682","0.0-76.0","","656776a7904ae00d6b91d1dd","6568ae2f8afd6b009da7efb9","7","","","","","","","","","","","","null","
    <h3>You are now half way through the study.</h3>
    <p>Please take a quick, 15-second break before you continue.</p>
    <img src='assets/img/countdown-15.gif'>
    <p>The study will automatically advance forward after the countdown is complete. <br> However, you may click ""Next"" to advance forward now if you wish.</p>
    ","null","","","","","","","","","","","",""
"before_SVSlide_prompt","html-button-response","77","408186","0.0-77.0","","656776a7904ae00d6b91d1dd","6568ae2f8afd6b009da7efb9","7","","","","","","","","","","","","3503","Click [Next] to see the next neighborhood!","0","","","","","","","","","","","",""
"street view slide show","image-button-response","78","409199","0.0-78.0","","656776a7904ae00d6b91d1dd","6568ae2f8afd6b009da7efb9","7","","","","","","","","","","","","null","stimulus/SV_PolicingMSA/MO_1278/IMG_6_1278.jpg","null","","","","","","5","","","","","",""
"street view slide show","image-button-response","79","410202","0.0-79.0","","656776a7904ae00d6b91d1dd","6568ae2f8afd6b009da7efb9","7","","","","","","","","","","","","null","stimulus/SV_PolicingMSA/MO_1278/IMG_0_1278.jpg","null","","","","","","5","","","","","",""
"street view slide show","image-button-response","80","411210","0.0-80.0","","656776a7904ae00d6b91d1dd","6568ae2f8afd6b009da7efb9","7","","","","","","","","","","","","null","stimulus/SV_PolicingMSA/MO_1278/IMG_14_1278.jpg","null","","","","","","5","","","","","",""
"street view slide show","image-button-response","81","412215","0.0-81.0","","656776a7904ae00d6b91d1dd","6568ae2f8afd6b009da7efb9","7","","","","","","","","","","","","null","stimulus/SV_PolicingMSA/MO_1278/IMG_4_1278.jpg","null","","","","","","5","","","","","",""
"street view slide show","image-button-response","82","413223","0.0-82.0","","656776a7904ae00d6b91d1dd","6568ae2f8afd6b009da7efb9","7","","","","","","","","","","","","null","stimulus/SV_PolicingMSA/MO_1278/IMG_9_1278.jpg","null","","","","","","5","","","","","",""
"street view slide show","image-button-response","83","414233","0.0-83.0","","656776a7904ae00d6b91d1dd","6568ae2f8afd6b009da7efb9","7","","","","","","","","","","","","null","stimulus/SV_PolicingMSA/MO_1278/IMG_1_1278.jpg","null","","","","","","5","","","","","",""
"street view slide show","image-button-response","84","415245","0.0-84.0","","656776a7904ae00d6b91d1dd","6568ae2f8afd6b009da7efb9","7","","","","","","","","","","","","null","stimulus/SV_PolicingMSA/MO_1278/IMG_2_1278.jpg","null","","","","","","5","","","","","",""
"street view slide show","image-button-response","85","416256","0.0-85.0","","656776a7904ae00d6b91d1dd","6568ae2f8afd6b009da7efb9","7","","","","","","","","","","","","null","stimulus/SV_PolicingMSA/MO_1278/IMG_12_1278.jpg","null","","","","","","5","","","","","",""
"dot matrix survey1","survey","86","427958","0.0-86.0","","656776a7904ae00d6b91d1dd","6568ae2f8afd6b009da7efb9","7","","","","","","","","","","","","11694","","{""P0_Q0"":null,""P0_Q1"":{""wealthy"":4,""safe"":4,""walkable"":4,""traditional"":2,""diverse"":2}}","","","","","","5","[]","","","","",""
"dot matrix survey2","survey","87","435310","0.0-87.0","","656776a7904ae00d6b91d1dd","6568ae2f8afd6b009da7efb9","7","","","","","","","","","","","","7349","","{""P0_Q0"":null,""P0_Q1"":{""violence"":0,""crime"":0,""drug"":2,""schools"":4,""opportunities"":4}}","","","","","","5","[]","","","","",""
"dot matrix survey3","survey","88","443534","0.0-88.0","","656776a7904ae00d6b91d1dd","6568ae2f8afd6b009da7efb9","7","","","","","","","","","","","","8220","","{""P0_Q0"":null,""P0_Q1"":{""movein"":4,""moveout"":0,""shopping"":4,""walk"":4,""park"":4,""school"":4}}","","","","","","5","[]","","","","",""
"sliderTrial","html-slider-response","89","446153","0.0-89.0","","656776a7904ae00d6b91d1dd","6568ae2f8afd6b009da7efb9","7","","","","","","","","","","","","2619","[""SV_PolicingMSA/MO_1278/IMG_6_1278.jpg"",""SV_PolicingMSA/MO_1278/IMG_0_1278.jpg"",""SV_PolicingMSA/MO_1278/IMG_14_1278.jpg"",""SV_PolicingMSA/MO_1278/IMG_4_1278.jpg"",""SV_PolicingMSA/MO_1278/IMG_9_1278.jpg"",""SV_PolicingMSA/MO_1278/IMG_1_1278.jpg"",""SV_PolicingMSA/MO_1278/IMG_2_1278.jpg"",""SV_PolicingMSA/MO_1278/IMG_12_1278.jpg""]","4","","","","","","5","","4","[""./rc_img/cop_condGroup_17_SafeStreets_autoscaled.png"",""./rc_img/cop_condGroup_17_CommunitySafety_autoscaled.png""]","4","",""
"sliderTrial","html-slider-response","90","448490","0.0-90.0","","656776a7904ae00d6b91d1dd","6568ae2f8afd6b009da7efb9","7","","","","","","","","","","","","2335","[""SV_PolicingMSA/MO_1278/IMG_6_1278.jpg"",""SV_PolicingMSA/MO_1278/IMG_0_1278.jpg"",""SV_PolicingMSA/MO_1278/IMG_14_1278.jpg"",""SV_PolicingMSA/MO_1278/IMG_4_1278.jpg"",""SV_PolicingMSA/MO_1278/IMG_9_1278.jpg"",""SV_PolicingMSA/MO_1278/IMG_1_1278.jpg"",""SV_PolicingMSA/MO_1278/IMG_2_1278.jpg"",""SV_PolicingMSA/MO_1278/IMG_12_1278.jpg""]","4","","","","","","5","","4","[""./rc_img/cop_condGroup_12_SafeStreets_autoscaled.png"",""./rc_img/cop_condGroup_12_CommunitySafety_autoscaled.png""]","4","",""
"sliderTrial","html-slider-response","91","450090","0.0-91.0","","656776a7904ae00d6b91d1dd","6568ae2f8afd6b009da7efb9","7","","","","","","","","","","","","1599","[""SV_PolicingMSA/MO_1278/IMG_6_1278.jpg"",""SV_PolicingMSA/MO_1278/IMG_0_1278.jpg"",""SV_PolicingMSA/MO_1278/IMG_14_1278.jpg"",""SV_PolicingMSA/MO_1278/IMG_4_1278.jpg"",""SV_PolicingMSA/MO_1278/IMG_9_1278.jpg"",""SV_PolicingMSA/MO_1278/IMG_1_1278.jpg"",""SV_PolicingMSA/MO_1278/IMG_2_1278.jpg"",""SV_PolicingMSA/MO_1278/IMG_12_1278.jpg""]","4","","","","","","5","","4","[""./rc_img/cop_condGroup_6_CommunitySafety_autoscaled.png"",""./rc_img/cop_condGroup_6_SafeStreets_autoscaled.png""]","4","",""
"sliderTrial","html-slider-response","92","451290","0.0-92.0","","656776a7904ae00d6b91d1dd","6568ae2f8afd6b009da7efb9","7","","","","","","","","","","","","1199","[""SV_PolicingMSA/MO_1278/IMG_6_1278.jpg"",""SV_PolicingMSA/MO_1278/IMG_0_1278.jpg"",""SV_PolicingMSA/MO_1278/IMG_14_1278.jpg"",""SV_PolicingMSA/MO_1278/IMG_4_1278.jpg"",""SV_PolicingMSA/MO_1278/IMG_9_1278.jpg"",""SV_PolicingMSA/MO_1278/IMG_1_1278.jpg"",""SV_PolicingMSA/MO_1278/IMG_2_1278.jpg"",""SV_PolicingMSA/MO_1278/IMG_12_1278.jpg""]","4","","","","","","5","","4","[""./rc_img/cop_condGroup_15_SafeStreets_autoscaled.png"",""./rc_img/cop_condGroup_15_CommunitySafety_autoscaled.png""]","4","",""
"sliderTrial","html-slider-response","93","453042","0.0-93.0","","656776a7904ae00d6b91d1dd","6568ae2f8afd6b009da7efb9","7","","","","","","","","","","","","1751","[""SV_PolicingMSA/MO_1278/IMG_6_1278.jpg"",""SV_PolicingMSA/MO_1278/IMG_0_1278.jpg"",""SV_PolicingMSA/MO_1278/IMG_14_1278.jpg"",""SV_PolicingMSA/MO_1278/IMG_4_1278.jpg"",""SV_PolicingMSA/MO_1278/IMG_9_1278.jpg"",""SV_PolicingMSA/MO_1278/IMG_1_1278.jpg"",""SV_PolicingMSA/MO_1278/IMG_2_1278.jpg"",""SV_PolicingMSA/MO_1278/IMG_12_1278.jpg""]","4","","","","","","5","","4","[""./rc_img/cop_condGroup_20_SafeStreets_autoscaled.png"",""./rc_img/cop_condGroup_20_CommunitySafety_autoscaled.png""]","4","",""
"before_SVSlide_prompt","html-button-response","94","454177","0.0-94.0","","656776a7904ae00d6b91d1dd","6568ae2f8afd6b009da7efb9","7","","","","","","","","","","","","1135","Click [Next] to see the next neighborhood!","0","","","","","","","","","","","",""
"street view slide show","image-button-response","95","455192","0.0-95.0","","656776a7904ae00d6b91d1dd","6568ae2f8afd6b009da7efb9","7","","","","","","","","","","","","null","stimulus/SV_PolicingMSA/MO_60/IMG_7_60.jpg","null","","","","","","4","","","","","",""
"street view slide show","image-button-response","96","456198","0.0-96.0","","656776a7904ae00d6b91d1dd","6568ae2f8afd6b009da7efb9","7","","","","","","","","","","","","null","stimulus/SV_PolicingMSA/MO_60/IMG_10_60.jpg","null","","","","","","4","","","","","",""
"street view slide show","image-button-response","97","457201","0.0-97.0","","656776a7904ae00d6b91d1dd","6568ae2f8afd6b009da7efb9","7","","","","","","","","","","","","null","stimulus/SV_PolicingMSA/MO_60/IMG_14_60.jpg","null","","","","","","4","","","","","",""
"street view slide show","image-button-response","98","458204","0.0-98.0","","656776a7904ae00d6b91d1dd","6568ae2f8afd6b009da7efb9","7","","","","","","","","","","","","null","stimulus/SV_PolicingMSA/MO_60/IMG_3_60.jpg","null","","","","","","4","","","","","",""
"street view slide show","image-button-response","99","459208","0.0-99.0","","656776a7904ae00d6b91d1dd","6568ae2f8afd6b009da7efb9","7","","","","","","","","","","","","null","stimulus/SV_PolicingMSA/MO_60/IMG_0_60.jpg","null","","","","","","4","","","","","",""
"street view slide show","image-button-response","100","460211","0.0-100.0","","656776a7904ae00d6b91d1dd","6568ae2f8afd6b009da7efb9","7","","","","","","","","","","","","null","stimulus/SV_PolicingMSA/MO_60/IMG_12_60.jpg","null","","","","","","4","","","","","",""
"street view slide show","image-button-response","101","461216","0.0-101.0","","656776a7904ae00d6b91d1dd","6568ae2f8afd6b009da7efb9","7","","","","","","","","","","","","null","stimulus/SV_PolicingMSA/MO_60/IMG_5_60.jpg","null","","","","","","4","","","","","",""
"street view slide show","image-button-response","102","462220","0.0-102.0","","656776a7904ae00d6b91d1dd","6568ae2f8afd6b009da7efb9","7","","","","","","","","","","","","null","stimulus/SV_PolicingMSA/MO_60/IMG_13_60.jpg","null","","","","","","4","","","","","",""
"dot matrix survey1","survey","103","488534","0.0-103.0","","656776a7904ae00d6b91d1dd","6568ae2f8afd6b009da7efb9","7","","","","","","","","","","","","26307","","{""P0_Q0"":null,""P0_Q1"":{""wealthy"":2,""safe"":2,""walkable"":3,""traditional"":3,""diverse"":2}}","","","","","","4","[]","","","","",""
"dot matrix survey2","survey","104","500286","0.0-104.0","","656776a7904ae00d6b91d1dd","6568ae2f8afd6b009da7efb9","7","","","","","","","","","","","","11748","","{""P0_Q0"":null,""P0_Q1"":{""violence"":0,""crime"":1,""drug"":2,""schools"":3,""opportunities"":3}}","","","","","","4","[]","","","","",""
"dot matrix survey3","survey","105","517927","0.0-105.0","","656776a7904ae00d6b91d1dd","6568ae2f8afd6b009da7efb9","7","","","","","","","","","","","","17637","","{""P0_Q0"":null,""P0_Q1"":{""movein"":1,""moveout"":2,""shopping"":2,""walk"":3,""park"":3,""school"":3}}","","","","","","4","[]","","","","",""
"sliderTrial","html-slider-response","106","520067","0.0-106.0","","656776a7904ae00d6b91d1dd","6568ae2f8afd6b009da7efb9","7","","","","","","","","","","","","2139","[""SV_PolicingMSA/MO_60/IMG_7_60.jpg"",""SV_PolicingMSA/MO_60/IMG_10_60.jpg"",""SV_PolicingMSA/MO_60/IMG_14_60.jpg"",""SV_PolicingMSA/MO_60/IMG_3_60.jpg"",""SV_PolicingMSA/MO_60/IMG_0_60.jpg"",""SV_PolicingMSA/MO_60/IMG_12_60.jpg"",""SV_PolicingMSA/MO_60/IMG_5_60.jpg"",""SV_PolicingMSA/MO_60/IMG_13_60.jpg""]","4","","","","","","4","","4","[""./rc_img/cop_condGroup_18_SafeStreets_autoscaled.png"",""./rc_img/cop_condGroup_18_CommunitySafety_autoscaled.png""]","4","",""
"sliderTrial","html-slider-response","107","521322","0.0-107.0","","656776a7904ae00d6b91d1dd","6568ae2f8afd6b009da7efb9","7","","","","","","","","","","","","1254","[""SV_PolicingMSA/MO_60/IMG_7_60.jpg"",""SV_PolicingMSA/MO_60/IMG_10_60.jpg"",""SV_PolicingMSA/MO_60/IMG_14_60.jpg"",""SV_PolicingMSA/MO_60/IMG_3_60.jpg"",""SV_PolicingMSA/MO_60/IMG_0_60.jpg"",""SV_PolicingMSA/MO_60/IMG_12_60.jpg"",""SV_PolicingMSA/MO_60/IMG_5_60.jpg"",""SV_PolicingMSA/MO_60/IMG_13_60.jpg""]","4","","","","","","4","","4","[""./rc_img/cop_condGroup_14_CommunitySafety_autoscaled.png"",""./rc_img/cop_condGroup_14_SafeStreets_autoscaled.png""]","4","",""
"sliderTrial","html-slider-response","108","522978","0.0-108.0","","656776a7904ae00d6b91d1dd","6568ae2f8afd6b009da7efb9","7","","","","","","","","","","","","1655","[""SV_PolicingMSA/MO_60/IMG_7_60.jpg"",""SV_PolicingMSA/MO_60/IMG_10_60.jpg"",""SV_PolicingMSA/MO_60/IMG_14_60.jpg"",""SV_PolicingMSA/MO_60/IMG_3_60.jpg"",""SV_PolicingMSA/MO_60/IMG_0_60.jpg"",""SV_PolicingMSA/MO_60/IMG_12_60.jpg"",""SV_PolicingMSA/MO_60/IMG_5_60.jpg"",""SV_PolicingMSA/MO_60/IMG_13_60.jpg""]","4","","","","","","4","","4","[""./rc_img/cop_condGroup_11_SafeStreets_autoscaled.png"",""./rc_img/cop_condGroup_11_CommunitySafety_autoscaled.png""]","4","",""
"sliderTrial","html-slider-response","109","524594","0.0-109.0","","656776a7904ae00d6b91d1dd","6568ae2f8afd6b009da7efb9","7","","","","","","","","","","","","1615","[""SV_PolicingMSA/MO_60/IMG_7_60.jpg"",""SV_PolicingMSA/MO_60/IMG_10_60.jpg"",""SV_PolicingMSA/MO_60/IMG_14_60.jpg"",""SV_PolicingMSA/MO_60/IMG_3_60.jpg"",""SV_PolicingMSA/MO_60/IMG_0_60.jpg"",""SV_PolicingMSA/MO_60/IMG_12_60.jpg"",""SV_PolicingMSA/MO_60/IMG_5_60.jpg"",""SV_PolicingMSA/MO_60/IMG_13_60.jpg""]","4","","","","","","4","","4","[""./rc_img/cop_condGroup_13_SafeStreets_autoscaled.png"",""./rc_img/cop_condGroup_13_CommunitySafety_autoscaled.png""]","4","",""
"sliderTrial","html-slider-response","110","526146","0.0-110.0","","656776a7904ae00d6b91d1dd","6568ae2f8afd6b009da7efb9","7","","","","","","","","","","","","1551","[""SV_PolicingMSA/MO_60/IMG_7_60.jpg"",""SV_PolicingMSA/MO_60/IMG_10_60.jpg"",""SV_PolicingMSA/MO_60/IMG_14_60.jpg"",""SV_PolicingMSA/MO_60/IMG_3_60.jpg"",""SV_PolicingMSA/MO_60/IMG_0_60.jpg"",""SV_PolicingMSA/MO_60/IMG_12_60.jpg"",""SV_PolicingMSA/MO_60/IMG_5_60.jpg"",""SV_PolicingMSA/MO_60/IMG_13_60.jpg""]","4","","","","","","4","","4","[""./rc_img/cop_condGroup_8_CommunitySafety_autoscaled.png"",""./rc_img/cop_condGroup_8_SafeStreets_autoscaled.png""]","4","",""
"before_SVSlide_prompt","html-button-response","111","527258","0.0-111.0","","656776a7904ae00d6b91d1dd","6568ae2f8afd6b009da7efb9","7","","","","","","","","","","","","1111","Click [Next] to see the next neighborhood!","0","","","","","","","","","","","",""
"street view slide show","image-button-response","112","528266","0.0-112.0","","656776a7904ae00d6b91d1dd","6568ae2f8afd6b009da7efb9","7","","","","","","","","","","","","null","stimulus/SV_PolicingMSA/MO_589/IMG_13_589.jpg","null","","","","","","2","","","","","",""
"street view slide show","image-button-response","113","529271","0.0-113.0","","656776a7904ae00d6b91d1dd","6568ae2f8afd6b009da7efb9","7","","","","","","","","","","","","null","stimulus/SV_PolicingMSA/MO_589/IMG_8_589.jpg","null","","","","","","2","","","","","",""
"street view slide show","image-button-response","114","530273","0.0-114.0","","656776a7904ae00d6b91d1dd","6568ae2f8afd6b009da7efb9","7","","","","","","","","","","","","null","stimulus/SV_PolicingMSA/MO_589/IMG_4_589.jpg","null","","","","","","2","","","","","",""
"street view slide show","image-button-response","115","531278","0.0-115.0","","656776a7904ae00d6b91d1dd","6568ae2f8afd6b009da7efb9","7","","","","","","","","","","","","null","stimulus/SV_PolicingMSA/MO_589/IMG_1_589.jpg","null","","","","","","2","","","","","",""
"street view slide show","image-button-response","116","532281","0.0-116.0","","656776a7904ae00d6b91d1dd","6568ae2f8afd6b009da7efb9","7","","","","","","","","","","","","null","stimulus/SV_PolicingMSA/MO_589/IMG_10_589.jpg","null","","","","","","2","","","","","",""
"street view slide show","image-button-response","117","533283","0.0-117.0","","656776a7904ae00d6b91d1dd","6568ae2f8afd6b009da7efb9","7","","","","","","","","","","","","null","stimulus/SV_PolicingMSA/MO_589/IMG_9_589.jpg","null","","","","","","2","","","","","",""
"street view slide show","image-button-response","118","534286","0.0-118.0","","656776a7904ae00d6b91d1dd","6568ae2f8afd6b009da7efb9","7","","","","","","","","","","","","null","stimulus/SV_PolicingMSA/MO_589/IMG_0_589.jpg","null","","","","","","2","","","","","",""
"street view slide show","image-button-response","119","535291","0.0-119.0","","656776a7904ae00d6b91d1dd","6568ae2f8afd6b009da7efb9","7","","","","","","","","","","","","null","stimulus/SV_PolicingMSA/MO_589/IMG_12_589.jpg","null","","","","","","2","","","","","",""
"dot matrix survey1","survey","120","550375","0.0-120.0","","656776a7904ae00d6b91d1dd","6568ae2f8afd6b009da7efb9","7","","","","","","","","","","","","15075","","{""P0_Q0"":null,""P0_Q1"":{""wealthy"":3,""safe"":3,""walkable"":2,""traditional"":3,""diverse"":1}}","","","","","","2","[]","","","","",""
"dot matrix survey2","survey","121","558095","0.0-121.0","","656776a7904ae00d6b91d1dd","6568ae2f8afd6b009da7efb9","7","","","","","","","","","","","","7716","","{""P0_Q0"":null,""P0_Q1"":{""violence"":0,""crime"":0,""drug"":2,""schools"":2,""opportunities"":2}}","","","","","","2","[]","","","","",""
"dot matrix survey3","survey","122","572495","0.0-122.0","","656776a7904ae00d6b91d1dd","6568ae2f8afd6b009da7efb9","7","","","","","","","","","","","","14396","","{""P0_Q0"":null,""P0_Q1"":{""movein"":0,""moveout"":2,""shopping"":1,""walk"":0,""park"":2,""school"":2}}","","","","","","2","[]","","","","",""
"sliderTrial","html-slider-response","123","574650","0.0-123.0","","656776a7904ae00d6b91d1dd","6568ae2f8afd6b009da7efb9","7","","","","","","","","","","","","2155","[""SV_PolicingMSA/MO_589/IMG_13_589.jpg"",""SV_PolicingMSA/MO_589/IMG_8_589.jpg"",""SV_PolicingMSA/MO_589/IMG_4_589.jpg"",""SV_PolicingMSA/MO_589/IMG_1_589.jpg"",""SV_PolicingMSA/MO_589/IMG_10_589.jpg"",""SV_PolicingMSA/MO_589/IMG_9_589.jpg"",""SV_PolicingMSA/MO_589/IMG_0_589.jpg"",""SV_PolicingMSA/MO_589/IMG_12_589.jpg""]","4","","","","","","2","","4","[""./rc_img/cop_condGroup_16_CommunitySafety_autoscaled.png"",""./rc_img/cop_condGroup_16_SafeStreets_autoscaled.png""]","4","",""
"sliderTrial","html-slider-response","124","575906","0.0-124.0","","656776a7904ae00d6b91d1dd","6568ae2f8afd6b009da7efb9","7","","","","","","","","","","","","1255","[""SV_PolicingMSA/MO_589/IMG_13_589.jpg"",""SV_PolicingMSA/MO_589/IMG_8_589.jpg"",""SV_PolicingMSA/MO_589/IMG_4_589.jpg"",""SV_PolicingMSA/MO_589/IMG_1_589.jpg"",""SV_PolicingMSA/MO_589/IMG_10_589.jpg"",""SV_PolicingMSA/MO_589/IMG_9_589.jpg"",""SV_PolicingMSA/MO_589/IMG_0_589.jpg"",""SV_PolicingMSA/MO_589/IMG_12_589.jpg""]","4","","","","","","2","","4","[""./rc_img/cop_condGroup_1_CommunitySafety_autoscaled.png"",""./rc_img/cop_condGroup_1_SafeStreets_autoscaled.png""]","4","",""
"sliderTrial","html-slider-response","125","577218","0.0-125.0","","656776a7904ae00d6b91d1dd","6568ae2f8afd6b009da7efb9","7","","","","","","","","","","","","1311","[""SV_PolicingMSA/MO_589/IMG_13_589.jpg"",""SV_PolicingMSA/MO_589/IMG_8_589.jpg"",""SV_PolicingMSA/MO_589/IMG_4_589.jpg"",""SV_PolicingMSA/MO_589/IMG_1_589.jpg"",""SV_PolicingMSA/MO_589/IMG_10_589.jpg"",""SV_PolicingMSA/MO_589/IMG_9_589.jpg"",""SV_PolicingMSA/MO_589/IMG_0_589.jpg"",""SV_PolicingMSA/MO_589/IMG_12_589.jpg""]","4","","","","","","2","","4","[""./rc_img/cop_condGroup_2_SafeStreets_autoscaled.png"",""./rc_img/cop_condGroup_2_CommunitySafety_autoscaled.png""]","4","",""
"sliderTrial","html-slider-response","126","578514","0.0-126.0","","656776a7904ae00d6b91d1dd","6568ae2f8afd6b009da7efb9","7","","","","","","","","","","","","1295","[""SV_PolicingMSA/MO_589/IMG_13_589.jpg"",""SV_PolicingMSA/MO_589/IMG_8_589.jpg"",""SV_PolicingMSA/MO_589/IMG_4_589.jpg"",""SV_PolicingMSA/MO_589/IMG_1_589.jpg"",""SV_PolicingMSA/MO_589/IMG_10_589.jpg"",""SV_PolicingMSA/MO_589/IMG_9_589.jpg"",""SV_PolicingMSA/MO_589/IMG_0_589.jpg"",""SV_PolicingMSA/MO_589/IMG_12_589.jpg""]","4","","","","","","2","","4","[""./rc_img/cop_condGroup_3_CommunitySafety_autoscaled.png"",""./rc_img/cop_condGroup_3_SafeStreets_autoscaled.png""]","4","",""
"sliderTrial","html-slider-response","127","579674","0.0-127.0","","656776a7904ae00d6b91d1dd","6568ae2f8afd6b009da7efb9","7","","","","","","","","","","","","1159","[""SV_PolicingMSA/MO_589/IMG_13_589.jpg"",""SV_PolicingMSA/MO_589/IMG_8_589.jpg"",""SV_PolicingMSA/MO_589/IMG_4_589.jpg"",""SV_PolicingMSA/MO_589/IMG_1_589.jpg"",""SV_PolicingMSA/MO_589/IMG_10_589.jpg"",""SV_PolicingMSA/MO_589/IMG_9_589.jpg"",""SV_PolicingMSA/MO_589/IMG_0_589.jpg"",""SV_PolicingMSA/MO_589/IMG_12_589.jpg""]","4","","","","","","2","","4","[""./rc_img/cop_condGroup_9_SafeStreets_autoscaled.png"",""./rc_img/cop_condGroup_9_CommunitySafety_autoscaled.png""]","4","",""
"before_SVSlide_prompt","html-button-response","128","580810","0.0-128.0","","656776a7904ae00d6b91d1dd","6568ae2f8afd6b009da7efb9","7","","","","","","","","","","","","1135","Click [Next] to see the next neighborhood!","0","","","","","","","","","","","",""
"street view slide show","image-button-response","129","581811","0.0-129.0","","656776a7904ae00d6b91d1dd","6568ae2f8afd6b009da7efb9","7","","","","","","","","","","","","null","stimulus/SV_PolicingMSA/MO_1289/IMG_7_1289.jpg","null","","","","","","3","","","","","",""
"street view slide show","image-button-response","130","582824","0.0-130.0","","656776a7904ae00d6b91d1dd","6568ae2f8afd6b009da7efb9","7","","","","","","","","","","","","null","stimulus/SV_PolicingMSA/MO_1289/IMG_11_1289.jpg","null","","","","","","3","","","","","",""
"street view slide show","image-button-response","131","583827","0.0-131.0","","656776a7904ae00d6b91d1dd","6568ae2f8afd6b009da7efb9","7","","","","","","","","","","","","null","stimulus/SV_PolicingMSA/MO_1289/IMG_5_1289.jpg","null","","","","","","3","","","","","",""
"street view slide show","image-button-response","132","584830","0.0-132.0","","656776a7904ae00d6b91d1dd","6568ae2f8afd6b009da7efb9","7","","","","","","","","","","","","null","stimulus/SV_PolicingMSA/MO_1289/IMG_4_1289.jpg","null","","","","","","3","","","","","",""
"street view slide show","image-button-response","133","585833","0.0-133.0","","656776a7904ae00d6b91d1dd","6568ae2f8afd6b009da7efb9","7","","","","","","","","","","","","null","stimulus/SV_PolicingMSA/MO_1289/IMG_6_1289.jpg","null","","","","","","3","","","","","",""
"street view slide show","image-button-response","134","586839","0.0-134.0","","656776a7904ae00d6b91d1dd","6568ae2f8afd6b009da7efb9","7","","","","","","","","","","","","null","stimulus/SV_PolicingMSA/MO_1289/IMG_3_1289.jpg","null","","","","","","3","","","","","",""
"street view slide show","image-button-response","135","587841","0.0-135.0","","656776a7904ae00d6b91d1dd","6568ae2f8afd6b009da7efb9","7","","","","","","","","","","","","null","stimulus/SV_PolicingMSA/MO_1289/IMG_1_1289.jpg","null","","","","","","3","","","","","",""
"street view slide show","image-button-response","136","588846","0.0-136.0","","656776a7904ae00d6b91d1dd","6568ae2f8afd6b009da7efb9","7","","","","","","","","","","","","null","stimulus/SV_PolicingMSA/MO_1289/IMG_8_1289.jpg","null","","","","","","3","","","","","",""
"dot matrix survey1","survey","137","608814","0.0-137.0","","656776a7904ae00d6b91d1dd","6568ae2f8afd6b009da7efb9","7","","","","","","","","","","","","19961","","{""P0_Q0"":null,""P0_Q1"":{""wealthy"":1,""safe"":2,""walkable"":2,""traditional"":2,""diverse"":2}}","","","","","","3","[]","","","","",""
"dot matrix survey2","survey","138","618214","0.0-138.0","","656776a7904ae00d6b91d1dd","6568ae2f8afd6b009da7efb9","7","","","","","","","","","","","","9397","","{""P0_Q0"":null,""P0_Q1"":{""violence"":2,""crime"":2,""drug"":2,""schools"":2,""opportunities"":2}}","","","","","","3","[]","","","","",""
"dot matrix survey3","survey","139","627838","0.0-139.0","","656776a7904ae00d6b91d1dd","6568ae2f8afd6b009da7efb9","7","","","","","","","","","","","","9620","","{""P0_Q0"":null,""P0_Q1"":{""movein"":0,""moveout"":3,""shopping"":1,""walk"":1,""park"":1,""school"":1}}","","","","","","3","[]","","","","",""
"sliderTrial","html-slider-response","140","630146","0.0-140.0","","656776a7904ae00d6b91d1dd","6568ae2f8afd6b009da7efb9","7","","","","","","","","","","","","2307","[""SV_PolicingMSA/MO_1289/IMG_7_1289.jpg"",""SV_PolicingMSA/MO_1289/IMG_11_1289.jpg"",""SV_PolicingMSA/MO_1289/IMG_5_1289.jpg"",""SV_PolicingMSA/MO_1289/IMG_4_1289.jpg"",""SV_PolicingMSA/MO_1289/IMG_6_1289.jpg"",""SV_PolicingMSA/MO_1289/IMG_3_1289.jpg"",""SV_PolicingMSA/MO_1289/IMG_1_1289.jpg"",""SV_PolicingMSA/MO_1289/IMG_8_1289.jpg""]","4","","","","","","3","","4","[""./rc_img/cop_condGroup_5_CommunitySafety_autoscaled.png"",""./rc_img/cop_condGroup_5_SafeStreets_autoscaled.png""]","4","",""
"sliderTrial","html-slider-response","141","631298","0.0-141.0","","656776a7904ae00d6b91d1dd","6568ae2f8afd6b009da7efb9","7","","","","","","","","","","","","1151","[""SV_PolicingMSA/MO_1289/IMG_7_1289.jpg"",""SV_PolicingMSA/MO_1289/IMG_11_1289.jpg"",""SV_PolicingMSA/MO_1289/IMG_5_1289.jpg"",""SV_PolicingMSA/MO_1289/IMG_4_1289.jpg"",""SV_PolicingMSA/MO_1289/IMG_6_1289.jpg"",""SV_PolicingMSA/MO_1289/IMG_3_1289.jpg"",""SV_PolicingMSA/MO_1289/IMG_1_1289.jpg"",""SV_PolicingMSA/MO_1289/IMG_8_1289.jpg""]","4","","","","","","3","","4","[""./rc_img/cop_condGroup_7_SafeStreets_autoscaled.png"",""./rc_img/cop_condGroup_7_CommunitySafety_autoscaled.png""]","4","",""
"sliderTrial","html-slider-response","142","632602","0.0-142.0","","656776a7904ae00d6b91d1dd","6568ae2f8afd6b009da7efb9","7","","","","","","","","","","","","1303","[""SV_PolicingMSA/MO_1289/IMG_7_1289.jpg"",""SV_PolicingMSA/MO_1289/IMG_11_1289.jpg"",""SV_PolicingMSA/MO_1289/IMG_5_1289.jpg"",""SV_PolicingMSA/MO_1289/IMG_4_1289.jpg"",""SV_PolicingMSA/MO_1289/IMG_6_1289.jpg"",""SV_PolicingMSA/MO_1289/IMG_3_1289.jpg"",""SV_PolicingMSA/MO_1289/IMG_1_1289.jpg"",""SV_PolicingMSA/MO_1289/IMG_8_1289.jpg""]","4","","","","","","3","","4","[""./rc_img/cop_condGroup_10_CommunitySafety_autoscaled.png"",""./rc_img/cop_condGroup_10_SafeStreets_autoscaled.png""]","4","",""
"sliderTrial","html-slider-response","143","633834","0.0-143.0","","656776a7904ae00d6b91d1dd","6568ae2f8afd6b009da7efb9","7","","","","","","","","","","","","1231","[""SV_PolicingMSA/MO_1289/IMG_7_1289.jpg"",""SV_PolicingMSA/MO_1289/IMG_11_1289.jpg"",""SV_PolicingMSA/MO_1289/IMG_5_1289.jpg"",""SV_PolicingMSA/MO_1289/IMG_4_1289.jpg"",""SV_PolicingMSA/MO_1289/IMG_6_1289.jpg"",""SV_PolicingMSA/MO_1289/IMG_3_1289.jpg"",""SV_PolicingMSA/MO_1289/IMG_1_1289.jpg"",""SV_PolicingMSA/MO_1289/IMG_8_1289.jpg""]","4","","","","","","3","","4","[""./rc_img/cop_condGroup_19_SafeStreets_autoscaled.png"",""./rc_img/cop_condGroup_19_CommunitySafety_autoscaled.png""]","4","",""
"sliderTrial","html-slider-response","144","635026","0.0-144.0","","656776a7904ae00d6b91d1dd","6568ae2f8afd6b009da7efb9","7","","","","","","","","","","","","1191","[""SV_PolicingMSA/MO_1289/IMG_7_1289.jpg"",""SV_PolicingMSA/MO_1289/IMG_11_1289.jpg"",""SV_PolicingMSA/MO_1289/IMG_5_1289.jpg"",""SV_PolicingMSA/MO_1289/IMG_4_1289.jpg"",""SV_PolicingMSA/MO_1289/IMG_6_1289.jpg"",""SV_PolicingMSA/MO_1289/IMG_3_1289.jpg"",""SV_PolicingMSA/MO_1289/IMG_1_1289.jpg"",""SV_PolicingMSA/MO_1289/IMG_8_1289.jpg""]","4","","","","","","3","","4","[""./rc_img/cop_condGroup_4_CommunitySafety_autoscaled.png"",""./rc_img/cop_condGroup_4_SafeStreets_autoscaled.png""]","4","",""
"demographics","survey-html-form","145","648819","0.0-145.0","","656776a7904ae00d6b91d1dd","6568ae2f8afd6b009da7efb9","7","","","","","","","","","","","","13791","","{""age"":""33"",""sex"":""male"",""gender"":""man"",""gender-self-describe"":"""",""zipcode"":""03246""}","","","","","","","","","","","",""
"demographics-list","survey","146","666479","0.0-146.0","","656776a7904ae00d6b91d1dd","6568ae2f8afd6b009da7efb9","7","","","","","","","","","","","","17643","","{""P0_Q0"":null,""race-ethnicity"":[""White or of European ancestry""],""education"":""Some college"",""P1_Q0"":null,""ideology"":""Liberal"",""P2_Q0"":null,""num-moves"":1,""P3_Q0"":null,""social-ladder"":4}","","","","","","","[]","","","","",""
"end-survey","survey-text","147","668594","0.0-147.0","","656776a7904ae00d6b91d1dd","6568ae2f8afd6b009da7efb9","7","","","","","","","","","","","","2110","","{""Q0"":""""}","","","","","","","","","","","","2"
"end-survey","html-button-response","148","673074","0.0-148.0","","656776a7904ae00d6b91d1dd","6568ae2f8afd6b009da7efb9","7","","","","","","","","","","","","4479","
    You've reached the end of the survey. <br><br> 
    <b>Do not close or refresh this window.</b><br>
    On the next page, you will be automatically redirected to Prolific. <br><br>

    <div class=""alert alert-warning""><b>
    </div>
","0","","","","","","","","","","","",""
