"task","trial_type","trial_index","time_elapsed","internal_node_id","subject_id","study_id","session_id","section","width","height","webaudio","browser","browser_version","mobile","os","fullscreen","vsync_rate","webcam","microphone","rt","stimulus","response","success","timeout","failed_images","failed_audio","failed_video","block","accuracy","slider_start","choices","standardized_response","correct","num_attention_checks_correct"
"pavlovia-init","pavlovia","0","2869","0.0-0.0","","656776a7904ae00d6b91d1dd","6568b4a0c742ad7e6541cb7e","2","","","","","","","","","","","","","","","","","","","","","","","","","",""
"browser-check","browser-check","1","4286","0.0-1.0","","656776a7904ae00d6b91d1dd","6568b4a0c742ad7e6541cb7e","2","1366","633","true","chrome","119.0.0","false","Windows 10","true","60.92","true","true","","","","","","","","","","","","","","",""
"consent","html-button-response","2","75882","0.0-2.0","","656776a7904ae00d6b91d1dd","6568b4a0c742ad7e6541cb7e","2","","","","","","","","","","","","71594","
        <div style=""font-size: 80%; max-width:700px"">
            <h2>CONSENT FORM</h2>
        
            <div style=""text-align: left"">
            <h4>DESCRIPTION</h4>
            <p>
            You will complete a short task where you give your impressions of various neighborhoods and assign individuals to those spaces, and answer some questions about your thoughts and opinions.<br>
            The University of Michigan Institutional Review Board Health Sciences and Behavioral Sciences has determined that this study is exempt from IRB oversight.
            </p>

            <h4>TIME INVOLVEMENT</h4>
            <p>Your participation will take approximately 15 minutes. You will receive $3.15 upon completion of the study.</p>
        
            <h4>RISKS AND BENEFITS</h4>
            <p>
            The risks associated with this study are minimal. The benefits which may reasonably be expected to result from this study are none. We cannot and do not guarantee or promise that you will receive any benefits from this study.
            </p>
          
            <h4>SUBJECT'S RIGHTS</h4>
            <p>
            If you have read this form and have decided to participate in this project, please understand your participation is voluntary and you have the right to withdraw your consent or discontinue participation at any time without penalty or loss of benefits to which you are otherwise entitled. The alternative is not to participate. You have the right to refuse to answer particular questions. Your individual privacy will be maintained in all published and written data resulting from the study.
            </p>

            <h4>HUMAN SUBJECT APPROVAL</h4>
            <p>
            This study is exempt from ongoing IRB review.
            </p>

            <h4>CONTACT INFORMATION</h4>
            If you have any questions, concerns or complaints about this research, its procedures, risks and benefits, contact the Protocol Director, Nicholas Camp, npcamp@umich.edu, (443) 851-6783. <br>

            If you have questions about your rights as a research participant, or wish to obtain information, ask questions or discuss any concerns about this study with someone other than the researcher(s), please contact the following:<br><br>
            University of Michigan<br>
            Health Sciences and Behavioral Sciences Institutional Review Board (IRB-HSBS)<br>
            2800 Plymouth Road<br>
            Building 520, Room 1169Ann Arbor, MI 48109-2800<br>
            Telephone: 734-936-0933 or toll free (866) 936-0933<br>
            Fax: 734-936-1852<br>
            E-mail: irbhsbs@umich.edu<br><br>

            You can also contact the University of Michigan Compliance Hotline at 1-866-990-0111. You may also print this consent form to keep.
            <br><br>
            <div class=""alert alert-warning""><b>
            Do you consent to participate in this study? If you consent to participate in this study, please click “Accept and Continue”. If you select ""Decline and Exit"", you will be exited from the survey. <br>
            </b></div>
            </div>
        </div>
    ","1","","","","","","","","","","","",""
"","preload","3","91475","0.0-3.0","","656776a7904ae00d6b91d1dd","6568b4a0c742ad7e6541cb7e","2","","","","","","","","","","","","","","","true","false","[]","[]","[]","","","","","","",""
"instructions","html-button-response","4","123329","0.0-4.0","","656776a7904ae00d6b91d1dd","6568b4a0c742ad7e6541cb7e","2","","","","","","","","","","","","31851","
        <div class=""text-container"">
        <h1>Welcome to the study!</h1>
        
        <div class=""text-left"">
            <p>
                In this study, we are interested in what people can tell about spaces from Google Street View images. <br> Google Street View takes pictures of streets used for Google Earth and Google Maps. <br>You’ll see Google Street View images of different places and answer some questions about each one.<br>
            </p>
        </div>
        <img src = ""assets/img/example.png"" width = 500px, height = auto>
        <br>
    <br>
    ","0","","","","","","","","","","","",""
"instructions","html-button-response","5","130892","0.0-5.0","","656776a7904ae00d6b91d1dd","6568b4a0c742ad7e6541cb7e","2","","","","","","","","","","","","7562","
    <div class=""text-container"">
        <div class=""text-center"">
            <p>Please remember that your answers are completely anonymous.<br>Go with your gut response- there are no right or wrong answers!</p>
        </div>
    <br>
","0","","","","","","","","","","","",""
"before_SVSlide_prompt","html-button-response","6","133181","0.0-6.0","","656776a7904ae00d6b91d1dd","6568b4a0c742ad7e6541cb7e","2","","","","","","","","","","","","2287","Click [Next] to see the next neighborhood!","0","","","","","","","","","","","",""
"street view slide show","image-button-response","7","134199","0.0-7.0","","656776a7904ae00d6b91d1dd","6568b4a0c742ad7e6541cb7e","2","","","","","","","","","","","","null","stimulus/SV_PolicingMSA/LA_1076/IMG_5_1076.jpg","null","","","","","","5","","","","","",""
"street view slide show","image-button-response","8","135211","0.0-8.0","","656776a7904ae00d6b91d1dd","6568b4a0c742ad7e6541cb7e","2","","","","","","","","","","","","null","stimulus/SV_PolicingMSA/LA_1076/IMG_8_1076.jpg","null","","","","","","5","","","","","",""
"street view slide show","image-button-response","9","136223","0.0-9.0","","656776a7904ae00d6b91d1dd","6568b4a0c742ad7e6541cb7e","2","","","","","","","","","","","","null","stimulus/SV_PolicingMSA/LA_1076/IMG_14_1076.jpg","null","","","","","","5","","","","","",""
"street view slide show","image-button-response","10","137229","0.0-10.0","","656776a7904ae00d6b91d1dd","6568b4a0c742ad7e6541cb7e","2","","","","","","","","","","","","null","stimulus/SV_PolicingMSA/LA_1076/IMG_12_1076.jpg","null","","","","","","5","","","","","",""
"street view slide show","image-button-response","11","138234","0.0-11.0","","656776a7904ae00d6b91d1dd","6568b4a0c742ad7e6541cb7e","2","","","","","","","","","","","","null","stimulus/SV_PolicingMSA/LA_1076/IMG_4_1076.jpg","null","","","","","","5","","","","","",""
"street view slide show","image-button-response","12","139248","0.0-12.0","","656776a7904ae00d6b91d1dd","6568b4a0c742ad7e6541cb7e","2","","","","","","","","","","","","null","stimulus/SV_PolicingMSA/LA_1076/IMG_3_1076.jpg","null","","","","","","5","","","","","",""
"street view slide show","image-button-response","13","140258","0.0-13.0","","656776a7904ae00d6b91d1dd","6568b4a0c742ad7e6541cb7e","2","","","","","","","","","","","","null","stimulus/SV_PolicingMSA/LA_1076/IMG_6_1076.jpg","null","","","","","","5","","","","","",""
"street view slide show","image-button-response","14","141264","0.0-14.0","","656776a7904ae00d6b91d1dd","6568b4a0c742ad7e6541cb7e","2","","","","","","","","","","","","null","stimulus/SV_PolicingMSA/LA_1076/IMG_11_1076.jpg","null","","","","","","5","","","","","",""
"dot matrix survey1","survey","15","163208","0.0-15.0","","656776a7904ae00d6b91d1dd","6568b4a0c742ad7e6541cb7e","2","","","","","","","","","","","","21811","","{""P0_Q0"":null,""P0_Q1"":{""wealthy"":3,""safe"":3,""walkable"":4,""traditional"":4,""diverse"":2}}","","","","","","5","[]","","","","",""
"dot matrix survey2","survey","16","197363","0.0-16.0","","656776a7904ae00d6b91d1dd","6568b4a0c742ad7e6541cb7e","2","","","","","","","","","","","","34134","","{""P0_Q0"":null,""P0_Q1"":{""violence"":1,""crime"":2,""drug"":3,""schools"":3,""opportunities"":3}}","","","","","","5","[]","","","","",""
"dot matrix survey3","survey","17","221469","0.0-17.0","","656776a7904ae00d6b91d1dd","6568b4a0c742ad7e6541cb7e","2","","","","","","","","","","","","24084","","{""P0_Q0"":null,""P0_Q1"":{""movein"":3,""moveout"":2,""shopping"":3,""walk"":3,""park"":3,""school"":2}}","","","","","","5","[]","","","","",""
"sliderTrial","html-slider-response","18","239383","0.0-18.0","","656776a7904ae00d6b91d1dd","6568b4a0c742ad7e6541cb7e","2","","","","","","","","","","","","17910","[""SV_PolicingMSA/LA_1076/IMG_5_1076.jpg"",""SV_PolicingMSA/LA_1076/IMG_8_1076.jpg"",""SV_PolicingMSA/LA_1076/IMG_14_1076.jpg"",""SV_PolicingMSA/LA_1076/IMG_12_1076.jpg"",""SV_PolicingMSA/LA_1076/IMG_4_1076.jpg"",""SV_PolicingMSA/LA_1076/IMG_3_1076.jpg"",""SV_PolicingMSA/LA_1076/IMG_6_1076.jpg"",""SV_PolicingMSA/LA_1076/IMG_11_1076.jpg""]","7","","","","","","5","","4","[""./rc_img/cop_condGroup_6_CommunitySafety_autoscaled.png"",""./rc_img/cop_condGroup_6_SafeStreets_autoscaled.png""]","7","",""
"sliderTrial","html-slider-response","19","248762","0.0-19.0","","656776a7904ae00d6b91d1dd","6568b4a0c742ad7e6541cb7e","2","","","","","","","","","","","","9376","[""SV_PolicingMSA/LA_1076/IMG_5_1076.jpg"",""SV_PolicingMSA/LA_1076/IMG_8_1076.jpg"",""SV_PolicingMSA/LA_1076/IMG_14_1076.jpg"",""SV_PolicingMSA/LA_1076/IMG_12_1076.jpg"",""SV_PolicingMSA/LA_1076/IMG_4_1076.jpg"",""SV_PolicingMSA/LA_1076/IMG_3_1076.jpg"",""SV_PolicingMSA/LA_1076/IMG_6_1076.jpg"",""SV_PolicingMSA/LA_1076/IMG_11_1076.jpg""]","7","","","","","","5","","4","[""./rc_img/cop_condGroup_15_CommunitySafety_autoscaled.png"",""./rc_img/cop_condGroup_15_SafeStreets_autoscaled.png""]","7","",""
"sliderTrial","html-slider-response","20","270098","0.0-20.0","","656776a7904ae00d6b91d1dd","6568b4a0c742ad7e6541cb7e","2","","","","","","","","","","","","21332","[""SV_PolicingMSA/LA_1076/IMG_5_1076.jpg"",""SV_PolicingMSA/LA_1076/IMG_8_1076.jpg"",""SV_PolicingMSA/LA_1076/IMG_14_1076.jpg"",""SV_PolicingMSA/LA_1076/IMG_12_1076.jpg"",""SV_PolicingMSA/LA_1076/IMG_4_1076.jpg"",""SV_PolicingMSA/LA_1076/IMG_3_1076.jpg"",""SV_PolicingMSA/LA_1076/IMG_6_1076.jpg"",""SV_PolicingMSA/LA_1076/IMG_11_1076.jpg""]","1","","","","","","5","","4","[""./rc_img/cop_condGroup_18_CommunitySafety_autoscaled.png"",""./rc_img/cop_condGroup_18_SafeStreets_autoscaled.png""]","1","",""
"sliderTrial","html-slider-response","21","275826","0.0-21.0","","656776a7904ae00d6b91d1dd","6568b4a0c742ad7e6541cb7e","2","","","","","","","","","","","","5724","[""SV_PolicingMSA/LA_1076/IMG_5_1076.jpg"",""SV_PolicingMSA/LA_1076/IMG_8_1076.jpg"",""SV_PolicingMSA/LA_1076/IMG_14_1076.jpg"",""SV_PolicingMSA/LA_1076/IMG_12_1076.jpg"",""SV_PolicingMSA/LA_1076/IMG_4_1076.jpg"",""SV_PolicingMSA/LA_1076/IMG_3_1076.jpg"",""SV_PolicingMSA/LA_1076/IMG_6_1076.jpg"",""SV_PolicingMSA/LA_1076/IMG_11_1076.jpg""]","7","","","","","","5","","4","[""./rc_img/cop_condGroup_17_SafeStreets_autoscaled.png"",""./rc_img/cop_condGroup_17_CommunitySafety_autoscaled.png""]","1","",""
"sliderTrial","html-slider-response","22","281657","0.0-22.0","","656776a7904ae00d6b91d1dd","6568b4a0c742ad7e6541cb7e","2","","","","","","","","","","","","5829","[""SV_PolicingMSA/LA_1076/IMG_5_1076.jpg"",""SV_PolicingMSA/LA_1076/IMG_8_1076.jpg"",""SV_PolicingMSA/LA_1076/IMG_14_1076.jpg"",""SV_PolicingMSA/LA_1076/IMG_12_1076.jpg"",""SV_PolicingMSA/LA_1076/IMG_4_1076.jpg"",""SV_PolicingMSA/LA_1076/IMG_3_1076.jpg"",""SV_PolicingMSA/LA_1076/IMG_6_1076.jpg"",""SV_PolicingMSA/LA_1076/IMG_11_1076.jpg""]","1","","","","","","5","","4","[""./rc_img/cop_condGroup_11_CommunitySafety_autoscaled.png"",""./rc_img/cop_condGroup_11_SafeStreets_autoscaled.png""]","1","",""
"before_SVSlide_prompt","html-button-response","23","283158","0.0-23.0","","656776a7904ae00d6b91d1dd","6568b4a0c742ad7e6541cb7e","2","","","","","","","","","","","","1498","Click [Next] to see the next neighborhood!","0","","","","","","","","","","","",""
"street view slide show","image-button-response","24","284177","0.0-24.0","","656776a7904ae00d6b91d1dd","6568b4a0c742ad7e6541cb7e","2","","","","","","","","","","","","null","stimulus/SV_PolicingMSA/LA_447/IMG_2_447.jpg","null","","","","","","3","","","","","",""
"street view slide show","image-button-response","25","285192","0.0-25.0","","656776a7904ae00d6b91d1dd","6568b4a0c742ad7e6541cb7e","2","","","","","","","","","","","","null","stimulus/SV_PolicingMSA/LA_447/IMG_7_447.jpg","null","","","","","","3","","","","","",""
"street view slide show","image-button-response","26","286204","0.0-26.0","","656776a7904ae00d6b91d1dd","6568b4a0c742ad7e6541cb7e","2","","","","","","","","","","","","null","stimulus/SV_PolicingMSA/LA_447/IMG_3_447.jpg","null","","","","","","3","","","","","",""
"street view slide show","image-button-response","27","287214","0.0-27.0","","656776a7904ae00d6b91d1dd","6568b4a0c742ad7e6541cb7e","2","","","","","","","","","","","","null","stimulus/SV_PolicingMSA/LA_447/IMG_10_447.jpg","null","","","","","","3","","","","","",""
"street view slide show","image-button-response","28","288231","0.0-28.0","","656776a7904ae00d6b91d1dd","6568b4a0c742ad7e6541cb7e","2","","","","","","","","","","","","null","stimulus/SV_PolicingMSA/LA_447/IMG_0_447.jpg","null","","","","","","3","","","","","",""
"street view slide show","image-button-response","29","289243","0.0-29.0","","656776a7904ae00d6b91d1dd","6568b4a0c742ad7e6541cb7e","2","","","","","","","","","","","","null","stimulus/SV_PolicingMSA/LA_447/IMG_14_447.jpg","null","","","","","","3","","","","","",""
"street view slide show","image-button-response","30","290261","0.0-30.0","","656776a7904ae00d6b91d1dd","6568b4a0c742ad7e6541cb7e","2","","","","","","","","","","","","null","stimulus/SV_PolicingMSA/LA_447/IMG_5_447.jpg","null","","","","","","3","","","","","",""
"street view slide show","image-button-response","31","291268","0.0-31.0","","656776a7904ae00d6b91d1dd","6568b4a0c742ad7e6541cb7e","2","","","","","","","","","","","","null","stimulus/SV_PolicingMSA/LA_447/IMG_9_447.jpg","null","","","","","","3","","","","","",""
"dot matrix survey1","survey","32","305246","0.0-32.0","","656776a7904ae00d6b91d1dd","6568b4a0c742ad7e6541cb7e","2","","","","","","","","","","","","13940","","{""P0_Q0"":null,""P0_Q1"":{""wealthy"":2,""safe"":3,""walkable"":3,""traditional"":2,""diverse"":1}}","","","","","","3","[]","","","","",""
"dot matrix survey2","survey","33","327803","0.0-33.0","","656776a7904ae00d6b91d1dd","6568b4a0c742ad7e6541cb7e","2","","","","","","","","","","","","22537","","{""P0_Q0"":null,""P0_Q1"":{""violence"":1,""crime"":1,""drug"":1,""schools"":3,""opportunities"":3}}","","","","","","3","[]","","","","",""
"dot matrix survey3","survey","34","339422","0.0-34.0","","656776a7904ae00d6b91d1dd","6568b4a0c742ad7e6541cb7e","2","","","","","","","","","","","","11598","","{""P0_Q0"":null,""P0_Q1"":{""movein"":3,""moveout"":3,""shopping"":3,""walk"":3,""park"":3,""school"":3}}","","","","","","3","[]","","","","",""
"sliderTrial","html-slider-response","35","346079","0.0-35.0","","656776a7904ae00d6b91d1dd","6568b4a0c742ad7e6541cb7e","2","","","","","","","","","","","","6653","[""SV_PolicingMSA/LA_447/IMG_2_447.jpg"",""SV_PolicingMSA/LA_447/IMG_7_447.jpg"",""SV_PolicingMSA/LA_447/IMG_3_447.jpg"",""SV_PolicingMSA/LA_447/IMG_10_447.jpg"",""SV_PolicingMSA/LA_447/IMG_0_447.jpg"",""SV_PolicingMSA/LA_447/IMG_14_447.jpg"",""SV_PolicingMSA/LA_447/IMG_5_447.jpg"",""SV_PolicingMSA/LA_447/IMG_9_447.jpg""]","7","","","","","","3","","4","[""./rc_img/cop_condGroup_4_SafeStreets_autoscaled.png"",""./rc_img/cop_condGroup_4_CommunitySafety_autoscaled.png""]","1","",""
"sliderTrial","html-slider-response","36","350224","0.0-36.0","","656776a7904ae00d6b91d1dd","6568b4a0c742ad7e6541cb7e","2","","","","","","","","","","","","4142","[""SV_PolicingMSA/LA_447/IMG_2_447.jpg"",""SV_PolicingMSA/LA_447/IMG_7_447.jpg"",""SV_PolicingMSA/LA_447/IMG_3_447.jpg"",""SV_PolicingMSA/LA_447/IMG_10_447.jpg"",""SV_PolicingMSA/LA_447/IMG_0_447.jpg"",""SV_PolicingMSA/LA_447/IMG_14_447.jpg"",""SV_PolicingMSA/LA_447/IMG_5_447.jpg"",""SV_PolicingMSA/LA_447/IMG_9_447.jpg""]","1","","","","","","3","","4","[""./rc_img/cop_condGroup_12_CommunitySafety_autoscaled.png"",""./rc_img/cop_condGroup_12_SafeStreets_autoscaled.png""]","1","",""
"sliderTrial","html-slider-response","37","354259","0.0-37.0","","656776a7904ae00d6b91d1dd","6568b4a0c742ad7e6541cb7e","2","","","","","","","","","","","","4030","[""SV_PolicingMSA/LA_447/IMG_2_447.jpg"",""SV_PolicingMSA/LA_447/IMG_7_447.jpg"",""SV_PolicingMSA/LA_447/IMG_3_447.jpg"",""SV_PolicingMSA/LA_447/IMG_10_447.jpg"",""SV_PolicingMSA/LA_447/IMG_0_447.jpg"",""SV_PolicingMSA/LA_447/IMG_14_447.jpg"",""SV_PolicingMSA/LA_447/IMG_5_447.jpg"",""SV_PolicingMSA/LA_447/IMG_9_447.jpg""]","7","","","","","","3","","4","[""./rc_img/cop_condGroup_5_SafeStreets_autoscaled.png"",""./rc_img/cop_condGroup_5_CommunitySafety_autoscaled.png""]","1","",""
"sliderTrial","html-slider-response","38","358906","0.0-38.0","","656776a7904ae00d6b91d1dd","6568b4a0c742ad7e6541cb7e","2","","","","","","","","","","","","4645","[""SV_PolicingMSA/LA_447/IMG_2_447.jpg"",""SV_PolicingMSA/LA_447/IMG_7_447.jpg"",""SV_PolicingMSA/LA_447/IMG_3_447.jpg"",""SV_PolicingMSA/LA_447/IMG_10_447.jpg"",""SV_PolicingMSA/LA_447/IMG_0_447.jpg"",""SV_PolicingMSA/LA_447/IMG_14_447.jpg"",""SV_PolicingMSA/LA_447/IMG_5_447.jpg"",""SV_PolicingMSA/LA_447/IMG_9_447.jpg""]","7","","","","","","3","","4","[""./rc_img/cop_condGroup_2_SafeStreets_autoscaled.png"",""./rc_img/cop_condGroup_2_CommunitySafety_autoscaled.png""]","1","",""
"sliderTrial","html-slider-response","39","362759","0.0-39.0","","656776a7904ae00d6b91d1dd","6568b4a0c742ad7e6541cb7e","2","","","","","","","","","","","","3849","[""SV_PolicingMSA/LA_447/IMG_2_447.jpg"",""SV_PolicingMSA/LA_447/IMG_7_447.jpg"",""SV_PolicingMSA/LA_447/IMG_3_447.jpg"",""SV_PolicingMSA/LA_447/IMG_10_447.jpg"",""SV_PolicingMSA/LA_447/IMG_0_447.jpg"",""SV_PolicingMSA/LA_447/IMG_14_447.jpg"",""SV_PolicingMSA/LA_447/IMG_5_447.jpg"",""SV_PolicingMSA/LA_447/IMG_9_447.jpg""]","7","","","","","","3","","4","[""./rc_img/cop_condGroup_14_SafeStreets_autoscaled.png"",""./rc_img/cop_condGroup_14_CommunitySafety_autoscaled.png""]","1","",""
"before_SVSlide_prompt","html-button-response","40","364049","0.0-40.0","","656776a7904ae00d6b91d1dd","6568b4a0c742ad7e6541cb7e","2","","","","","","","","","","","","1289","Click [Next] to see the next neighborhood!","0","","","","","","","","","","","",""
"street view slide show","image-button-response","41","365061","0.0-41.0","","656776a7904ae00d6b91d1dd","6568b4a0c742ad7e6541cb7e","2","","","","","","","","","","","","null","stimulus/SV_PolicingMSA/LA_42/IMG_0_42.jpg","null","","","","","","2","","","","","",""
"street view slide show","image-button-response","42","366074","0.0-42.0","","656776a7904ae00d6b91d1dd","6568b4a0c742ad7e6541cb7e","2","","","","","","","","","","","","null","stimulus/SV_PolicingMSA/LA_42/IMG_5_42.jpg","null","","","","","","2","","","","","",""
"street view slide show","image-button-response","43","367088","0.0-43.0","","656776a7904ae00d6b91d1dd","6568b4a0c742ad7e6541cb7e","2","","","","","","","","","","","","null","stimulus/SV_PolicingMSA/LA_42/IMG_2_42.jpg","null","","","","","","2","","","","","",""
"street view slide show","image-button-response","44","368100","0.0-44.0","","656776a7904ae00d6b91d1dd","6568b4a0c742ad7e6541cb7e","2","","","","","","","","","","","","null","stimulus/SV_PolicingMSA/LA_42/IMG_1_42.jpg","null","","","","","","2","","","","","",""
"street view slide show","image-button-response","45","369104","0.0-45.0","","656776a7904ae00d6b91d1dd","6568b4a0c742ad7e6541cb7e","2","","","","","","","","","","","","null","stimulus/SV_PolicingMSA/LA_42/IMG_10_42.jpg","null","","","","","","2","","","","","",""
"street view slide show","image-button-response","46","370120","0.0-46.0","","656776a7904ae00d6b91d1dd","6568b4a0c742ad7e6541cb7e","2","","","","","","","","","","","","null","stimulus/SV_PolicingMSA/LA_42/IMG_7_42.jpg","null","","","","","","2","","","","","",""
"street view slide show","image-button-response","47","371132","0.0-47.0","","656776a7904ae00d6b91d1dd","6568b4a0c742ad7e6541cb7e","2","","","","","","","","","","","","null","stimulus/SV_PolicingMSA/LA_42/IMG_13_42.jpg","null","","","","","","2","","","","","",""
"street view slide show","image-button-response","48","372136","0.0-48.0","","656776a7904ae00d6b91d1dd","6568b4a0c742ad7e6541cb7e","2","","","","","","","","","","","","null","stimulus/SV_PolicingMSA/LA_42/IMG_14_42.jpg","null","","","","","","2","","","","","",""
"dot matrix survey1","survey","49","381553","0.0-49.0","","656776a7904ae00d6b91d1dd","6568b4a0c742ad7e6541cb7e","2","","","","","","","","","","","","9367","","{""P0_Q0"":null,""P0_Q1"":{""wealthy"":4,""safe"":3,""walkable"":4,""traditional"":4,""diverse"":3}}","","","","","","2","[]","","","","",""
"dot matrix survey2","survey","50","392815","0.0-50.0","","656776a7904ae00d6b91d1dd","6568b4a0c742ad7e6541cb7e","2","","","","","","","","","","","","11247","","{""P0_Q0"":null,""P0_Q1"":{""violence"":3,""crime"":4,""drug"":3,""schools"":2,""opportunities"":2}}","","","","","","2","[]","","","","",""
"dot matrix survey3","survey","51","397800","0.0-51.0","","656776a7904ae00d6b91d1dd","6568b4a0c742ad7e6541cb7e","2","","","","","","","","","","","","4968","","{""P0_Q0"":null,""P0_Q1"":{""movein"":2,""moveout"":2,""shopping"":2,""walk"":2,""park"":2,""school"":2}}","","","","","","2","[]","","","","",""
"sliderTrial","html-slider-response","52","402044","0.0-52.0","","656776a7904ae00d6b91d1dd","6568b4a0c742ad7e6541cb7e","2","","","","","","","","","","","","4239","[""SV_PolicingMSA/LA_42/IMG_0_42.jpg"",""SV_PolicingMSA/LA_42/IMG_5_42.jpg"",""SV_PolicingMSA/LA_42/IMG_2_42.jpg"",""SV_PolicingMSA/LA_42/IMG_1_42.jpg"",""SV_PolicingMSA/LA_42/IMG_10_42.jpg"",""SV_PolicingMSA/LA_42/IMG_7_42.jpg"",""SV_PolicingMSA/LA_42/IMG_13_42.jpg"",""SV_PolicingMSA/LA_42/IMG_14_42.jpg""]","7","","","","","","2","","4","[""./rc_img/cop_condGroup_16_CommunitySafety_autoscaled.png"",""./rc_img/cop_condGroup_16_SafeStreets_autoscaled.png""]","7","",""
"sliderTrial","html-slider-response","53","405042","0.0-53.0","","656776a7904ae00d6b91d1dd","6568b4a0c742ad7e6541cb7e","2","","","","","","","","","","","","2995","[""SV_PolicingMSA/LA_42/IMG_0_42.jpg"",""SV_PolicingMSA/LA_42/IMG_5_42.jpg"",""SV_PolicingMSA/LA_42/IMG_2_42.jpg"",""SV_PolicingMSA/LA_42/IMG_1_42.jpg"",""SV_PolicingMSA/LA_42/IMG_10_42.jpg"",""SV_PolicingMSA/LA_42/IMG_7_42.jpg"",""SV_PolicingMSA/LA_42/IMG_13_42.jpg"",""SV_PolicingMSA/LA_42/IMG_14_42.jpg""]","1","","","","","","2","","4","[""./rc_img/cop_condGroup_8_SafeStreets_autoscaled.png"",""./rc_img/cop_condGroup_8_CommunitySafety_autoscaled.png""]","7","",""
"sliderTrial","html-slider-response","54","408280","0.0-54.0","","656776a7904ae00d6b91d1dd","6568b4a0c742ad7e6541cb7e","2","","","","","","","","","","","","3235","[""SV_PolicingMSA/LA_42/IMG_0_42.jpg"",""SV_PolicingMSA/LA_42/IMG_5_42.jpg"",""SV_PolicingMSA/LA_42/IMG_2_42.jpg"",""SV_PolicingMSA/LA_42/IMG_1_42.jpg"",""SV_PolicingMSA/LA_42/IMG_10_42.jpg"",""SV_PolicingMSA/LA_42/IMG_7_42.jpg"",""SV_PolicingMSA/LA_42/IMG_13_42.jpg"",""SV_PolicingMSA/LA_42/IMG_14_42.jpg""]","1","","","","","","2","","4","[""./rc_img/cop_condGroup_7_SafeStreets_autoscaled.png"",""./rc_img/cop_condGroup_7_CommunitySafety_autoscaled.png""]","7","",""
"sliderTrial","html-slider-response","55","411521","0.0-55.0","","656776a7904ae00d6b91d1dd","6568b4a0c742ad7e6541cb7e","2","","","","","","","","","","","","3237","[""SV_PolicingMSA/LA_42/IMG_0_42.jpg"",""SV_PolicingMSA/LA_42/IMG_5_42.jpg"",""SV_PolicingMSA/LA_42/IMG_2_42.jpg"",""SV_PolicingMSA/LA_42/IMG_1_42.jpg"",""SV_PolicingMSA/LA_42/IMG_10_42.jpg"",""SV_PolicingMSA/LA_42/IMG_7_42.jpg"",""SV_PolicingMSA/LA_42/IMG_13_42.jpg"",""SV_PolicingMSA/LA_42/IMG_14_42.jpg""]","7","","","","","","2","","4","[""./rc_img/cop_condGroup_1_CommunitySafety_autoscaled.png"",""./rc_img/cop_condGroup_1_SafeStreets_autoscaled.png""]","7","",""
"sliderTrial","html-slider-response","56","414737","0.0-56.0","","656776a7904ae00d6b91d1dd","6568b4a0c742ad7e6541cb7e","2","","","","","","","","","","","","3213","[""SV_PolicingMSA/LA_42/IMG_0_42.jpg"",""SV_PolicingMSA/LA_42/IMG_5_42.jpg"",""SV_PolicingMSA/LA_42/IMG_2_42.jpg"",""SV_PolicingMSA/LA_42/IMG_1_42.jpg"",""SV_PolicingMSA/LA_42/IMG_10_42.jpg"",""SV_PolicingMSA/LA_42/IMG_7_42.jpg"",""SV_PolicingMSA/LA_42/IMG_13_42.jpg"",""SV_PolicingMSA/LA_42/IMG_14_42.jpg""]","1","","","","","","2","","4","[""./rc_img/cop_condGroup_9_SafeStreets_autoscaled.png"",""./rc_img/cop_condGroup_9_CommunitySafety_autoscaled.png""]","7","",""
"before_SVSlide_prompt","html-button-response","57","416477","0.0-57.0","","656776a7904ae00d6b91d1dd","6568b4a0c742ad7e6541cb7e","2","","","","","","","","","","","","1738","Click [Next] to see the next neighborhood!","0","","","","","","","","","","","",""
"street view slide show","image-button-response","58","417482","0.0-58.0","","656776a7904ae00d6b91d1dd","6568b4a0c742ad7e6541cb7e","2","","","","","","","","","","","","null","stimulus/SV_PolicingMSA/LA_55/IMG_2_55.jpg","null","","","","","","0","","","","","",""
"street view slide show","image-button-response","59","418493","0.0-59.0","","656776a7904ae00d6b91d1dd","6568b4a0c742ad7e6541cb7e","2","","","","","","","","","","","","null","stimulus/SV_PolicingMSA/LA_55/IMG_0_55.jpg","null","","","","","","0","","","","","",""
"street view slide show","image-button-response","60","419509","0.0-60.0","","656776a7904ae00d6b91d1dd","6568b4a0c742ad7e6541cb7e","2","","","","","","","","","","","","null","stimulus/SV_PolicingMSA/LA_55/IMG_14_55.jpg","null","","","","","","0","","","","","",""
"street view slide show","image-button-response","61","420517","0.0-61.0","","656776a7904ae00d6b91d1dd","6568b4a0c742ad7e6541cb7e","2","","","","","","","","","","","","null","stimulus/SV_PolicingMSA/LA_55/IMG_3_55.jpg","null","","","","","","0","","","","","",""
"street view slide show","image-button-response","62","421522","0.0-62.0","","656776a7904ae00d6b91d1dd","6568b4a0c742ad7e6541cb7e","2","","","","","","","","","","","","null","stimulus/SV_PolicingMSA/LA_55/IMG_8_55.jpg","null","","","","","","0","","","","","",""
"street view slide show","image-button-response","63","422527","0.0-63.0","","656776a7904ae00d6b91d1dd","6568b4a0c742ad7e6541cb7e","2","","","","","","","","","","","","null","stimulus/SV_PolicingMSA/LA_55/IMG_10_55.jpg","null","","","","","","0","","","","","",""
"street view slide show","image-button-response","64","423543","0.0-64.0","","656776a7904ae00d6b91d1dd","6568b4a0c742ad7e6541cb7e","2","","","","","","","","","","","","null","stimulus/SV_PolicingMSA/LA_55/IMG_9_55.jpg","null","","","","","","0","","","","","",""
"street view slide show","image-button-response","65","424554","0.0-65.0","","656776a7904ae00d6b91d1dd","6568b4a0c742ad7e6541cb7e","2","","","","","","","","","","","","null","stimulus/SV_PolicingMSA/LA_55/IMG_4_55.jpg","null","","","","","","0","","","","","",""
"dot matrix survey1","survey","66","439206","0.0-66.0","","656776a7904ae00d6b91d1dd","6568b4a0c742ad7e6541cb7e","2","","","","","","","","","","","","14616","","{""P0_Q0"":null,""P0_Q1"":{""walkable"":4,""safe"":2,""wealthy"":3,""diverse"":3,""traditional"":2}}","","","","","","0","[]","","","","",""
"dot matrix survey2","survey","67","450284","0.0-67.0","","656776a7904ae00d6b91d1dd","6568b4a0c742ad7e6541cb7e","2","","","","","","","","","","","","11063","","{""P0_Q0"":null,""P0_Q1"":{""violence"":3,""crime"":4,""drug"":3,""schools"":1,""opportunities"":1}}","","","","","","0","[]","","","","",""
"dot matrix survey3","survey","68","461614","0.0-68.0","","656776a7904ae00d6b91d1dd","6568b4a0c742ad7e6541cb7e","2","","","","","","","","","","","","11314","","{""P0_Q0"":null,""P0_Q1"":{""movein"":1,""moveout"":1,""shopping"":1,""walk"":1,""park"":1,""school"":1}}","","","","","","0","[]","","","","",""
"sliderTrial","html-slider-response","69","465514","0.0-69.0","","656776a7904ae00d6b91d1dd","6568b4a0c742ad7e6541cb7e","2","","","","","","","","","","","","3897","[""SV_PolicingMSA/LA_55/IMG_2_55.jpg"",""SV_PolicingMSA/LA_55/IMG_0_55.jpg"",""SV_PolicingMSA/LA_55/IMG_14_55.jpg"",""SV_PolicingMSA/LA_55/IMG_3_55.jpg"",""SV_PolicingMSA/LA_55/IMG_8_55.jpg"",""SV_PolicingMSA/LA_55/IMG_10_55.jpg"",""SV_PolicingMSA/LA_55/IMG_9_55.jpg"",""SV_PolicingMSA/LA_55/IMG_4_55.jpg""]","7","","","","","","0","","4","[""./rc_img/cop_condGroup_16_CommunitySafety_autoscaled.png"",""./rc_img/cop_condGroup_16_SafeStreets_autoscaled.png""]","7","",""
"sliderTrial","html-slider-response","70","468550","0.0-70.0","","656776a7904ae00d6b91d1dd","6568b4a0c742ad7e6541cb7e","2","","","","","","","","","","","","3033","[""SV_PolicingMSA/LA_55/IMG_2_55.jpg"",""SV_PolicingMSA/LA_55/IMG_0_55.jpg"",""SV_PolicingMSA/LA_55/IMG_14_55.jpg"",""SV_PolicingMSA/LA_55/IMG_3_55.jpg"",""SV_PolicingMSA/LA_55/IMG_8_55.jpg"",""SV_PolicingMSA/LA_55/IMG_10_55.jpg"",""SV_PolicingMSA/LA_55/IMG_9_55.jpg"",""SV_PolicingMSA/LA_55/IMG_4_55.jpg""]","1","","","","","","0","","4","[""./rc_img/cop_condGroup_8_SafeStreets_autoscaled.png"",""./rc_img/cop_condGroup_8_CommunitySafety_autoscaled.png""]","7","",""
"sliderTrial_attention","html-slider-response","71","478565","0.0-71.0","","656776a7904ae00d6b91d1dd","6568b4a0c742ad7e6541cb7e","2","","","","","","","","","","","","null","[""SV_PolicingMSA/LA_55/IMG_2_55.jpg"",""SV_PolicingMSA/LA_55/IMG_0_55.jpg"",""SV_PolicingMSA/LA_55/IMG_14_55.jpg"",""SV_PolicingMSA/LA_55/IMG_3_55.jpg"",""SV_PolicingMSA/LA_55/IMG_8_55.jpg"",""SV_PolicingMSA/LA_55/IMG_10_55.jpg"",""SV_PolicingMSA/LA_55/IMG_9_55.jpg"",""SV_PolicingMSA/LA_55/IMG_4_55.jpg""]","null","","","","","","0","","4","[""./assets/img/attnchk.png"",""./assets/img/attnchk.png""]","","true",""
"sliderTrial","html-slider-response","72","484758","0.0-72.0","","656776a7904ae00d6b91d1dd","6568b4a0c742ad7e6541cb7e","2","","","","","","","","","","","","6185","[""SV_PolicingMSA/LA_55/IMG_2_55.jpg"",""SV_PolicingMSA/LA_55/IMG_0_55.jpg"",""SV_PolicingMSA/LA_55/IMG_14_55.jpg"",""SV_PolicingMSA/LA_55/IMG_3_55.jpg"",""SV_PolicingMSA/LA_55/IMG_8_55.jpg"",""SV_PolicingMSA/LA_55/IMG_10_55.jpg"",""SV_PolicingMSA/LA_55/IMG_9_55.jpg"",""SV_PolicingMSA/LA_55/IMG_4_55.jpg""]","1","","","","","","0","","4","[""./rc_img/cop_condGroup_7_SafeStreets_autoscaled.png"",""./rc_img/cop_condGroup_7_CommunitySafety_autoscaled.png""]","7","",""
"sliderTrial","html-slider-response","73","488072","0.0-73.0","","656776a7904ae00d6b91d1dd","6568b4a0c742ad7e6541cb7e","2","","","","","","","","","","","","3311","[""SV_PolicingMSA/LA_55/IMG_2_55.jpg"",""SV_PolicingMSA/LA_55/IMG_0_55.jpg"",""SV_PolicingMSA/LA_55/IMG_14_55.jpg"",""SV_PolicingMSA/LA_55/IMG_3_55.jpg"",""SV_PolicingMSA/LA_55/IMG_8_55.jpg"",""SV_PolicingMSA/LA_55/IMG_10_55.jpg"",""SV_PolicingMSA/LA_55/IMG_9_55.jpg"",""SV_PolicingMSA/LA_55/IMG_4_55.jpg""]","7","","","","","","0","","4","[""./rc_img/cop_condGroup_1_CommunitySafety_autoscaled.png"",""./rc_img/cop_condGroup_1_SafeStreets_autoscaled.png""]","7","",""
"sliderTrial","html-slider-response","74","493642","0.0-74.0","","656776a7904ae00d6b91d1dd","6568b4a0c742ad7e6541cb7e","2","","","","","","","","","","","","5567","[""SV_PolicingMSA/LA_55/IMG_2_55.jpg"",""SV_PolicingMSA/LA_55/IMG_0_55.jpg"",""SV_PolicingMSA/LA_55/IMG_14_55.jpg"",""SV_PolicingMSA/LA_55/IMG_3_55.jpg"",""SV_PolicingMSA/LA_55/IMG_8_55.jpg"",""SV_PolicingMSA/LA_55/IMG_10_55.jpg"",""SV_PolicingMSA/LA_55/IMG_9_55.jpg"",""SV_PolicingMSA/LA_55/IMG_4_55.jpg""]","1","","","","","","0","","4","[""./rc_img/cop_condGroup_9_SafeStreets_autoscaled.png"",""./rc_img/cop_condGroup_9_CommunitySafety_autoscaled.png""]","7","",""
"half-way","html-button-response","75","509395","0.0-75.0","","656776a7904ae00d6b91d1dd","6568b4a0c742ad7e6541cb7e","2","","","","","","","","","","","","null","
    <h3>You are now half way through the study.</h3>
    <p>Please take a quick, 15-second break before you continue.</p>
    <img src='assets/img/countdown-15.gif'>
    <p>The study will automatically advance forward after the countdown is complete. <br> However, you may click ""Next"" to advance forward now if you wish.</p>
    ","null","","","","","","","","","","","",""
"before_SVSlide_prompt","html-button-response","76","510652","0.0-76.0","","656776a7904ae00d6b91d1dd","6568b4a0c742ad7e6541cb7e","2","","","","","","","","","","","","1255","Click [Next] to see the next neighborhood!","0","","","","","","","","","","","",""
"street view slide show","image-button-response","77","511660","0.0-77.0","","656776a7904ae00d6b91d1dd","6568b4a0c742ad7e6541cb7e","2","","","","","","","","","","","","null","stimulus/SV_PolicingMSA/LA_599/IMG_2_599.jpg","null","","","","","","3","","","","","",""
"street view slide show","image-button-response","78","512668","0.0-78.0","","656776a7904ae00d6b91d1dd","6568b4a0c742ad7e6541cb7e","2","","","","","","","","","","","","null","stimulus/SV_PolicingMSA/LA_599/IMG_4_599.jpg","null","","","","","","3","","","","","",""
"street view slide show","image-button-response","79","513672","0.0-79.0","","656776a7904ae00d6b91d1dd","6568b4a0c742ad7e6541cb7e","2","","","","","","","","","","","","null","stimulus/SV_PolicingMSA/LA_599/IMG_1_599.jpg","null","","","","","","3","","","","","",""
"street view slide show","image-button-response","80","514681","0.0-80.0","","656776a7904ae00d6b91d1dd","6568b4a0c742ad7e6541cb7e","2","","","","","","","","","","","","null","stimulus/SV_PolicingMSA/LA_599/IMG_9_599.jpg","null","","","","","","3","","","","","",""
"street view slide show","image-button-response","81","515700","0.0-81.0","","656776a7904ae00d6b91d1dd","6568b4a0c742ad7e6541cb7e","2","","","","","","","","","","","","null","stimulus/SV_PolicingMSA/LA_599/IMG_11_599.jpg","null","","","","","","3","","","","","",""
"street view slide show","image-button-response","82","516707","0.0-82.0","","656776a7904ae00d6b91d1dd","6568b4a0c742ad7e6541cb7e","2","","","","","","","","","","","","null","stimulus/SV_PolicingMSA/LA_599/IMG_3_599.jpg","null","","","","","","3","","","","","",""
"street view slide show","image-button-response","83","517716","0.0-83.0","","656776a7904ae00d6b91d1dd","6568b4a0c742ad7e6541cb7e","2","","","","","","","","","","","","null","stimulus/SV_PolicingMSA/LA_599/IMG_5_599.jpg","null","","","","","","3","","","","","",""
"street view slide show","image-button-response","84","518733","0.0-84.0","","656776a7904ae00d6b91d1dd","6568b4a0c742ad7e6541cb7e","2","","","","","","","","","","","","null","stimulus/SV_PolicingMSA/LA_599/IMG_8_599.jpg","null","","","","","","3","","","","","",""
"dot matrix survey1","survey","85","523883","0.0-85.0","","656776a7904ae00d6b91d1dd","6568b4a0c742ad7e6541cb7e","2","","","","","","","","","","","","5125","","{""P0_Q0"":null,""P0_Q1"":{""wealthy"":4,""safe"":4,""walkable"":4,""traditional"":4,""diverse"":4}}","","","","","","3","[]","","","","",""
"dot matrix survey2","survey","86","529550","0.0-86.0","","656776a7904ae00d6b91d1dd","6568b4a0c742ad7e6541cb7e","2","","","","","","","","","","","","5653","","{""P0_Q0"":null,""P0_Q1"":{""violence"":0,""crime"":0,""drug"":0,""schools"":4,""opportunities"":4}}","","","","","","3","[]","","","","",""
"dot matrix survey3","survey","87","535999","0.0-87.0","","656776a7904ae00d6b91d1dd","6568b4a0c742ad7e6541cb7e","2","","","","","","","","","","","","6436","","{""P0_Q0"":null,""P0_Q1"":{""movein"":4,""moveout"":4,""walk"":4,""shopping"":4,""park"":4,""school"":4}}","","","","","","3","[]","","","","",""
"sliderTrial","html-slider-response","88","540101","0.0-88.0","","656776a7904ae00d6b91d1dd","6568b4a0c742ad7e6541cb7e","2","","","","","","","","","","","","4099","[""SV_PolicingMSA/LA_599/IMG_2_599.jpg"",""SV_PolicingMSA/LA_599/IMG_4_599.jpg"",""SV_PolicingMSA/LA_599/IMG_1_599.jpg"",""SV_PolicingMSA/LA_599/IMG_9_599.jpg"",""SV_PolicingMSA/LA_599/IMG_11_599.jpg"",""SV_PolicingMSA/LA_599/IMG_3_599.jpg"",""SV_PolicingMSA/LA_599/IMG_5_599.jpg"",""SV_PolicingMSA/LA_599/IMG_8_599.jpg""]","1","","","","","","3","","4","[""./rc_img/cop_condGroup_6_CommunitySafety_autoscaled.png"",""./rc_img/cop_condGroup_6_SafeStreets_autoscaled.png""]","1","",""
"sliderTrial","html-slider-response","89","543421","0.0-89.0","","656776a7904ae00d6b91d1dd","6568b4a0c742ad7e6541cb7e","2","","","","","","","","","","","","3317","[""SV_PolicingMSA/LA_599/IMG_2_599.jpg"",""SV_PolicingMSA/LA_599/IMG_4_599.jpg"",""SV_PolicingMSA/LA_599/IMG_1_599.jpg"",""SV_PolicingMSA/LA_599/IMG_9_599.jpg"",""SV_PolicingMSA/LA_599/IMG_11_599.jpg"",""SV_PolicingMSA/LA_599/IMG_3_599.jpg"",""SV_PolicingMSA/LA_599/IMG_5_599.jpg"",""SV_PolicingMSA/LA_599/IMG_8_599.jpg""]","1","","","","","","3","","4","[""./rc_img/cop_condGroup_15_CommunitySafety_autoscaled.png"",""./rc_img/cop_condGroup_15_SafeStreets_autoscaled.png""]","1","",""
"sliderTrial","html-slider-response","90","546661","0.0-90.0","","656776a7904ae00d6b91d1dd","6568b4a0c742ad7e6541cb7e","2","","","","","","","","","","","","3236","[""SV_PolicingMSA/LA_599/IMG_2_599.jpg"",""SV_PolicingMSA/LA_599/IMG_4_599.jpg"",""SV_PolicingMSA/LA_599/IMG_1_599.jpg"",""SV_PolicingMSA/LA_599/IMG_9_599.jpg"",""SV_PolicingMSA/LA_599/IMG_11_599.jpg"",""SV_PolicingMSA/LA_599/IMG_3_599.jpg"",""SV_PolicingMSA/LA_599/IMG_5_599.jpg"",""SV_PolicingMSA/LA_599/IMG_8_599.jpg""]","1","","","","","","3","","4","[""./rc_img/cop_condGroup_18_CommunitySafety_autoscaled.png"",""./rc_img/cop_condGroup_18_SafeStreets_autoscaled.png""]","1","",""
"sliderTrial","html-slider-response","91","549599","0.0-91.0","","656776a7904ae00d6b91d1dd","6568b4a0c742ad7e6541cb7e","2","","","","","","","","","","","","2934","[""SV_PolicingMSA/LA_599/IMG_2_599.jpg"",""SV_PolicingMSA/LA_599/IMG_4_599.jpg"",""SV_PolicingMSA/LA_599/IMG_1_599.jpg"",""SV_PolicingMSA/LA_599/IMG_9_599.jpg"",""SV_PolicingMSA/LA_599/IMG_11_599.jpg"",""SV_PolicingMSA/LA_599/IMG_3_599.jpg"",""SV_PolicingMSA/LA_599/IMG_5_599.jpg"",""SV_PolicingMSA/LA_599/IMG_8_599.jpg""]","7","","","","","","3","","4","[""./rc_img/cop_condGroup_17_SafeStreets_autoscaled.png"",""./rc_img/cop_condGroup_17_CommunitySafety_autoscaled.png""]","1","",""
"sliderTrial","html-slider-response","92","553137","0.0-92.0","","656776a7904ae00d6b91d1dd","6568b4a0c742ad7e6541cb7e","2","","","","","","","","","","","","3534","[""SV_PolicingMSA/LA_599/IMG_2_599.jpg"",""SV_PolicingMSA/LA_599/IMG_4_599.jpg"",""SV_PolicingMSA/LA_599/IMG_1_599.jpg"",""SV_PolicingMSA/LA_599/IMG_9_599.jpg"",""SV_PolicingMSA/LA_599/IMG_11_599.jpg"",""SV_PolicingMSA/LA_599/IMG_3_599.jpg"",""SV_PolicingMSA/LA_599/IMG_5_599.jpg"",""SV_PolicingMSA/LA_599/IMG_8_599.jpg""]","1","","","","","","3","","4","[""./rc_img/cop_condGroup_11_CommunitySafety_autoscaled.png"",""./rc_img/cop_condGroup_11_SafeStreets_autoscaled.png""]","1","",""
"before_SVSlide_prompt","html-button-response","93","554375","0.0-93.0","","656776a7904ae00d6b91d1dd","6568b4a0c742ad7e6541cb7e","2","","","","","","","","","","","","1237","Click [Next] to see the next neighborhood!","0","","","","","","","","","","","",""
"street view slide show","image-button-response","94","555377","0.0-94.0","","656776a7904ae00d6b91d1dd","6568b4a0c742ad7e6541cb7e","2","","","","","","","","","","","","null","stimulus/SV_PolicingMSA/LA_546/IMG_11_546.jpg","null","","","","","","1","","","","","",""
"street view slide show","image-button-response","95","556391","0.0-95.0","","656776a7904ae00d6b91d1dd","6568b4a0c742ad7e6541cb7e","2","","","","","","","","","","","","null","stimulus/SV_PolicingMSA/LA_546/IMG_9_546.jpg","null","","","","","","1","","","","","",""
"street view slide show","image-button-response","96","557405","0.0-96.0","","656776a7904ae00d6b91d1dd","6568b4a0c742ad7e6541cb7e","2","","","","","","","","","","","","null","stimulus/SV_PolicingMSA/LA_546/IMG_2_546.jpg","null","","","","","","1","","","","","",""
"street view slide show","image-button-response","97","558419","0.0-97.0","","656776a7904ae00d6b91d1dd","6568b4a0c742ad7e6541cb7e","2","","","","","","","","","","","","null","stimulus/SV_PolicingMSA/LA_546/IMG_3_546.jpg","null","","","","","","1","","","","","",""
"street view slide show","image-button-response","98","559433","0.0-98.0","","656776a7904ae00d6b91d1dd","6568b4a0c742ad7e6541cb7e","2","","","","","","","","","","","","null","stimulus/SV_PolicingMSA/LA_546/IMG_6_546.jpg","null","","","","","","1","","","","","",""
"street view slide show","image-button-response","99","560440","0.0-99.0","","656776a7904ae00d6b91d1dd","6568b4a0c742ad7e6541cb7e","2","","","","","","","","","","","","null","stimulus/SV_PolicingMSA/LA_546/IMG_13_546.jpg","null","","","","","","1","","","","","",""
"street view slide show","image-button-response","100","561453","0.0-100.0","","656776a7904ae00d6b91d1dd","6568b4a0c742ad7e6541cb7e","2","","","","","","","","","","","","null","stimulus/SV_PolicingMSA/LA_546/IMG_1_546.jpg","null","","","","","","1","","","","","",""
"street view slide show","image-button-response","101","562465","0.0-101.0","","656776a7904ae00d6b91d1dd","6568b4a0c742ad7e6541cb7e","2","","","","","","","","","","","","null","stimulus/SV_PolicingMSA/LA_546/IMG_14_546.jpg","null","","","","","","1","","","","","",""
"dot matrix survey1","survey","102","569567","0.0-102.0","","656776a7904ae00d6b91d1dd","6568b4a0c742ad7e6541cb7e","2","","","","","","","","","","","","7066","","{""P0_Q0"":null,""P0_Q1"":{""wealthy"":3,""safe"":4,""walkable"":3,""traditional"":3,""diverse"":3}}","","","","","","1","[]","","","","",""
"dot matrix survey2","survey","103","577409","0.0-103.0","","656776a7904ae00d6b91d1dd","6568b4a0c742ad7e6541cb7e","2","","","","","","","","","","","","7827","","{""P0_Q0"":null,""P0_Q1"":{""violence"":2,""crime"":2,""drug"":2,""schools"":3,""opportunities"":3}}","","","","","","1","[]","","","","",""
"dot matrix survey3","survey","104","585251","0.0-104.0","","656776a7904ae00d6b91d1dd","6568b4a0c742ad7e6541cb7e","2","","","","","","","","","","","","7829","","{""P0_Q0"":null,""P0_Q1"":{""movein"":1,""moveout"":1,""shopping"":1,""walk"":1,""park"":1,""school"":1}}","","","","","","1","[]","","","","",""
"sliderTrial","html-slider-response","105","589624","0.0-105.0","","656776a7904ae00d6b91d1dd","6568b4a0c742ad7e6541cb7e","2","","","","","","","","","","","","4370","[""SV_PolicingMSA/LA_546/IMG_11_546.jpg"",""SV_PolicingMSA/LA_546/IMG_9_546.jpg"",""SV_PolicingMSA/LA_546/IMG_2_546.jpg"",""SV_PolicingMSA/LA_546/IMG_3_546.jpg"",""SV_PolicingMSA/LA_546/IMG_6_546.jpg"",""SV_PolicingMSA/LA_546/IMG_13_546.jpg"",""SV_PolicingMSA/LA_546/IMG_1_546.jpg"",""SV_PolicingMSA/LA_546/IMG_14_546.jpg""]","1","","","","","","1","","4","[""./rc_img/cop_condGroup_4_SafeStreets_autoscaled.png"",""./rc_img/cop_condGroup_4_CommunitySafety_autoscaled.png""]","7","",""
"sliderTrial","html-slider-response","106","593612","0.0-106.0","","656776a7904ae00d6b91d1dd","6568b4a0c742ad7e6541cb7e","2","","","","","","","","","","","","3985","[""SV_PolicingMSA/LA_546/IMG_11_546.jpg"",""SV_PolicingMSA/LA_546/IMG_9_546.jpg"",""SV_PolicingMSA/LA_546/IMG_2_546.jpg"",""SV_PolicingMSA/LA_546/IMG_3_546.jpg"",""SV_PolicingMSA/LA_546/IMG_6_546.jpg"",""SV_PolicingMSA/LA_546/IMG_13_546.jpg"",""SV_PolicingMSA/LA_546/IMG_1_546.jpg"",""SV_PolicingMSA/LA_546/IMG_14_546.jpg""]","7","","","","","","1","","4","[""./rc_img/cop_condGroup_12_CommunitySafety_autoscaled.png"",""./rc_img/cop_condGroup_12_SafeStreets_autoscaled.png""]","7","",""
"sliderTrial","html-slider-response","107","597542","0.0-107.0","","656776a7904ae00d6b91d1dd","6568b4a0c742ad7e6541cb7e","2","","","","","","","","","","","","3927","[""SV_PolicingMSA/LA_546/IMG_11_546.jpg"",""SV_PolicingMSA/LA_546/IMG_9_546.jpg"",""SV_PolicingMSA/LA_546/IMG_2_546.jpg"",""SV_PolicingMSA/LA_546/IMG_3_546.jpg"",""SV_PolicingMSA/LA_546/IMG_6_546.jpg"",""SV_PolicingMSA/LA_546/IMG_13_546.jpg"",""SV_PolicingMSA/LA_546/IMG_1_546.jpg"",""SV_PolicingMSA/LA_546/IMG_14_546.jpg""]","1","","","","","","1","","4","[""./rc_img/cop_condGroup_5_SafeStreets_autoscaled.png"",""./rc_img/cop_condGroup_5_CommunitySafety_autoscaled.png""]","7","",""
"sliderTrial_attention","html-slider-response","108","607559","0.0-108.0","","656776a7904ae00d6b91d1dd","6568b4a0c742ad7e6541cb7e","2","","","","","","","","","","","","null","[""SV_PolicingMSA/LA_546/IMG_11_546.jpg"",""SV_PolicingMSA/LA_546/IMG_9_546.jpg"",""SV_PolicingMSA/LA_546/IMG_2_546.jpg"",""SV_PolicingMSA/LA_546/IMG_3_546.jpg"",""SV_PolicingMSA/LA_546/IMG_6_546.jpg"",""SV_PolicingMSA/LA_546/IMG_13_546.jpg"",""SV_PolicingMSA/LA_546/IMG_1_546.jpg"",""SV_PolicingMSA/LA_546/IMG_14_546.jpg""]","null","","","","","","1","","4","[""./assets/img/attnchk.png"",""./assets/img/attnchk.png""]","","true",""
"sliderTrial","html-slider-response","109","612048","0.0-109.0","","656776a7904ae00d6b91d1dd","6568b4a0c742ad7e6541cb7e","2","","","","","","","","","","","","4485","[""SV_PolicingMSA/LA_546/IMG_11_546.jpg"",""SV_PolicingMSA/LA_546/IMG_9_546.jpg"",""SV_PolicingMSA/LA_546/IMG_2_546.jpg"",""SV_PolicingMSA/LA_546/IMG_3_546.jpg"",""SV_PolicingMSA/LA_546/IMG_6_546.jpg"",""SV_PolicingMSA/LA_546/IMG_13_546.jpg"",""SV_PolicingMSA/LA_546/IMG_1_546.jpg"",""SV_PolicingMSA/LA_546/IMG_14_546.jpg""]","1","","","","","","1","","4","[""./rc_img/cop_condGroup_2_SafeStreets_autoscaled.png"",""./rc_img/cop_condGroup_2_CommunitySafety_autoscaled.png""]","7","",""
"sliderTrial","html-slider-response","110","615084","0.0-110.0","","656776a7904ae00d6b91d1dd","6568b4a0c742ad7e6541cb7e","2","","","","","","","","","","","","3032","[""SV_PolicingMSA/LA_546/IMG_11_546.jpg"",""SV_PolicingMSA/LA_546/IMG_9_546.jpg"",""SV_PolicingMSA/LA_546/IMG_2_546.jpg"",""SV_PolicingMSA/LA_546/IMG_3_546.jpg"",""SV_PolicingMSA/LA_546/IMG_6_546.jpg"",""SV_PolicingMSA/LA_546/IMG_13_546.jpg"",""SV_PolicingMSA/LA_546/IMG_1_546.jpg"",""SV_PolicingMSA/LA_546/IMG_14_546.jpg""]","1","","","","","","1","","4","[""./rc_img/cop_condGroup_14_SafeStreets_autoscaled.png"",""./rc_img/cop_condGroup_14_CommunitySafety_autoscaled.png""]","7","",""
"before_SVSlide_prompt","html-button-response","111","616576","0.0-111.0","","656776a7904ae00d6b91d1dd","6568b4a0c742ad7e6541cb7e","2","","","","","","","","","","","","1491","Click [Next] to see the next neighborhood!","0","","","","","","","","","","","",""
"street view slide show","image-button-response","112","617592","0.0-112.0","","656776a7904ae00d6b91d1dd","6568b4a0c742ad7e6541cb7e","2","","","","","","","","","","","","null","stimulus/SV_PolicingMSA/LA_547/IMG_13_547.jpg","null","","","","","","2","","","","","",""
"street view slide show","image-button-response","113","618603","0.0-113.0","","656776a7904ae00d6b91d1dd","6568b4a0c742ad7e6541cb7e","2","","","","","","","","","","","","null","stimulus/SV_PolicingMSA/LA_547/IMG_6_547.jpg","null","","","","","","2","","","","","",""
"street view slide show","image-button-response","114","619606","0.0-114.0","","656776a7904ae00d6b91d1dd","6568b4a0c742ad7e6541cb7e","2","","","","","","","","","","","","null","stimulus/SV_PolicingMSA/LA_547/IMG_2_547.jpg","null","","","","","","2","","","","","",""
"street view slide show","image-button-response","115","620621","0.0-115.0","","656776a7904ae00d6b91d1dd","6568b4a0c742ad7e6541cb7e","2","","","","","","","","","","","","null","stimulus/SV_PolicingMSA/LA_547/IMG_3_547.jpg","null","","","","","","2","","","","","",""
"street view slide show","image-button-response","116","621625","0.0-116.0","","656776a7904ae00d6b91d1dd","6568b4a0c742ad7e6541cb7e","2","","","","","","","","","","","","null","stimulus/SV_PolicingMSA/LA_547/IMG_12_547.jpg","null","","","","","","2","","","","","",""
"street view slide show","image-button-response","117","622631","0.0-117.0","","656776a7904ae00d6b91d1dd","6568b4a0c742ad7e6541cb7e","2","","","","","","","","","","","","null","stimulus/SV_PolicingMSA/LA_547/IMG_1_547.jpg","null","","","","","","2","","","","","",""
"street view slide show","image-button-response","118","623637","0.0-118.0","","656776a7904ae00d6b91d1dd","6568b4a0c742ad7e6541cb7e","2","","","","","","","","","","","","null","stimulus/SV_PolicingMSA/LA_547/IMG_14_547.jpg","null","","","","","","2","","","","","",""
"street view slide show","image-button-response","119","624649","0.0-119.0","","656776a7904ae00d6b91d1dd","6568b4a0c742ad7e6541cb7e","2","","","","","","","","","","","","null","stimulus/SV_PolicingMSA/LA_547/IMG_10_547.jpg","null","","","","","","2","","","","","",""
"dot matrix survey1","survey","120","639787","0.0-120.0","","656776a7904ae00d6b91d1dd","6568b4a0c742ad7e6541cb7e","2","","","","","","","","","","","","15122","","{""P0_Q0"":null,""P0_Q1"":{""wealthy"":1,""safe"":1,""walkable"":2,""traditional"":3,""diverse"":3}}","","","","","","2","[]","","","","",""
"dot matrix survey2","survey","121","649170","0.0-121.0","","656776a7904ae00d6b91d1dd","6568b4a0c742ad7e6541cb7e","2","","","","","","","","","","","","9366","","{""P0_Q0"":null,""P0_Q1"":{""violence"":4,""crime"":4,""drug"":4,""schools"":0,""opportunities"":0}}","","","","","","2","[]","","","","",""
"dot matrix survey3","survey","122","655680","0.0-122.0","","656776a7904ae00d6b91d1dd","6568b4a0c742ad7e6541cb7e","2","","","","","","","","","","","","6496","","{""P0_Q0"":null,""P0_Q1"":{""movein"":0,""moveout"":0,""shopping"":0,""walk"":0,""park"":0,""school"":0}}","","","","","","2","[]","","","","",""
"sliderTrial","html-slider-response","123","662518","0.0-123.0","","656776a7904ae00d6b91d1dd","6568b4a0c742ad7e6541cb7e","2","","","","","","","","","","","","6835","[""SV_PolicingMSA/LA_547/IMG_13_547.jpg"",""SV_PolicingMSA/LA_547/IMG_6_547.jpg"",""SV_PolicingMSA/LA_547/IMG_2_547.jpg"",""SV_PolicingMSA/LA_547/IMG_3_547.jpg"",""SV_PolicingMSA/LA_547/IMG_12_547.jpg"",""SV_PolicingMSA/LA_547/IMG_1_547.jpg"",""SV_PolicingMSA/LA_547/IMG_14_547.jpg"",""SV_PolicingMSA/LA_547/IMG_10_547.jpg""]","1","","","","","","2","","4","[""./rc_img/cop_condGroup_13_SafeStreets_autoscaled.png"",""./rc_img/cop_condGroup_13_CommunitySafety_autoscaled.png""]","7","",""
"sliderTrial","html-slider-response","124","666170","0.0-124.0","","656776a7904ae00d6b91d1dd","6568b4a0c742ad7e6541cb7e","2","","","","","","","","","","","","3649","[""SV_PolicingMSA/LA_547/IMG_13_547.jpg"",""SV_PolicingMSA/LA_547/IMG_6_547.jpg"",""SV_PolicingMSA/LA_547/IMG_2_547.jpg"",""SV_PolicingMSA/LA_547/IMG_3_547.jpg"",""SV_PolicingMSA/LA_547/IMG_12_547.jpg"",""SV_PolicingMSA/LA_547/IMG_1_547.jpg"",""SV_PolicingMSA/LA_547/IMG_14_547.jpg"",""SV_PolicingMSA/LA_547/IMG_10_547.jpg""]","1","","","","","","2","","4","[""./rc_img/cop_condGroup_19_SafeStreets_autoscaled.png"",""./rc_img/cop_condGroup_19_CommunitySafety_autoscaled.png""]","7","",""
"sliderTrial","html-slider-response","125","669250","0.0-125.0","","656776a7904ae00d6b91d1dd","6568b4a0c742ad7e6541cb7e","2","","","","","","","","","","","","3077","[""SV_PolicingMSA/LA_547/IMG_13_547.jpg"",""SV_PolicingMSA/LA_547/IMG_6_547.jpg"",""SV_PolicingMSA/LA_547/IMG_2_547.jpg"",""SV_PolicingMSA/LA_547/IMG_3_547.jpg"",""SV_PolicingMSA/LA_547/IMG_12_547.jpg"",""SV_PolicingMSA/LA_547/IMG_1_547.jpg"",""SV_PolicingMSA/LA_547/IMG_14_547.jpg"",""SV_PolicingMSA/LA_547/IMG_10_547.jpg""]","1","","","","","","2","","4","[""./rc_img/cop_condGroup_20_SafeStreets_autoscaled.png"",""./rc_img/cop_condGroup_20_CommunitySafety_autoscaled.png""]","7","",""
"sliderTrial","html-slider-response","126","672032","0.0-126.0","","656776a7904ae00d6b91d1dd","6568b4a0c742ad7e6541cb7e","2","","","","","","","","","","","","2779","[""SV_PolicingMSA/LA_547/IMG_13_547.jpg"",""SV_PolicingMSA/LA_547/IMG_6_547.jpg"",""SV_PolicingMSA/LA_547/IMG_2_547.jpg"",""SV_PolicingMSA/LA_547/IMG_3_547.jpg"",""SV_PolicingMSA/LA_547/IMG_12_547.jpg"",""SV_PolicingMSA/LA_547/IMG_1_547.jpg"",""SV_PolicingMSA/LA_547/IMG_14_547.jpg"",""SV_PolicingMSA/LA_547/IMG_10_547.jpg""]","7","","","","","","2","","4","[""./rc_img/cop_condGroup_3_CommunitySafety_autoscaled.png"",""./rc_img/cop_condGroup_3_SafeStreets_autoscaled.png""]","7","",""
"sliderTrial","html-slider-response","127","675526","0.0-127.0","","656776a7904ae00d6b91d1dd","6568b4a0c742ad7e6541cb7e","2","","","","","","","","","","","","3491","[""SV_PolicingMSA/LA_547/IMG_13_547.jpg"",""SV_PolicingMSA/LA_547/IMG_6_547.jpg"",""SV_PolicingMSA/LA_547/IMG_2_547.jpg"",""SV_PolicingMSA/LA_547/IMG_3_547.jpg"",""SV_PolicingMSA/LA_547/IMG_12_547.jpg"",""SV_PolicingMSA/LA_547/IMG_1_547.jpg"",""SV_PolicingMSA/LA_547/IMG_14_547.jpg"",""SV_PolicingMSA/LA_547/IMG_10_547.jpg""]","1","","","","","","2","","4","[""./rc_img/cop_condGroup_10_SafeStreets_autoscaled.png"",""./rc_img/cop_condGroup_10_CommunitySafety_autoscaled.png""]","7","",""
"before_SVSlide_prompt","html-button-response","128","679784","0.0-128.0","","656776a7904ae00d6b91d1dd","6568b4a0c742ad7e6541cb7e","2","","","","","","","","","","","","4256","Click [Next] to see the next neighborhood!","0","","","","","","","","","","","",""
"street view slide show","image-button-response","129","680793","0.0-129.0","","656776a7904ae00d6b91d1dd","6568b4a0c742ad7e6541cb7e","2","","","","","","","","","","","","null","stimulus/SV_PolicingMSA/LA_438/IMG_10_438.jpg","null","","","","","","4","","","","","",""
"street view slide show","image-button-response","130","681805","0.0-130.0","","656776a7904ae00d6b91d1dd","6568b4a0c742ad7e6541cb7e","2","","","","","","","","","","","","null","stimulus/SV_PolicingMSA/LA_438/IMG_11_438.jpg","null","","","","","","4","","","","","",""
"street view slide show","image-button-response","131","682824","0.0-131.0","","656776a7904ae00d6b91d1dd","6568b4a0c742ad7e6541cb7e","2","","","","","","","","","","","","null","stimulus/SV_PolicingMSA/LA_438/IMG_14_438.jpg","null","","","","","","4","","","","","",""
"street view slide show","image-button-response","132","683829","0.0-132.0","","656776a7904ae00d6b91d1dd","6568b4a0c742ad7e6541cb7e","2","","","","","","","","","","","","null","stimulus/SV_PolicingMSA/LA_438/IMG_9_438.jpg","null","","","","","","4","","","","","",""
"street view slide show","image-button-response","133","684836","0.0-133.0","","656776a7904ae00d6b91d1dd","6568b4a0c742ad7e6541cb7e","2","","","","","","","","","","","","null","stimulus/SV_PolicingMSA/LA_438/IMG_8_438.jpg","null","","","","","","4","","","","","",""
"street view slide show","image-button-response","134","685845","0.0-134.0","","656776a7904ae00d6b91d1dd","6568b4a0c742ad7e6541cb7e","2","","","","","","","","","","","","null","stimulus/SV_PolicingMSA/LA_438/IMG_0_438.jpg","null","","","","","","4","","","","","",""
"street view slide show","image-button-response","135","686853","0.0-135.0","","656776a7904ae00d6b91d1dd","6568b4a0c742ad7e6541cb7e","2","","","","","","","","","","","","null","stimulus/SV_PolicingMSA/LA_438/IMG_6_438.jpg","null","","","","","","4","","","","","",""
"street view slide show","image-button-response","136","687856","0.0-136.0","","656776a7904ae00d6b91d1dd","6568b4a0c742ad7e6541cb7e","2","","","","","","","","","","","","null","stimulus/SV_PolicingMSA/LA_438/IMG_3_438.jpg","null","","","","","","4","","","","","",""
"dot matrix survey1","survey","137","699017","0.0-137.0","","656776a7904ae00d6b91d1dd","6568b4a0c742ad7e6541cb7e","2","","","","","","","","","","","","11129","","{""P0_Q0"":null,""P0_Q1"":{""diverse"":4,""wealthy"":4,""safe"":4,""traditional"":4,""walkable"":4}}","","","","","","4","[]","","","","",""
"dot matrix survey2","survey","138","706687","0.0-138.0","","656776a7904ae00d6b91d1dd","6568b4a0c742ad7e6541cb7e","2","","","","","","","","","","","","7659","","{""P0_Q0"":null,""P0_Q1"":{""violence"":0,""crime"":0,""drug"":0,""schools"":4,""opportunities"":4}}","","","","","","4","[]","","","","",""
"dot matrix survey3","survey","139","716068","0.0-139.0","","656776a7904ae00d6b91d1dd","6568b4a0c742ad7e6541cb7e","2","","","","","","","","","","","","9369","","{""P0_Q0"":null,""P0_Q1"":{""movein"":4,""moveout"":4,""shopping"":4,""walk"":4,""park"":4,""school"":4}}","","","","","","4","[]","","","","",""
"sliderTrial","html-slider-response","140","721001","0.0-140.0","","656776a7904ae00d6b91d1dd","6568b4a0c742ad7e6541cb7e","2","","","","","","","","","","","","4929","[""SV_PolicingMSA/LA_438/IMG_10_438.jpg"",""SV_PolicingMSA/LA_438/IMG_11_438.jpg"",""SV_PolicingMSA/LA_438/IMG_14_438.jpg"",""SV_PolicingMSA/LA_438/IMG_9_438.jpg"",""SV_PolicingMSA/LA_438/IMG_8_438.jpg"",""SV_PolicingMSA/LA_438/IMG_0_438.jpg"",""SV_PolicingMSA/LA_438/IMG_6_438.jpg"",""SV_PolicingMSA/LA_438/IMG_3_438.jpg""]","7","","","","","","4","","4","[""./rc_img/cop_condGroup_13_SafeStreets_autoscaled.png"",""./rc_img/cop_condGroup_13_CommunitySafety_autoscaled.png""]","1","",""
"sliderTrial","html-slider-response","141","724135","0.0-141.0","","656776a7904ae00d6b91d1dd","6568b4a0c742ad7e6541cb7e","2","","","","","","","","","","","","3130","[""SV_PolicingMSA/LA_438/IMG_10_438.jpg"",""SV_PolicingMSA/LA_438/IMG_11_438.jpg"",""SV_PolicingMSA/LA_438/IMG_14_438.jpg"",""SV_PolicingMSA/LA_438/IMG_9_438.jpg"",""SV_PolicingMSA/LA_438/IMG_8_438.jpg"",""SV_PolicingMSA/LA_438/IMG_0_438.jpg"",""SV_PolicingMSA/LA_438/IMG_6_438.jpg"",""SV_PolicingMSA/LA_438/IMG_3_438.jpg""]","7","","","","","","4","","4","[""./rc_img/cop_condGroup_19_SafeStreets_autoscaled.png"",""./rc_img/cop_condGroup_19_CommunitySafety_autoscaled.png""]","1","",""
"sliderTrial","html-slider-response","142","727853","0.0-142.0","","656776a7904ae00d6b91d1dd","6568b4a0c742ad7e6541cb7e","2","","","","","","","","","","","","3715","[""SV_PolicingMSA/LA_438/IMG_10_438.jpg"",""SV_PolicingMSA/LA_438/IMG_11_438.jpg"",""SV_PolicingMSA/LA_438/IMG_14_438.jpg"",""SV_PolicingMSA/LA_438/IMG_9_438.jpg"",""SV_PolicingMSA/LA_438/IMG_8_438.jpg"",""SV_PolicingMSA/LA_438/IMG_0_438.jpg"",""SV_PolicingMSA/LA_438/IMG_6_438.jpg"",""SV_PolicingMSA/LA_438/IMG_3_438.jpg""]","7","","","","","","4","","4","[""./rc_img/cop_condGroup_20_SafeStreets_autoscaled.png"",""./rc_img/cop_condGroup_20_CommunitySafety_autoscaled.png""]","1","",""
"sliderTrial","html-slider-response","143","730973","0.0-143.0","","656776a7904ae00d6b91d1dd","6568b4a0c742ad7e6541cb7e","2","","","","","","","","","","","","3117","[""SV_PolicingMSA/LA_438/IMG_10_438.jpg"",""SV_PolicingMSA/LA_438/IMG_11_438.jpg"",""SV_PolicingMSA/LA_438/IMG_14_438.jpg"",""SV_PolicingMSA/LA_438/IMG_9_438.jpg"",""SV_PolicingMSA/LA_438/IMG_8_438.jpg"",""SV_PolicingMSA/LA_438/IMG_0_438.jpg"",""SV_PolicingMSA/LA_438/IMG_6_438.jpg"",""SV_PolicingMSA/LA_438/IMG_3_438.jpg""]","1","","","","","","4","","4","[""./rc_img/cop_condGroup_3_CommunitySafety_autoscaled.png"",""./rc_img/cop_condGroup_3_SafeStreets_autoscaled.png""]","1","",""
"sliderTrial","html-slider-response","144","733829","0.0-144.0","","656776a7904ae00d6b91d1dd","6568b4a0c742ad7e6541cb7e","2","","","","","","","","","","","","2853","[""SV_PolicingMSA/LA_438/IMG_10_438.jpg"",""SV_PolicingMSA/LA_438/IMG_11_438.jpg"",""SV_PolicingMSA/LA_438/IMG_14_438.jpg"",""SV_PolicingMSA/LA_438/IMG_9_438.jpg"",""SV_PolicingMSA/LA_438/IMG_8_438.jpg"",""SV_PolicingMSA/LA_438/IMG_0_438.jpg"",""SV_PolicingMSA/LA_438/IMG_6_438.jpg"",""SV_PolicingMSA/LA_438/IMG_3_438.jpg""]","7","","","","","","4","","4","[""./rc_img/cop_condGroup_10_SafeStreets_autoscaled.png"",""./rc_img/cop_condGroup_10_CommunitySafety_autoscaled.png""]","1","",""
"demographics","survey-html-form","145","770700","0.0-145.0","","656776a7904ae00d6b91d1dd","6568b4a0c742ad7e6541cb7e","2","","","","","","","","","","","","36867","","{""age"":""56"",""sex"":""male"",""gender"":""man"",""gender-self-describe"":"""",""zipcode"":""22226""}","","","","","","","","","","","",""
"demographics-list","survey","146","807169","0.0-146.0","","656776a7904ae00d6b91d1dd","6568b4a0c742ad7e6541cb7e","2","","","","","","","","","","","","36413","","{""P0_Q0"":null,""race-ethnicity"":[""White or of European ancestry""],""education"":""Bachelor’s degree"",""P1_Q0"":null,""ideology"":""Conservative"",""P2_Q0"":null,""num-moves"":2,""P3_Q0"":null,""social-ladder"":5}","","","","","","","[]","","","","",""
"end-survey","survey-text","147","817953","0.0-147.0","","656776a7904ae00d6b91d1dd","6568b4a0c742ad7e6541cb7e","2","","","","","","","","","","","","10769","","{""Q0"":""none""}","","","","","","","","","","","","2"
"end-survey","html-button-response","148","825187","0.0-148.0","","656776a7904ae00d6b91d1dd","6568b4a0c742ad7e6541cb7e","2","","","","","","","","","","","","7232","
    You've reached the end of the survey. <br><br> 
    <b>Do not close or refresh this window.</b><br>
    On the next page, you will be automatically redirected to Prolific. <br><br>

    <div class=""alert alert-warning""><b>
    </div>
","0","","","","","","","","","","","",""
