"task","trial_type","trial_index","time_elapsed","internal_node_id","subject_id","study_id","session_id","section","width","height","webaudio","browser","browser_version","mobile","os","fullscreen","vsync_rate","webcam","microphone","rt","stimulus","response","success","timeout","failed_images","failed_audio","failed_video","block","accuracy","slider_start","choices","standardized_response","correct","num_attention_checks_correct"
"pavlovia-init","pavlovia","0","2581","0.0-0.0","","656776a7904ae00d6b91d1dd","6568aa5f8a9a75b2b442982a","5","","","","","","","","","","","","","","","","","","","","","","","","","",""
"browser-check","browser-check","1","3586","0.0-1.0","","656776a7904ae00d6b91d1dd","6568aa5f8a9a75b2b442982a","5","1280","643","true","chrome","118.0.0","false","Windows 10","true","60.16","true","true","","","","","","","","","","","","","","",""
"consent","html-button-response","2","14662","0.0-2.0","","656776a7904ae00d6b91d1dd","6568aa5f8a9a75b2b442982a","5","","","","","","","","","","","","11074","
        <div style=""font-size: 80%; max-width:700px"">
            <h2>CONSENT FORM</h2>
        
            <div style=""text-align: left"">
            <h4>DESCRIPTION</h4>
            <p>
            You will complete a short task where you give your impressions of various neighborhoods and assign individuals to those spaces, and answer some questions about your thoughts and opinions.<br>
            The University of Michigan Institutional Review Board Health Sciences and Behavioral Sciences has determined that this study is exempt from IRB oversight.
            </p>

            <h4>TIME INVOLVEMENT</h4>
            <p>Your participation will take approximately 15 minutes. You will receive $3.15 upon completion of the study.</p>
        
            <h4>RISKS AND BENEFITS</h4>
            <p>
            The risks associated with this study are minimal. The benefits which may reasonably be expected to result from this study are none. We cannot and do not guarantee or promise that you will receive any benefits from this study.
            </p>
          
            <h4>SUBJECT'S RIGHTS</h4>
            <p>
            If you have read this form and have decided to participate in this project, please understand your participation is voluntary and you have the right to withdraw your consent or discontinue participation at any time without penalty or loss of benefits to which you are otherwise entitled. The alternative is not to participate. You have the right to refuse to answer particular questions. Your individual privacy will be maintained in all published and written data resulting from the study.
            </p>

            <h4>HUMAN SUBJECT APPROVAL</h4>
            <p>
            This study is exempt from ongoing IRB review.
            </p>

            <h4>CONTACT INFORMATION</h4>
            If you have any questions, concerns or complaints about this research, its procedures, risks and benefits, contact the Protocol Director, Nicholas Camp, npcamp@umich.edu, (443) 851-6783. <br>

            If you have questions about your rights as a research participant, or wish to obtain information, ask questions or discuss any concerns about this study with someone other than the researcher(s), please contact the following:<br><br>
            University of Michigan<br>
            Health Sciences and Behavioral Sciences Institutional Review Board (IRB-HSBS)<br>
            2800 Plymouth Road<br>
            Building 520, Room 1169Ann Arbor, MI 48109-2800<br>
            Telephone: 734-936-0933 or toll free (866) 936-0933<br>
            Fax: 734-936-1852<br>
            E-mail: irbhsbs@umich.edu<br><br>

            You can also contact the University of Michigan Compliance Hotline at 1-866-990-0111. You may also print this consent form to keep.
            <br><br>
            <div class=""alert alert-warning""><b>
            Do you consent to participate in this study? If you consent to participate in this study, please click “Accept and Continue”. If you select ""Decline and Exit"", you will be exited from the survey. <br>
            </b></div>
            </div>
        </div>
    ","1","","","","","","","","","","","",""
"","preload","3","25128","0.0-3.0","","656776a7904ae00d6b91d1dd","6568aa5f8a9a75b2b442982a","5","","","","","","","","","","","","","","","true","false","[]","[]","[]","","","","","","",""
"instructions","html-button-response","4","41714","0.0-4.0","","656776a7904ae00d6b91d1dd","6568aa5f8a9a75b2b442982a","5","","","","","","","","","","","","16584","
        <div class=""text-container"">
        <h1>Welcome to the study!</h1>
        
        <div class=""text-left"">
            <p>
                In this study, we are interested in what people can tell about spaces from Google Street View images. <br> Google Street View takes pictures of streets used for Google Earth and Google Maps. <br>You’ll see Google Street View images of different places and answer some questions about each one.<br>
            </p>
        </div>
        <img src = ""assets/img/example.png"" width = 500px, height = auto>
        <br>
    <br>
    ","0","","","","","","","","","","","",""
"instructions","html-button-response","5","45606","0.0-5.0","","656776a7904ae00d6b91d1dd","6568aa5f8a9a75b2b442982a","5","","","","","","","","","","","","3891","
    <div class=""text-container"">
        <div class=""text-center"">
            <p>Please remember that your answers are completely anonymous.<br>Go with your gut response- there are no right or wrong answers!</p>
        </div>
    <br>
","0","","","","","","","","","","","",""
"before_SVSlide_prompt","html-button-response","6","46552","0.0-6.0","","656776a7904ae00d6b91d1dd","6568aa5f8a9a75b2b442982a","5","","","","","","","","","","","","945","Click [Next] to see the next neighborhood!","0","","","","","","","","","","","",""
"street view slide show","image-button-response","7","47555","0.0-7.0","","656776a7904ae00d6b91d1dd","6568aa5f8a9a75b2b442982a","5","","","","","","","","","","","","null","stimulus/SV_PolicingMSA/MI_2578/IMG_12_2578.jpg","null","","","","","","2","","","","","",""
"street view slide show","image-button-response","8","48562","0.0-8.0","","656776a7904ae00d6b91d1dd","6568aa5f8a9a75b2b442982a","5","","","","","","","","","","","","null","stimulus/SV_PolicingMSA/MI_2578/IMG_1_2578.jpg","null","","","","","","2","","","","","",""
"street view slide show","image-button-response","9","49569","0.0-9.0","","656776a7904ae00d6b91d1dd","6568aa5f8a9a75b2b442982a","5","","","","","","","","","","","","null","stimulus/SV_PolicingMSA/MI_2578/IMG_4_2578.jpg","null","","","","","","2","","","","","",""
"street view slide show","image-button-response","10","50586","0.0-10.0","","656776a7904ae00d6b91d1dd","6568aa5f8a9a75b2b442982a","5","","","","","","","","","","","","null","stimulus/SV_PolicingMSA/MI_2578/IMG_9_2578.jpg","null","","","","","","2","","","","","",""
"street view slide show","image-button-response","11","51601","0.0-11.0","","656776a7904ae00d6b91d1dd","6568aa5f8a9a75b2b442982a","5","","","","","","","","","","","","null","stimulus/SV_PolicingMSA/MI_2578/IMG_0_2578.jpg","null","","","","","","2","","","","","",""
"street view slide show","image-button-response","12","52609","0.0-12.0","","656776a7904ae00d6b91d1dd","6568aa5f8a9a75b2b442982a","5","","","","","","","","","","","","null","stimulus/SV_PolicingMSA/MI_2578/IMG_7_2578.jpg","null","","","","","","2","","","","","",""
"street view slide show","image-button-response","13","53624","0.0-13.0","","656776a7904ae00d6b91d1dd","6568aa5f8a9a75b2b442982a","5","","","","","","","","","","","","null","stimulus/SV_PolicingMSA/MI_2578/IMG_6_2578.jpg","null","","","","","","2","","","","","",""
"street view slide show","image-button-response","14","54635","0.0-14.0","","656776a7904ae00d6b91d1dd","6568aa5f8a9a75b2b442982a","5","","","","","","","","","","","","null","stimulus/SV_PolicingMSA/MI_2578/IMG_11_2578.jpg","null","","","","","","2","","","","","",""
"dot matrix survey1","survey","15","95262","0.0-15.0","","656776a7904ae00d6b91d1dd","6568aa5f8a9a75b2b442982a","5","","","","","","","","","","","","40520","","{""P0_Q0"":null,""P0_Q1"":{""walkable"":4,""traditional"":4,""diverse"":1,""safe"":3,""wealthy"":2}}","","","","","","2","[]","","","","",""
"dot matrix survey2","survey","16","113126","0.0-16.0","","656776a7904ae00d6b91d1dd","6568aa5f8a9a75b2b442982a","5","","","","","","","","","","","","17856","","{""P0_Q0"":null,""P0_Q1"":{""drug"":2,""schools"":2,""opportunities"":2,""violence"":1,""crime"":1}}","","","","","","2","[]","","","","",""
"dot matrix survey3","survey","17","120039","0.0-17.0","","656776a7904ae00d6b91d1dd","6568aa5f8a9a75b2b442982a","5","","","","","","","","","","","","6903","","{""P0_Q0"":null,""P0_Q1"":{""movein"":2,""moveout"":2,""shopping"":2,""walk"":2,""park"":2,""school"":2}}","","","","","","2","[]","","","","",""
"sliderTrial","html-slider-response","18","136255","0.0-18.0","","656776a7904ae00d6b91d1dd","6568aa5f8a9a75b2b442982a","5","","","","","","","","","","","","16213","[""SV_PolicingMSA/MI_2578/IMG_12_2578.jpg"",""SV_PolicingMSA/MI_2578/IMG_1_2578.jpg"",""SV_PolicingMSA/MI_2578/IMG_4_2578.jpg"",""SV_PolicingMSA/MI_2578/IMG_9_2578.jpg"",""SV_PolicingMSA/MI_2578/IMG_0_2578.jpg"",""SV_PolicingMSA/MI_2578/IMG_7_2578.jpg"",""SV_PolicingMSA/MI_2578/IMG_6_2578.jpg"",""SV_PolicingMSA/MI_2578/IMG_11_2578.jpg""]","5","","","","","","2","","4","[""./rc_img/cop_condGroup_1_CommunitySafety_autoscaled.png"",""./rc_img/cop_condGroup_1_SafeStreets_autoscaled.png""]","5","",""
"sliderTrial","html-slider-response","19","139967","0.0-19.0","","656776a7904ae00d6b91d1dd","6568aa5f8a9a75b2b442982a","5","","","","","","","","","","","","3710","[""SV_PolicingMSA/MI_2578/IMG_12_2578.jpg"",""SV_PolicingMSA/MI_2578/IMG_1_2578.jpg"",""SV_PolicingMSA/MI_2578/IMG_4_2578.jpg"",""SV_PolicingMSA/MI_2578/IMG_9_2578.jpg"",""SV_PolicingMSA/MI_2578/IMG_0_2578.jpg"",""SV_PolicingMSA/MI_2578/IMG_7_2578.jpg"",""SV_PolicingMSA/MI_2578/IMG_6_2578.jpg"",""SV_PolicingMSA/MI_2578/IMG_11_2578.jpg""]","5","","","","","","2","","4","[""./rc_img/cop_condGroup_5_SafeStreets_autoscaled.png"",""./rc_img/cop_condGroup_5_CommunitySafety_autoscaled.png""]","3","",""
"sliderTrial","html-slider-response","20","142269","0.0-20.0","","656776a7904ae00d6b91d1dd","6568aa5f8a9a75b2b442982a","5","","","","","","","","","","","","2300","[""SV_PolicingMSA/MI_2578/IMG_12_2578.jpg"",""SV_PolicingMSA/MI_2578/IMG_1_2578.jpg"",""SV_PolicingMSA/MI_2578/IMG_4_2578.jpg"",""SV_PolicingMSA/MI_2578/IMG_9_2578.jpg"",""SV_PolicingMSA/MI_2578/IMG_0_2578.jpg"",""SV_PolicingMSA/MI_2578/IMG_7_2578.jpg"",""SV_PolicingMSA/MI_2578/IMG_6_2578.jpg"",""SV_PolicingMSA/MI_2578/IMG_11_2578.jpg""]","5","","","","","","2","","4","[""./rc_img/cop_condGroup_4_SafeStreets_autoscaled.png"",""./rc_img/cop_condGroup_4_CommunitySafety_autoscaled.png""]","3","",""
"sliderTrial","html-slider-response","21","144925","0.0-21.0","","656776a7904ae00d6b91d1dd","6568aa5f8a9a75b2b442982a","5","","","","","","","","","","","","2654","[""SV_PolicingMSA/MI_2578/IMG_12_2578.jpg"",""SV_PolicingMSA/MI_2578/IMG_1_2578.jpg"",""SV_PolicingMSA/MI_2578/IMG_4_2578.jpg"",""SV_PolicingMSA/MI_2578/IMG_9_2578.jpg"",""SV_PolicingMSA/MI_2578/IMG_0_2578.jpg"",""SV_PolicingMSA/MI_2578/IMG_7_2578.jpg"",""SV_PolicingMSA/MI_2578/IMG_6_2578.jpg"",""SV_PolicingMSA/MI_2578/IMG_11_2578.jpg""]","3","","","","","","2","","4","[""./rc_img/cop_condGroup_16_CommunitySafety_autoscaled.png"",""./rc_img/cop_condGroup_16_SafeStreets_autoscaled.png""]","3","",""
"sliderTrial","html-slider-response","22","148016","0.0-22.0","","656776a7904ae00d6b91d1dd","6568aa5f8a9a75b2b442982a","5","","","","","","","","","","","","3090","[""SV_PolicingMSA/MI_2578/IMG_12_2578.jpg"",""SV_PolicingMSA/MI_2578/IMG_1_2578.jpg"",""SV_PolicingMSA/MI_2578/IMG_4_2578.jpg"",""SV_PolicingMSA/MI_2578/IMG_9_2578.jpg"",""SV_PolicingMSA/MI_2578/IMG_0_2578.jpg"",""SV_PolicingMSA/MI_2578/IMG_7_2578.jpg"",""SV_PolicingMSA/MI_2578/IMG_6_2578.jpg"",""SV_PolicingMSA/MI_2578/IMG_11_2578.jpg""]","5","","","","","","2","","4","[""./rc_img/cop_condGroup_2_SafeStreets_autoscaled.png"",""./rc_img/cop_condGroup_2_CommunitySafety_autoscaled.png""]","3","",""
"before_SVSlide_prompt","html-button-response","23","149680","0.0-23.0","","656776a7904ae00d6b91d1dd","6568aa5f8a9a75b2b442982a","5","","","","","","","","","","","","1663","Click [Next] to see the next neighborhood!","0","","","","","","","","","","","",""
"street view slide show","image-button-response","24","150688","0.0-24.0","","656776a7904ae00d6b91d1dd","6568aa5f8a9a75b2b442982a","5","","","","","","","","","","","","null","stimulus/SV_PolicingMSA/MI_1804/IMG_12_1804.jpg","null","","","","","","0","","","","","",""
"street view slide show","image-button-response","25","151702","0.0-25.0","","656776a7904ae00d6b91d1dd","6568aa5f8a9a75b2b442982a","5","","","","","","","","","","","","null","stimulus/SV_PolicingMSA/MI_1804/IMG_0_1804.jpg","null","","","","","","0","","","","","",""
"street view slide show","image-button-response","26","152711","0.0-26.0","","656776a7904ae00d6b91d1dd","6568aa5f8a9a75b2b442982a","5","","","","","","","","","","","","null","stimulus/SV_PolicingMSA/MI_1804/IMG_8_1804.jpg","null","","","","","","0","","","","","",""
"street view slide show","image-button-response","27","153727","0.0-27.0","","656776a7904ae00d6b91d1dd","6568aa5f8a9a75b2b442982a","5","","","","","","","","","","","","null","stimulus/SV_PolicingMSA/MI_1804/IMG_9_1804.jpg","null","","","","","","0","","","","","",""
"street view slide show","image-button-response","28","154745","0.0-28.0","","656776a7904ae00d6b91d1dd","6568aa5f8a9a75b2b442982a","5","","","","","","","","","","","","null","stimulus/SV_PolicingMSA/MI_1804/IMG_3_1804.jpg","null","","","","","","0","","","","","",""
"street view slide show","image-button-response","29","155758","0.0-29.0","","656776a7904ae00d6b91d1dd","6568aa5f8a9a75b2b442982a","5","","","","","","","","","","","","null","stimulus/SV_PolicingMSA/MI_1804/IMG_14_1804.jpg","null","","","","","","0","","","","","",""
"street view slide show","image-button-response","30","156772","0.0-30.0","","656776a7904ae00d6b91d1dd","6568aa5f8a9a75b2b442982a","5","","","","","","","","","","","","null","stimulus/SV_PolicingMSA/MI_1804/IMG_7_1804.jpg","null","","","","","","0","","","","","",""
"street view slide show","image-button-response","31","157776","0.0-31.0","","656776a7904ae00d6b91d1dd","6568aa5f8a9a75b2b442982a","5","","","","","","","","","","","","null","stimulus/SV_PolicingMSA/MI_1804/IMG_5_1804.jpg","null","","","","","","0","","","","","",""
"dot matrix survey1","survey","32","169444","0.0-32.0","","656776a7904ae00d6b91d1dd","6568aa5f8a9a75b2b442982a","5","","","","","","","","","","","","11641","","{""P0_Q0"":null,""P0_Q1"":{""wealthy"":2,""safe"":2,""walkable"":2,""traditional"":2,""diverse"":1}}","","","","","","0","[]","","","","",""
"dot matrix survey2","survey","33","181324","0.0-33.0","","656776a7904ae00d6b91d1dd","6568aa5f8a9a75b2b442982a","5","","","","","","","","","","","","11869","","{""P0_Q0"":null,""P0_Q1"":{""violence"":1,""crime"":1,""drug"":1,""schools"":2,""opportunities"":2}}","","","","","","0","[]","","","","",""
"dot matrix survey3","survey","34","190151","0.0-34.0","","656776a7904ae00d6b91d1dd","6568aa5f8a9a75b2b442982a","5","","","","","","","","","","","","8815","","{""P0_Q0"":null,""P0_Q1"":{""moveout"":2,""park"":2,""school"":2,""walk"":2,""shopping"":2,""movein"":2}}","","","","","","0","[]","","","","",""
"sliderTrial","html-slider-response","35","194058","0.0-35.0","","656776a7904ae00d6b91d1dd","6568aa5f8a9a75b2b442982a","5","","","","","","","","","","","","3906","[""SV_PolicingMSA/MI_1804/IMG_12_1804.jpg"",""SV_PolicingMSA/MI_1804/IMG_0_1804.jpg"",""SV_PolicingMSA/MI_1804/IMG_8_1804.jpg"",""SV_PolicingMSA/MI_1804/IMG_9_1804.jpg"",""SV_PolicingMSA/MI_1804/IMG_3_1804.jpg"",""SV_PolicingMSA/MI_1804/IMG_14_1804.jpg"",""SV_PolicingMSA/MI_1804/IMG_7_1804.jpg"",""SV_PolicingMSA/MI_1804/IMG_5_1804.jpg""]","3","","","","","","0","","4","[""./rc_img/cop_condGroup_1_CommunitySafety_autoscaled.png"",""./rc_img/cop_condGroup_1_SafeStreets_autoscaled.png""]","3","",""
"sliderTrial","html-slider-response","36","196519","0.0-36.0","","656776a7904ae00d6b91d1dd","6568aa5f8a9a75b2b442982a","5","","","","","","","","","","","","2459","[""SV_PolicingMSA/MI_1804/IMG_12_1804.jpg"",""SV_PolicingMSA/MI_1804/IMG_0_1804.jpg"",""SV_PolicingMSA/MI_1804/IMG_8_1804.jpg"",""SV_PolicingMSA/MI_1804/IMG_9_1804.jpg"",""SV_PolicingMSA/MI_1804/IMG_3_1804.jpg"",""SV_PolicingMSA/MI_1804/IMG_14_1804.jpg"",""SV_PolicingMSA/MI_1804/IMG_7_1804.jpg"",""SV_PolicingMSA/MI_1804/IMG_5_1804.jpg""]","5","","","","","","0","","4","[""./rc_img/cop_condGroup_5_SafeStreets_autoscaled.png"",""./rc_img/cop_condGroup_5_CommunitySafety_autoscaled.png""]","3","",""
"sliderTrial_attention","html-slider-response","37","206532","0.0-37.0","","656776a7904ae00d6b91d1dd","6568aa5f8a9a75b2b442982a","5","","","","","","","","","","","","null","[""SV_PolicingMSA/MI_1804/IMG_12_1804.jpg"",""SV_PolicingMSA/MI_1804/IMG_0_1804.jpg"",""SV_PolicingMSA/MI_1804/IMG_8_1804.jpg"",""SV_PolicingMSA/MI_1804/IMG_9_1804.jpg"",""SV_PolicingMSA/MI_1804/IMG_3_1804.jpg"",""SV_PolicingMSA/MI_1804/IMG_14_1804.jpg"",""SV_PolicingMSA/MI_1804/IMG_7_1804.jpg"",""SV_PolicingMSA/MI_1804/IMG_5_1804.jpg""]","null","","","","","","0","","4","[""./assets/img/attnchk.png"",""./assets/img/attnchk.png""]","","true",""
"sliderTrial","html-slider-response","38","209743","0.0-38.0","","656776a7904ae00d6b91d1dd","6568aa5f8a9a75b2b442982a","5","","","","","","","","","","","","3201","[""SV_PolicingMSA/MI_1804/IMG_12_1804.jpg"",""SV_PolicingMSA/MI_1804/IMG_0_1804.jpg"",""SV_PolicingMSA/MI_1804/IMG_8_1804.jpg"",""SV_PolicingMSA/MI_1804/IMG_9_1804.jpg"",""SV_PolicingMSA/MI_1804/IMG_3_1804.jpg"",""SV_PolicingMSA/MI_1804/IMG_14_1804.jpg"",""SV_PolicingMSA/MI_1804/IMG_7_1804.jpg"",""SV_PolicingMSA/MI_1804/IMG_5_1804.jpg""]","5","","","","","","0","","4","[""./rc_img/cop_condGroup_4_SafeStreets_autoscaled.png"",""./rc_img/cop_condGroup_4_CommunitySafety_autoscaled.png""]","3","",""
"sliderTrial","html-slider-response","39","214264","0.0-39.0","","656776a7904ae00d6b91d1dd","6568aa5f8a9a75b2b442982a","5","","","","","","","","","","","","4520","[""SV_PolicingMSA/MI_1804/IMG_12_1804.jpg"",""SV_PolicingMSA/MI_1804/IMG_0_1804.jpg"",""SV_PolicingMSA/MI_1804/IMG_8_1804.jpg"",""SV_PolicingMSA/MI_1804/IMG_9_1804.jpg"",""SV_PolicingMSA/MI_1804/IMG_3_1804.jpg"",""SV_PolicingMSA/MI_1804/IMG_14_1804.jpg"",""SV_PolicingMSA/MI_1804/IMG_7_1804.jpg"",""SV_PolicingMSA/MI_1804/IMG_5_1804.jpg""]","3","","","","","","0","","4","[""./rc_img/cop_condGroup_16_CommunitySafety_autoscaled.png"",""./rc_img/cop_condGroup_16_SafeStreets_autoscaled.png""]","3","",""
"sliderTrial","html-slider-response","40","217024","0.0-40.0","","656776a7904ae00d6b91d1dd","6568aa5f8a9a75b2b442982a","5","","","","","","","","","","","","2758","[""SV_PolicingMSA/MI_1804/IMG_12_1804.jpg"",""SV_PolicingMSA/MI_1804/IMG_0_1804.jpg"",""SV_PolicingMSA/MI_1804/IMG_8_1804.jpg"",""SV_PolicingMSA/MI_1804/IMG_9_1804.jpg"",""SV_PolicingMSA/MI_1804/IMG_3_1804.jpg"",""SV_PolicingMSA/MI_1804/IMG_14_1804.jpg"",""SV_PolicingMSA/MI_1804/IMG_7_1804.jpg"",""SV_PolicingMSA/MI_1804/IMG_5_1804.jpg""]","5","","","","","","0","","4","[""./rc_img/cop_condGroup_2_SafeStreets_autoscaled.png"",""./rc_img/cop_condGroup_2_CommunitySafety_autoscaled.png""]","3","",""
"before_SVSlide_prompt","html-button-response","41","218382","0.0-41.0","","656776a7904ae00d6b91d1dd","6568aa5f8a9a75b2b442982a","5","","","","","","","","","","","","1357","Click [Next] to see the next neighborhood!","0","","","","","","","","","","","",""
"street view slide show","image-button-response","42","219399","0.0-42.0","","656776a7904ae00d6b91d1dd","6568aa5f8a9a75b2b442982a","5","","","","","","","","","","","","null","stimulus/SV_PolicingMSA/MI_2582/IMG_11_2582.jpg","null","","","","","","3","","","","","",""
"street view slide show","image-button-response","43","220410","0.0-43.0","","656776a7904ae00d6b91d1dd","6568aa5f8a9a75b2b442982a","5","","","","","","","","","","","","null","stimulus/SV_PolicingMSA/MI_2582/IMG_4_2582.jpg","null","","","","","","3","","","","","",""
"street view slide show","image-button-response","44","221417","0.0-44.0","","656776a7904ae00d6b91d1dd","6568aa5f8a9a75b2b442982a","5","","","","","","","","","","","","null","stimulus/SV_PolicingMSA/MI_2582/IMG_3_2582.jpg","null","","","","","","3","","","","","",""
"street view slide show","image-button-response","45","222431","0.0-45.0","","656776a7904ae00d6b91d1dd","6568aa5f8a9a75b2b442982a","5","","","","","","","","","","","","null","stimulus/SV_PolicingMSA/MI_2582/IMG_1_2582.jpg","null","","","","","","3","","","","","",""
"street view slide show","image-button-response","46","223443","0.0-46.0","","656776a7904ae00d6b91d1dd","6568aa5f8a9a75b2b442982a","5","","","","","","","","","","","","null","stimulus/SV_PolicingMSA/MI_2582/IMG_9_2582.jpg","null","","","","","","3","","","","","",""
"street view slide show","image-button-response","47","224452","0.0-47.0","","656776a7904ae00d6b91d1dd","6568aa5f8a9a75b2b442982a","5","","","","","","","","","","","","null","stimulus/SV_PolicingMSA/MI_2582/IMG_10_2582.jpg","null","","","","","","3","","","","","",""
"street view slide show","image-button-response","48","225471","0.0-48.0","","656776a7904ae00d6b91d1dd","6568aa5f8a9a75b2b442982a","5","","","","","","","","","","","","null","stimulus/SV_PolicingMSA/MI_2582/IMG_7_2582.jpg","null","","","","","","3","","","","","",""
"street view slide show","image-button-response","49","226481","0.0-49.0","","656776a7904ae00d6b91d1dd","6568aa5f8a9a75b2b442982a","5","","","","","","","","","","","","null","stimulus/SV_PolicingMSA/MI_2582/IMG_5_2582.jpg","null","","","","","","3","","","","","",""
"dot matrix survey1","survey","50","231576","0.0-50.0","","656776a7904ae00d6b91d1dd","6568aa5f8a9a75b2b442982a","5","","","","","","","","","","","","5072","","{""P0_Q0"":null,""P0_Q1"":{""wealthy"":2,""diverse"":2,""traditional"":2,""walkable"":2,""safe"":2}}","","","","","","3","[]","","","","",""
"dot matrix survey2","survey","51","236719","0.0-51.0","","656776a7904ae00d6b91d1dd","6568aa5f8a9a75b2b442982a","5","","","","","","","","","","","","5136","","{""P0_Q0"":null,""P0_Q1"":{""violence"":2,""crime"":2,""opportunities"":2,""schools"":2,""drug"":2}}","","","","","","3","[]","","","","",""
"dot matrix survey3","survey","52","243539","0.0-52.0","","656776a7904ae00d6b91d1dd","6568aa5f8a9a75b2b442982a","5","","","","","","","","","","","","6811","","{""P0_Q0"":null,""P0_Q1"":{""school"":2,""park"":2,""walk"":2,""shopping"":2,""moveout"":2,""movein"":2}}","","","","","","3","[]","","","","",""
"sliderTrial","html-slider-response","53","248293","0.0-53.0","","656776a7904ae00d6b91d1dd","6568aa5f8a9a75b2b442982a","5","","","","","","","","","","","","4752","[""SV_PolicingMSA/MI_2582/IMG_11_2582.jpg"",""SV_PolicingMSA/MI_2582/IMG_4_2582.jpg"",""SV_PolicingMSA/MI_2582/IMG_3_2582.jpg"",""SV_PolicingMSA/MI_2582/IMG_1_2582.jpg"",""SV_PolicingMSA/MI_2582/IMG_9_2582.jpg"",""SV_PolicingMSA/MI_2582/IMG_10_2582.jpg"",""SV_PolicingMSA/MI_2582/IMG_7_2582.jpg"",""SV_PolicingMSA/MI_2582/IMG_5_2582.jpg""]","5","","","","","","3","","4","[""./rc_img/cop_condGroup_6_SafeStreets_autoscaled.png"",""./rc_img/cop_condGroup_6_CommunitySafety_autoscaled.png""]","3","",""
"sliderTrial","html-slider-response","54","250085","0.0-54.0","","656776a7904ae00d6b91d1dd","6568aa5f8a9a75b2b442982a","5","","","","","","","","","","","","1791","[""SV_PolicingMSA/MI_2582/IMG_11_2582.jpg"",""SV_PolicingMSA/MI_2582/IMG_4_2582.jpg"",""SV_PolicingMSA/MI_2582/IMG_3_2582.jpg"",""SV_PolicingMSA/MI_2582/IMG_1_2582.jpg"",""SV_PolicingMSA/MI_2582/IMG_9_2582.jpg"",""SV_PolicingMSA/MI_2582/IMG_10_2582.jpg"",""SV_PolicingMSA/MI_2582/IMG_7_2582.jpg"",""SV_PolicingMSA/MI_2582/IMG_5_2582.jpg""]","5","","","","","","3","","4","[""./rc_img/cop_condGroup_18_SafeStreets_autoscaled.png"",""./rc_img/cop_condGroup_18_CommunitySafety_autoscaled.png""]","3","",""
"sliderTrial","html-slider-response","55","252020","0.0-55.0","","656776a7904ae00d6b91d1dd","6568aa5f8a9a75b2b442982a","5","","","","","","","","","","","","1933","[""SV_PolicingMSA/MI_2582/IMG_11_2582.jpg"",""SV_PolicingMSA/MI_2582/IMG_4_2582.jpg"",""SV_PolicingMSA/MI_2582/IMG_3_2582.jpg"",""SV_PolicingMSA/MI_2582/IMG_1_2582.jpg"",""SV_PolicingMSA/MI_2582/IMG_9_2582.jpg"",""SV_PolicingMSA/MI_2582/IMG_10_2582.jpg"",""SV_PolicingMSA/MI_2582/IMG_7_2582.jpg"",""SV_PolicingMSA/MI_2582/IMG_5_2582.jpg""]","5","","","","","","3","","4","[""./rc_img/cop_condGroup_10_SafeStreets_autoscaled.png"",""./rc_img/cop_condGroup_10_CommunitySafety_autoscaled.png""]","3","",""
"sliderTrial","html-slider-response","56","255163","0.0-56.0","","656776a7904ae00d6b91d1dd","6568aa5f8a9a75b2b442982a","5","","","","","","","","","","","","3140","[""SV_PolicingMSA/MI_2582/IMG_11_2582.jpg"",""SV_PolicingMSA/MI_2582/IMG_4_2582.jpg"",""SV_PolicingMSA/MI_2582/IMG_3_2582.jpg"",""SV_PolicingMSA/MI_2582/IMG_1_2582.jpg"",""SV_PolicingMSA/MI_2582/IMG_9_2582.jpg"",""SV_PolicingMSA/MI_2582/IMG_10_2582.jpg"",""SV_PolicingMSA/MI_2582/IMG_7_2582.jpg"",""SV_PolicingMSA/MI_2582/IMG_5_2582.jpg""]","5","","","","","","3","","4","[""./rc_img/cop_condGroup_15_SafeStreets_autoscaled.png"",""./rc_img/cop_condGroup_15_CommunitySafety_autoscaled.png""]","3","",""
"sliderTrial","html-slider-response","57","256919","0.0-57.0","","656776a7904ae00d6b91d1dd","6568aa5f8a9a75b2b442982a","5","","","","","","","","","","","","1755","[""SV_PolicingMSA/MI_2582/IMG_11_2582.jpg"",""SV_PolicingMSA/MI_2582/IMG_4_2582.jpg"",""SV_PolicingMSA/MI_2582/IMG_3_2582.jpg"",""SV_PolicingMSA/MI_2582/IMG_1_2582.jpg"",""SV_PolicingMSA/MI_2582/IMG_9_2582.jpg"",""SV_PolicingMSA/MI_2582/IMG_10_2582.jpg"",""SV_PolicingMSA/MI_2582/IMG_7_2582.jpg"",""SV_PolicingMSA/MI_2582/IMG_5_2582.jpg""]","5","","","","","","3","","4","[""./rc_img/cop_condGroup_8_SafeStreets_autoscaled.png"",""./rc_img/cop_condGroup_8_CommunitySafety_autoscaled.png""]","3","",""
"before_SVSlide_prompt","html-button-response","58","257975","0.0-58.0","","656776a7904ae00d6b91d1dd","6568aa5f8a9a75b2b442982a","5","","","","","","","","","","","","1056","Click [Next] to see the next neighborhood!","0","","","","","","","","","","","",""
"street view slide show","image-button-response","59","258986","0.0-59.0","","656776a7904ae00d6b91d1dd","6568aa5f8a9a75b2b442982a","5","","","","","","","","","","","","null","stimulus/SV_PolicingMSA/MI_2715/IMG_5_2715.jpg","null","","","","","","4","","","","","",""
"street view slide show","image-button-response","60","259996","0.0-60.0","","656776a7904ae00d6b91d1dd","6568aa5f8a9a75b2b442982a","5","","","","","","","","","","","","null","stimulus/SV_PolicingMSA/MI_2715/IMG_12_2715.jpg","null","","","","","","4","","","","","",""
"street view slide show","image-button-response","61","261000","0.0-61.0","","656776a7904ae00d6b91d1dd","6568aa5f8a9a75b2b442982a","5","","","","","","","","","","","","null","stimulus/SV_PolicingMSA/MI_2715/IMG_10_2715.jpg","null","","","","","","4","","","","","",""
"street view slide show","image-button-response","62","262004","0.0-62.0","","656776a7904ae00d6b91d1dd","6568aa5f8a9a75b2b442982a","5","","","","","","","","","","","","null","stimulus/SV_PolicingMSA/MI_2715/IMG_8_2715.jpg","null","","","","","","4","","","","","",""
"street view slide show","image-button-response","63","263018","0.0-63.0","","656776a7904ae00d6b91d1dd","6568aa5f8a9a75b2b442982a","5","","","","","","","","","","","","null","stimulus/SV_PolicingMSA/MI_2715/IMG_6_2715.jpg","null","","","","","","4","","","","","",""
"street view slide show","image-button-response","64","264032","0.0-64.0","","656776a7904ae00d6b91d1dd","6568aa5f8a9a75b2b442982a","5","","","","","","","","","","","","null","stimulus/SV_PolicingMSA/MI_2715/IMG_4_2715.jpg","null","","","","","","4","","","","","",""
"street view slide show","image-button-response","65","265049","0.0-65.0","","656776a7904ae00d6b91d1dd","6568aa5f8a9a75b2b442982a","5","","","","","","","","","","","","null","stimulus/SV_PolicingMSA/MI_2715/IMG_3_2715.jpg","null","","","","","","4","","","","","",""
"street view slide show","image-button-response","66","266057","0.0-66.0","","656776a7904ae00d6b91d1dd","6568aa5f8a9a75b2b442982a","5","","","","","","","","","","","","null","stimulus/SV_PolicingMSA/MI_2715/IMG_0_2715.jpg","null","","","","","","4","","","","","",""
"dot matrix survey1","survey","67","270506","0.0-67.0","","656776a7904ae00d6b91d1dd","6568aa5f8a9a75b2b442982a","5","","","","","","","","","","","","4416","","{""P0_Q0"":null,""P0_Q1"":{""wealthy"":2,""safe"":2,""traditional"":2,""diverse"":2,""walkable"":2}}","","","","","","4","[]","","","","",""
"dot matrix survey2","survey","68","274829","0.0-68.0","","656776a7904ae00d6b91d1dd","6568aa5f8a9a75b2b442982a","5","","","","","","","","","","","","4317","","{""P0_Q0"":null,""P0_Q1"":{""violence"":2,""crime"":2,""drug"":2,""opportunities"":2,""schools"":2}}","","","","","","4","[]","","","","",""
"dot matrix survey3","survey","69","282232","0.0-69.0","","656776a7904ae00d6b91d1dd","6568aa5f8a9a75b2b442982a","5","","","","","","","","","","","","7396","","{""P0_Q0"":null,""P0_Q1"":{""moveout"":2,""movein"":2,""park"":2,""walk"":2,""shopping"":2,""school"":2}}","","","","","","4","[]","","","","",""
"sliderTrial","html-slider-response","70","287242","0.0-70.0","","656776a7904ae00d6b91d1dd","6568aa5f8a9a75b2b442982a","5","","","","","","","","","","","","5009","[""SV_PolicingMSA/MI_2715/IMG_5_2715.jpg"",""SV_PolicingMSA/MI_2715/IMG_12_2715.jpg"",""SV_PolicingMSA/MI_2715/IMG_10_2715.jpg"",""SV_PolicingMSA/MI_2715/IMG_8_2715.jpg"",""SV_PolicingMSA/MI_2715/IMG_6_2715.jpg"",""SV_PolicingMSA/MI_2715/IMG_4_2715.jpg"",""SV_PolicingMSA/MI_2715/IMG_3_2715.jpg"",""SV_PolicingMSA/MI_2715/IMG_0_2715.jpg""]","3","","","","","","4","","4","[""./rc_img/cop_condGroup_9_CommunitySafety_autoscaled.png"",""./rc_img/cop_condGroup_9_SafeStreets_autoscaled.png""]","3","",""
"sliderTrial","html-slider-response","71","289357","0.0-71.0","","656776a7904ae00d6b91d1dd","6568aa5f8a9a75b2b442982a","5","","","","","","","","","","","","2114","[""SV_PolicingMSA/MI_2715/IMG_5_2715.jpg"",""SV_PolicingMSA/MI_2715/IMG_12_2715.jpg"",""SV_PolicingMSA/MI_2715/IMG_10_2715.jpg"",""SV_PolicingMSA/MI_2715/IMG_8_2715.jpg"",""SV_PolicingMSA/MI_2715/IMG_6_2715.jpg"",""SV_PolicingMSA/MI_2715/IMG_4_2715.jpg"",""SV_PolicingMSA/MI_2715/IMG_3_2715.jpg"",""SV_PolicingMSA/MI_2715/IMG_0_2715.jpg""]","3","","","","","","4","","4","[""./rc_img/cop_condGroup_11_CommunitySafety_autoscaled.png"",""./rc_img/cop_condGroup_11_SafeStreets_autoscaled.png""]","3","",""
"sliderTrial","html-slider-response","72","292965","0.0-72.0","","656776a7904ae00d6b91d1dd","6568aa5f8a9a75b2b442982a","5","","","","","","","","","","","","3605","[""SV_PolicingMSA/MI_2715/IMG_5_2715.jpg"",""SV_PolicingMSA/MI_2715/IMG_12_2715.jpg"",""SV_PolicingMSA/MI_2715/IMG_10_2715.jpg"",""SV_PolicingMSA/MI_2715/IMG_8_2715.jpg"",""SV_PolicingMSA/MI_2715/IMG_6_2715.jpg"",""SV_PolicingMSA/MI_2715/IMG_4_2715.jpg"",""SV_PolicingMSA/MI_2715/IMG_3_2715.jpg"",""SV_PolicingMSA/MI_2715/IMG_0_2715.jpg""]","5","","","","","","4","","4","[""./rc_img/cop_condGroup_12_SafeStreets_autoscaled.png"",""./rc_img/cop_condGroup_12_CommunitySafety_autoscaled.png""]","3","",""
"sliderTrial","html-slider-response","73","295605","0.0-73.0","","656776a7904ae00d6b91d1dd","6568aa5f8a9a75b2b442982a","5","","","","","","","","","","","","2638","[""SV_PolicingMSA/MI_2715/IMG_5_2715.jpg"",""SV_PolicingMSA/MI_2715/IMG_12_2715.jpg"",""SV_PolicingMSA/MI_2715/IMG_10_2715.jpg"",""SV_PolicingMSA/MI_2715/IMG_8_2715.jpg"",""SV_PolicingMSA/MI_2715/IMG_6_2715.jpg"",""SV_PolicingMSA/MI_2715/IMG_4_2715.jpg"",""SV_PolicingMSA/MI_2715/IMG_3_2715.jpg"",""SV_PolicingMSA/MI_2715/IMG_0_2715.jpg""]","3","","","","","","4","","4","[""./rc_img/cop_condGroup_14_CommunitySafety_autoscaled.png"",""./rc_img/cop_condGroup_14_SafeStreets_autoscaled.png""]","3","",""
"sliderTrial","html-slider-response","74","297796","0.0-74.0","","656776a7904ae00d6b91d1dd","6568aa5f8a9a75b2b442982a","5","","","","","","","","","","","","2189","[""SV_PolicingMSA/MI_2715/IMG_5_2715.jpg"",""SV_PolicingMSA/MI_2715/IMG_12_2715.jpg"",""SV_PolicingMSA/MI_2715/IMG_10_2715.jpg"",""SV_PolicingMSA/MI_2715/IMG_8_2715.jpg"",""SV_PolicingMSA/MI_2715/IMG_6_2715.jpg"",""SV_PolicingMSA/MI_2715/IMG_4_2715.jpg"",""SV_PolicingMSA/MI_2715/IMG_3_2715.jpg"",""SV_PolicingMSA/MI_2715/IMG_0_2715.jpg""]","3","","","","","","4","","4","[""./rc_img/cop_condGroup_3_CommunitySafety_autoscaled.png"",""./rc_img/cop_condGroup_3_SafeStreets_autoscaled.png""]","3","",""
"half-way","html-button-response","75","313549","0.0-75.0","","656776a7904ae00d6b91d1dd","6568aa5f8a9a75b2b442982a","5","","","","","","","","","","","","null","
    <h3>You are now half way through the study.</h3>
    <p>Please take a quick, 15-second break before you continue.</p>
    <img src='assets/img/countdown-15.gif'>
    <p>The study will automatically advance forward after the countdown is complete. <br> However, you may click ""Next"" to advance forward now if you wish.</p>
    ","null","","","","","","","","","","","",""
"before_SVSlide_prompt","html-button-response","76","314844","0.0-76.0","","656776a7904ae00d6b91d1dd","6568aa5f8a9a75b2b442982a","5","","","","","","","","","","","","1294","Click [Next] to see the next neighborhood!","0","","","","","","","","","","","",""
"street view slide show","image-button-response","77","315860","0.0-77.0","","656776a7904ae00d6b91d1dd","6568aa5f8a9a75b2b442982a","5","","","","","","","","","","","","null","stimulus/SV_PolicingMSA/MI_1808/IMG_10_1808.jpg","null","","","","","","1","","","","","",""
"street view slide show","image-button-response","78","316870","0.0-78.0","","656776a7904ae00d6b91d1dd","6568aa5f8a9a75b2b442982a","5","","","","","","","","","","","","null","stimulus/SV_PolicingMSA/MI_1808/IMG_4_1808.jpg","null","","","","","","1","","","","","",""
"street view slide show","image-button-response","79","317874","0.0-79.0","","656776a7904ae00d6b91d1dd","6568aa5f8a9a75b2b442982a","5","","","","","","","","","","","","null","stimulus/SV_PolicingMSA/MI_1808/IMG_0_1808.jpg","null","","","","","","1","","","","","",""
"street view slide show","image-button-response","80","318876","0.0-80.0","","656776a7904ae00d6b91d1dd","6568aa5f8a9a75b2b442982a","5","","","","","","","","","","","","null","stimulus/SV_PolicingMSA/MI_1808/IMG_5_1808.jpg","null","","","","","","1","","","","","",""
"street view slide show","image-button-response","81","319883","0.0-81.0","","656776a7904ae00d6b91d1dd","6568aa5f8a9a75b2b442982a","5","","","","","","","","","","","","null","stimulus/SV_PolicingMSA/MI_1808/IMG_7_1808.jpg","null","","","","","","1","","","","","",""
"street view slide show","image-button-response","82","320891","0.0-82.0","","656776a7904ae00d6b91d1dd","6568aa5f8a9a75b2b442982a","5","","","","","","","","","","","","null","stimulus/SV_PolicingMSA/MI_1808/IMG_3_1808.jpg","null","","","","","","1","","","","","",""
"street view slide show","image-button-response","83","321894","0.0-83.0","","656776a7904ae00d6b91d1dd","6568aa5f8a9a75b2b442982a","5","","","","","","","","","","","","null","stimulus/SV_PolicingMSA/MI_1808/IMG_13_1808.jpg","null","","","","","","1","","","","","",""
"street view slide show","image-button-response","84","322901","0.0-84.0","","656776a7904ae00d6b91d1dd","6568aa5f8a9a75b2b442982a","5","","","","","","","","","","","","null","stimulus/SV_PolicingMSA/MI_1808/IMG_14_1808.jpg","null","","","","","","1","","","","","",""
"dot matrix survey1","survey","85","335866","0.0-85.0","","656776a7904ae00d6b91d1dd","6568aa5f8a9a75b2b442982a","5","","","","","","","","","","","","12957","","{""P0_Q0"":null,""P0_Q1"":{""wealthy"":2,""safe"":2,""traditional"":2,""walkable"":2,""diverse"":2}}","","","","","","1","[]","","","","",""
"dot matrix survey2","survey","86","341274","0.0-86.0","","656776a7904ae00d6b91d1dd","6568aa5f8a9a75b2b442982a","5","","","","","","","","","","","","5400","","{""P0_Q0"":null,""P0_Q1"":{""violence"":2,""crime"":2,""drug"":2,""schools"":2,""opportunities"":2}}","","","","","","1","[]","","","","",""
"dot matrix survey3","survey","87","346177","0.0-87.0","","656776a7904ae00d6b91d1dd","6568aa5f8a9a75b2b442982a","5","","","","","","","","","","","","4895","","{""P0_Q0"":null,""P0_Q1"":{""movein"":2,""moveout"":2,""shopping"":2,""school"":2,""park"":2,""walk"":2}}","","","","","","1","[]","","","","",""
"sliderTrial","html-slider-response","88","349136","0.0-88.0","","656776a7904ae00d6b91d1dd","6568aa5f8a9a75b2b442982a","5","","","","","","","","","","","","2958","[""SV_PolicingMSA/MI_1808/IMG_10_1808.jpg"",""SV_PolicingMSA/MI_1808/IMG_4_1808.jpg"",""SV_PolicingMSA/MI_1808/IMG_0_1808.jpg"",""SV_PolicingMSA/MI_1808/IMG_5_1808.jpg"",""SV_PolicingMSA/MI_1808/IMG_7_1808.jpg"",""SV_PolicingMSA/MI_1808/IMG_3_1808.jpg"",""SV_PolicingMSA/MI_1808/IMG_13_1808.jpg"",""SV_PolicingMSA/MI_1808/IMG_14_1808.jpg""]","5","","","","","","1","","4","[""./rc_img/cop_condGroup_6_SafeStreets_autoscaled.png"",""./rc_img/cop_condGroup_6_CommunitySafety_autoscaled.png""]","3","",""
"sliderTrial","html-slider-response","89","351551","0.0-89.0","","656776a7904ae00d6b91d1dd","6568aa5f8a9a75b2b442982a","5","","","","","","","","","","","","2413","[""SV_PolicingMSA/MI_1808/IMG_10_1808.jpg"",""SV_PolicingMSA/MI_1808/IMG_4_1808.jpg"",""SV_PolicingMSA/MI_1808/IMG_0_1808.jpg"",""SV_PolicingMSA/MI_1808/IMG_5_1808.jpg"",""SV_PolicingMSA/MI_1808/IMG_7_1808.jpg"",""SV_PolicingMSA/MI_1808/IMG_3_1808.jpg"",""SV_PolicingMSA/MI_1808/IMG_13_1808.jpg"",""SV_PolicingMSA/MI_1808/IMG_14_1808.jpg""]","5","","","","","","1","","4","[""./rc_img/cop_condGroup_18_SafeStreets_autoscaled.png"",""./rc_img/cop_condGroup_18_CommunitySafety_autoscaled.png""]","3","",""
"sliderTrial_attention","html-slider-response","90","361564","0.0-90.0","","656776a7904ae00d6b91d1dd","6568aa5f8a9a75b2b442982a","5","","","","","","","","","","","","null","[""SV_PolicingMSA/MI_1808/IMG_10_1808.jpg"",""SV_PolicingMSA/MI_1808/IMG_4_1808.jpg"",""SV_PolicingMSA/MI_1808/IMG_0_1808.jpg"",""SV_PolicingMSA/MI_1808/IMG_5_1808.jpg"",""SV_PolicingMSA/MI_1808/IMG_7_1808.jpg"",""SV_PolicingMSA/MI_1808/IMG_3_1808.jpg"",""SV_PolicingMSA/MI_1808/IMG_13_1808.jpg"",""SV_PolicingMSA/MI_1808/IMG_14_1808.jpg""]","null","","","","","","1","","4","[""./assets/img/attnchk.png"",""./assets/img/attnchk.png""]","","true",""
"sliderTrial","html-slider-response","91","364600","0.0-91.0","","656776a7904ae00d6b91d1dd","6568aa5f8a9a75b2b442982a","5","","","","","","","","","","","","3030","[""SV_PolicingMSA/MI_1808/IMG_10_1808.jpg"",""SV_PolicingMSA/MI_1808/IMG_4_1808.jpg"",""SV_PolicingMSA/MI_1808/IMG_0_1808.jpg"",""SV_PolicingMSA/MI_1808/IMG_5_1808.jpg"",""SV_PolicingMSA/MI_1808/IMG_7_1808.jpg"",""SV_PolicingMSA/MI_1808/IMG_3_1808.jpg"",""SV_PolicingMSA/MI_1808/IMG_13_1808.jpg"",""SV_PolicingMSA/MI_1808/IMG_14_1808.jpg""]","5","","","","","","1","","4","[""./rc_img/cop_condGroup_10_SafeStreets_autoscaled.png"",""./rc_img/cop_condGroup_10_CommunitySafety_autoscaled.png""]","3","",""
"sliderTrial","html-slider-response","92","366250","0.0-92.0","","656776a7904ae00d6b91d1dd","6568aa5f8a9a75b2b442982a","5","","","","","","","","","","","","1648","[""SV_PolicingMSA/MI_1808/IMG_10_1808.jpg"",""SV_PolicingMSA/MI_1808/IMG_4_1808.jpg"",""SV_PolicingMSA/MI_1808/IMG_0_1808.jpg"",""SV_PolicingMSA/MI_1808/IMG_5_1808.jpg"",""SV_PolicingMSA/MI_1808/IMG_7_1808.jpg"",""SV_PolicingMSA/MI_1808/IMG_3_1808.jpg"",""SV_PolicingMSA/MI_1808/IMG_13_1808.jpg"",""SV_PolicingMSA/MI_1808/IMG_14_1808.jpg""]","5","","","","","","1","","4","[""./rc_img/cop_condGroup_15_SafeStreets_autoscaled.png"",""./rc_img/cop_condGroup_15_CommunitySafety_autoscaled.png""]","3","",""
"sliderTrial","html-slider-response","93","369033","0.0-93.0","","656776a7904ae00d6b91d1dd","6568aa5f8a9a75b2b442982a","5","","","","","","","","","","","","2781","[""SV_PolicingMSA/MI_1808/IMG_10_1808.jpg"",""SV_PolicingMSA/MI_1808/IMG_4_1808.jpg"",""SV_PolicingMSA/MI_1808/IMG_0_1808.jpg"",""SV_PolicingMSA/MI_1808/IMG_5_1808.jpg"",""SV_PolicingMSA/MI_1808/IMG_7_1808.jpg"",""SV_PolicingMSA/MI_1808/IMG_3_1808.jpg"",""SV_PolicingMSA/MI_1808/IMG_13_1808.jpg"",""SV_PolicingMSA/MI_1808/IMG_14_1808.jpg""]","5","","","","","","1","","4","[""./rc_img/cop_condGroup_8_SafeStreets_autoscaled.png"",""./rc_img/cop_condGroup_8_CommunitySafety_autoscaled.png""]","3","",""
"before_SVSlide_prompt","html-button-response","94","370203","0.0-94.0","","656776a7904ae00d6b91d1dd","6568aa5f8a9a75b2b442982a","5","","","","","","","","","","","","1169","Click [Next] to see the next neighborhood!","0","","","","","","","","","","","",""
"street view slide show","image-button-response","95","371208","0.0-95.0","","656776a7904ae00d6b91d1dd","6568aa5f8a9a75b2b442982a","5","","","","","","","","","","","","null","stimulus/SV_PolicingMSA/MI_1868/IMG_10_1868.jpg","null","","","","","","2","","","","","",""
"street view slide show","image-button-response","96","372212","0.0-96.0","","656776a7904ae00d6b91d1dd","6568aa5f8a9a75b2b442982a","5","","","","","","","","","","","","null","stimulus/SV_PolicingMSA/MI_1868/IMG_4_1868.jpg","null","","","","","","2","","","","","",""
"street view slide show","image-button-response","97","373217","0.0-97.0","","656776a7904ae00d6b91d1dd","6568aa5f8a9a75b2b442982a","5","","","","","","","","","","","","null","stimulus/SV_PolicingMSA/MI_1868/IMG_13_1868.jpg","null","","","","","","2","","","","","",""
"street view slide show","image-button-response","98","374223","0.0-98.0","","656776a7904ae00d6b91d1dd","6568aa5f8a9a75b2b442982a","5","","","","","","","","","","","","null","stimulus/SV_PolicingMSA/MI_1868/IMG_3_1868.jpg","null","","","","","","2","","","","","",""
"street view slide show","image-button-response","99","375231","0.0-99.0","","656776a7904ae00d6b91d1dd","6568aa5f8a9a75b2b442982a","5","","","","","","","","","","","","null","stimulus/SV_PolicingMSA/MI_1868/IMG_1_1868.jpg","null","","","","","","2","","","","","",""
"street view slide show","image-button-response","100","376235","0.0-100.0","","656776a7904ae00d6b91d1dd","6568aa5f8a9a75b2b442982a","5","","","","","","","","","","","","null","stimulus/SV_PolicingMSA/MI_1868/IMG_11_1868.jpg","null","","","","","","2","","","","","",""
"street view slide show","image-button-response","101","377237","0.0-101.0","","656776a7904ae00d6b91d1dd","6568aa5f8a9a75b2b442982a","5","","","","","","","","","","","","null","stimulus/SV_PolicingMSA/MI_1868/IMG_0_1868.jpg","null","","","","","","2","","","","","",""
"street view slide show","image-button-response","102","378239","0.0-102.0","","656776a7904ae00d6b91d1dd","6568aa5f8a9a75b2b442982a","5","","","","","","","","","","","","null","stimulus/SV_PolicingMSA/MI_1868/IMG_8_1868.jpg","null","","","","","","2","","","","","",""
"dot matrix survey1","survey","103","385774","0.0-103.0","","656776a7904ae00d6b91d1dd","6568aa5f8a9a75b2b442982a","5","","","","","","","","","","","","7516","","{""P0_Q0"":null,""P0_Q1"":{""wealthy"":2,""safe"":2,""traditional"":2,""walkable"":2,""diverse"":2}}","","","","","","2","[]","","","","",""
"dot matrix survey2","survey","104","390318","0.0-104.0","","656776a7904ae00d6b91d1dd","6568aa5f8a9a75b2b442982a","5","","","","","","","","","","","","4537","","{""P0_Q0"":null,""P0_Q1"":{""violence"":2,""crime"":2,""schools"":2,""drug"":2,""opportunities"":2}}","","","","","","2","[]","","","","",""
"dot matrix survey3","survey","105","395508","0.0-105.0","","656776a7904ae00d6b91d1dd","6568aa5f8a9a75b2b442982a","5","","","","","","","","","","","","5183","","{""P0_Q0"":null,""P0_Q1"":{""movein"":2,""moveout"":2,""shopping"":2,""school"":2,""walk"":2,""park"":2}}","","","","","","2","[]","","","","",""
"sliderTrial","html-slider-response","106","398382","0.0-106.0","","656776a7904ae00d6b91d1dd","6568aa5f8a9a75b2b442982a","5","","","","","","","","","","","","2872","[""SV_PolicingMSA/MI_1868/IMG_10_1868.jpg"",""SV_PolicingMSA/MI_1868/IMG_4_1868.jpg"",""SV_PolicingMSA/MI_1868/IMG_13_1868.jpg"",""SV_PolicingMSA/MI_1868/IMG_3_1868.jpg"",""SV_PolicingMSA/MI_1868/IMG_1_1868.jpg"",""SV_PolicingMSA/MI_1868/IMG_11_1868.jpg"",""SV_PolicingMSA/MI_1868/IMG_0_1868.jpg"",""SV_PolicingMSA/MI_1868/IMG_8_1868.jpg""]","3","","","","","","2","","4","[""./rc_img/cop_condGroup_9_CommunitySafety_autoscaled.png"",""./rc_img/cop_condGroup_9_SafeStreets_autoscaled.png""]","3","",""
"sliderTrial","html-slider-response","107","400536","0.0-107.0","","656776a7904ae00d6b91d1dd","6568aa5f8a9a75b2b442982a","5","","","","","","","","","","","","2153","[""SV_PolicingMSA/MI_1868/IMG_10_1868.jpg"",""SV_PolicingMSA/MI_1868/IMG_4_1868.jpg"",""SV_PolicingMSA/MI_1868/IMG_13_1868.jpg"",""SV_PolicingMSA/MI_1868/IMG_3_1868.jpg"",""SV_PolicingMSA/MI_1868/IMG_1_1868.jpg"",""SV_PolicingMSA/MI_1868/IMG_11_1868.jpg"",""SV_PolicingMSA/MI_1868/IMG_0_1868.jpg"",""SV_PolicingMSA/MI_1868/IMG_8_1868.jpg""]","3","","","","","","2","","4","[""./rc_img/cop_condGroup_11_CommunitySafety_autoscaled.png"",""./rc_img/cop_condGroup_11_SafeStreets_autoscaled.png""]","3","",""
"sliderTrial","html-slider-response","108","402867","0.0-108.0","","656776a7904ae00d6b91d1dd","6568aa5f8a9a75b2b442982a","5","","","","","","","","","","","","2330","[""SV_PolicingMSA/MI_1868/IMG_10_1868.jpg"",""SV_PolicingMSA/MI_1868/IMG_4_1868.jpg"",""SV_PolicingMSA/MI_1868/IMG_13_1868.jpg"",""SV_PolicingMSA/MI_1868/IMG_3_1868.jpg"",""SV_PolicingMSA/MI_1868/IMG_1_1868.jpg"",""SV_PolicingMSA/MI_1868/IMG_11_1868.jpg"",""SV_PolicingMSA/MI_1868/IMG_0_1868.jpg"",""SV_PolicingMSA/MI_1868/IMG_8_1868.jpg""]","5","","","","","","2","","4","[""./rc_img/cop_condGroup_12_SafeStreets_autoscaled.png"",""./rc_img/cop_condGroup_12_CommunitySafety_autoscaled.png""]","3","",""
"sliderTrial","html-slider-response","109","404862","0.0-109.0","","656776a7904ae00d6b91d1dd","6568aa5f8a9a75b2b442982a","5","","","","","","","","","","","","1993","[""SV_PolicingMSA/MI_1868/IMG_10_1868.jpg"",""SV_PolicingMSA/MI_1868/IMG_4_1868.jpg"",""SV_PolicingMSA/MI_1868/IMG_13_1868.jpg"",""SV_PolicingMSA/MI_1868/IMG_3_1868.jpg"",""SV_PolicingMSA/MI_1868/IMG_1_1868.jpg"",""SV_PolicingMSA/MI_1868/IMG_11_1868.jpg"",""SV_PolicingMSA/MI_1868/IMG_0_1868.jpg"",""SV_PolicingMSA/MI_1868/IMG_8_1868.jpg""]","3","","","","","","2","","4","[""./rc_img/cop_condGroup_14_CommunitySafety_autoscaled.png"",""./rc_img/cop_condGroup_14_SafeStreets_autoscaled.png""]","3","",""
"sliderTrial","html-slider-response","110","407682","0.0-110.0","","656776a7904ae00d6b91d1dd","6568aa5f8a9a75b2b442982a","5","","","","","","","","","","","","2818","[""SV_PolicingMSA/MI_1868/IMG_10_1868.jpg"",""SV_PolicingMSA/MI_1868/IMG_4_1868.jpg"",""SV_PolicingMSA/MI_1868/IMG_13_1868.jpg"",""SV_PolicingMSA/MI_1868/IMG_3_1868.jpg"",""SV_PolicingMSA/MI_1868/IMG_1_1868.jpg"",""SV_PolicingMSA/MI_1868/IMG_11_1868.jpg"",""SV_PolicingMSA/MI_1868/IMG_0_1868.jpg"",""SV_PolicingMSA/MI_1868/IMG_8_1868.jpg""]","3","","","","","","2","","4","[""./rc_img/cop_condGroup_3_CommunitySafety_autoscaled.png"",""./rc_img/cop_condGroup_3_SafeStreets_autoscaled.png""]","3","",""
"before_SVSlide_prompt","html-button-response","111","409190","0.0-111.0","","656776a7904ae00d6b91d1dd","6568aa5f8a9a75b2b442982a","5","","","","","","","","","","","","1508","Click [Next] to see the next neighborhood!","0","","","","","","","","","","","",""
"street view slide show","image-button-response","112","410204","0.0-112.0","","656776a7904ae00d6b91d1dd","6568aa5f8a9a75b2b442982a","5","","","","","","","","","","","","null","stimulus/SV_PolicingMSA/MI_1822/IMG_7_1822.jpg","null","","","","","","3","","","","","",""
"street view slide show","image-button-response","113","411213","0.0-113.0","","656776a7904ae00d6b91d1dd","6568aa5f8a9a75b2b442982a","5","","","","","","","","","","","","null","stimulus/SV_PolicingMSA/MI_1822/IMG_9_1822.jpg","null","","","","","","3","","","","","",""
"street view slide show","image-button-response","114","412228","0.0-114.0","","656776a7904ae00d6b91d1dd","6568aa5f8a9a75b2b442982a","5","","","","","","","","","","","","null","stimulus/SV_PolicingMSA/MI_1822/IMG_10_1822.jpg","null","","","","","","3","","","","","",""
"street view slide show","image-button-response","115","413240","0.0-115.0","","656776a7904ae00d6b91d1dd","6568aa5f8a9a75b2b442982a","5","","","","","","","","","","","","null","stimulus/SV_PolicingMSA/MI_1822/IMG_3_1822.jpg","null","","","","","","3","","","","","",""
"street view slide show","image-button-response","116","414245","0.0-116.0","","656776a7904ae00d6b91d1dd","6568aa5f8a9a75b2b442982a","5","","","","","","","","","","","","null","stimulus/SV_PolicingMSA/MI_1822/IMG_6_1822.jpg","null","","","","","","3","","","","","",""
"street view slide show","image-button-response","117","415262","0.0-117.0","","656776a7904ae00d6b91d1dd","6568aa5f8a9a75b2b442982a","5","","","","","","","","","","","","null","stimulus/SV_PolicingMSA/MI_1822/IMG_0_1822.jpg","null","","","","","","3","","","","","",""
"street view slide show","image-button-response","118","416277","0.0-118.0","","656776a7904ae00d6b91d1dd","6568aa5f8a9a75b2b442982a","5","","","","","","","","","","","","null","stimulus/SV_PolicingMSA/MI_1822/IMG_4_1822.jpg","null","","","","","","3","","","","","",""
"street view slide show","image-button-response","119","417294","0.0-119.0","","656776a7904ae00d6b91d1dd","6568aa5f8a9a75b2b442982a","5","","","","","","","","","","","","null","stimulus/SV_PolicingMSA/MI_1822/IMG_5_1822.jpg","null","","","","","","3","","","","","",""
"dot matrix survey1","survey","120","445302","0.0-120.0","","656776a7904ae00d6b91d1dd","6568aa5f8a9a75b2b442982a","5","","","","","","","","","","","","27973","","{""P0_Q0"":null,""P0_Q1"":{""wealthy"":2,""safe"":2,""walkable"":2,""traditional"":2,""diverse"":2}}","","","","","","3","[]","","","","",""
"dot matrix survey2","survey","121","455501","0.0-121.0","","656776a7904ae00d6b91d1dd","6568aa5f8a9a75b2b442982a","5","","","","","","","","","","","","10190","","{""P0_Q0"":null,""P0_Q1"":{""violence"":2,""crime"":2,""drug"":2,""schools"":2,""opportunities"":2}}","","","","","","3","[]","","","","",""
"dot matrix survey3","survey","122","467052","0.0-122.0","","656776a7904ae00d6b91d1dd","6568aa5f8a9a75b2b442982a","5","","","","","","","","","","","","11544","","{""P0_Q0"":null,""P0_Q1"":{""moveout"":2,""movein"":2,""shopping"":2,""walk"":2,""park"":2,""school"":2}}","","","","","","3","[]","","","","",""
"sliderTrial","html-slider-response","123","473782","0.0-123.0","","656776a7904ae00d6b91d1dd","6568aa5f8a9a75b2b442982a","5","","","","","","","","","","","","6727","[""SV_PolicingMSA/MI_1822/IMG_7_1822.jpg"",""SV_PolicingMSA/MI_1822/IMG_9_1822.jpg"",""SV_PolicingMSA/MI_1822/IMG_10_1822.jpg"",""SV_PolicingMSA/MI_1822/IMG_3_1822.jpg"",""SV_PolicingMSA/MI_1822/IMG_6_1822.jpg"",""SV_PolicingMSA/MI_1822/IMG_0_1822.jpg"",""SV_PolicingMSA/MI_1822/IMG_4_1822.jpg"",""SV_PolicingMSA/MI_1822/IMG_5_1822.jpg""]","5","","","","","","3","","4","[""./rc_img/cop_condGroup_17_SafeStreets_autoscaled.png"",""./rc_img/cop_condGroup_17_CommunitySafety_autoscaled.png""]","3","",""
"sliderTrial","html-slider-response","124","484044","0.0-124.0","","656776a7904ae00d6b91d1dd","6568aa5f8a9a75b2b442982a","5","","","","","","","","","","","","10261","[""SV_PolicingMSA/MI_1822/IMG_7_1822.jpg"",""SV_PolicingMSA/MI_1822/IMG_9_1822.jpg"",""SV_PolicingMSA/MI_1822/IMG_10_1822.jpg"",""SV_PolicingMSA/MI_1822/IMG_3_1822.jpg"",""SV_PolicingMSA/MI_1822/IMG_6_1822.jpg"",""SV_PolicingMSA/MI_1822/IMG_0_1822.jpg"",""SV_PolicingMSA/MI_1822/IMG_4_1822.jpg"",""SV_PolicingMSA/MI_1822/IMG_5_1822.jpg""]","3","","","","","","3","","4","[""./rc_img/cop_condGroup_20_CommunitySafety_autoscaled.png"",""./rc_img/cop_condGroup_20_SafeStreets_autoscaled.png""]","3","",""
"sliderTrial","html-slider-response","125","486384","0.0-125.0","","656776a7904ae00d6b91d1dd","6568aa5f8a9a75b2b442982a","5","","","","","","","","","","","","2338","[""SV_PolicingMSA/MI_1822/IMG_7_1822.jpg"",""SV_PolicingMSA/MI_1822/IMG_9_1822.jpg"",""SV_PolicingMSA/MI_1822/IMG_10_1822.jpg"",""SV_PolicingMSA/MI_1822/IMG_3_1822.jpg"",""SV_PolicingMSA/MI_1822/IMG_6_1822.jpg"",""SV_PolicingMSA/MI_1822/IMG_0_1822.jpg"",""SV_PolicingMSA/MI_1822/IMG_4_1822.jpg"",""SV_PolicingMSA/MI_1822/IMG_5_1822.jpg""]","5","","","","","","3","","4","[""./rc_img/cop_condGroup_13_SafeStreets_autoscaled.png"",""./rc_img/cop_condGroup_13_CommunitySafety_autoscaled.png""]","3","",""
"sliderTrial","html-slider-response","126","488702","0.0-126.0","","656776a7904ae00d6b91d1dd","6568aa5f8a9a75b2b442982a","5","","","","","","","","","","","","2316","[""SV_PolicingMSA/MI_1822/IMG_7_1822.jpg"",""SV_PolicingMSA/MI_1822/IMG_9_1822.jpg"",""SV_PolicingMSA/MI_1822/IMG_10_1822.jpg"",""SV_PolicingMSA/MI_1822/IMG_3_1822.jpg"",""SV_PolicingMSA/MI_1822/IMG_6_1822.jpg"",""SV_PolicingMSA/MI_1822/IMG_0_1822.jpg"",""SV_PolicingMSA/MI_1822/IMG_4_1822.jpg"",""SV_PolicingMSA/MI_1822/IMG_5_1822.jpg""]","3","","","","","","3","","4","[""./rc_img/cop_condGroup_19_CommunitySafety_autoscaled.png"",""./rc_img/cop_condGroup_19_SafeStreets_autoscaled.png""]","3","",""
"sliderTrial","html-slider-response","127","490532","0.0-127.0","","656776a7904ae00d6b91d1dd","6568aa5f8a9a75b2b442982a","5","","","","","","","","","","","","1828","[""SV_PolicingMSA/MI_1822/IMG_7_1822.jpg"",""SV_PolicingMSA/MI_1822/IMG_9_1822.jpg"",""SV_PolicingMSA/MI_1822/IMG_10_1822.jpg"",""SV_PolicingMSA/MI_1822/IMG_3_1822.jpg"",""SV_PolicingMSA/MI_1822/IMG_6_1822.jpg"",""SV_PolicingMSA/MI_1822/IMG_0_1822.jpg"",""SV_PolicingMSA/MI_1822/IMG_4_1822.jpg"",""SV_PolicingMSA/MI_1822/IMG_5_1822.jpg""]","5","","","","","","3","","4","[""./rc_img/cop_condGroup_7_SafeStreets_autoscaled.png"",""./rc_img/cop_condGroup_7_CommunitySafety_autoscaled.png""]","3","",""
"before_SVSlide_prompt","html-button-response","128","491822","0.0-128.0","","656776a7904ae00d6b91d1dd","6568aa5f8a9a75b2b442982a","5","","","","","","","","","","","","1289","Click [Next] to see the next neighborhood!","0","","","","","","","","","","","",""
"street view slide show","image-button-response","129","492824","0.0-129.0","","656776a7904ae00d6b91d1dd","6568aa5f8a9a75b2b442982a","5","","","","","","","","","","","","null","stimulus/SV_PolicingMSA/MI_1103/IMG_5_1103.jpg","null","","","","","","5","","","","","",""
"street view slide show","image-button-response","130","493827","0.0-130.0","","656776a7904ae00d6b91d1dd","6568aa5f8a9a75b2b442982a","5","","","","","","","","","","","","null","stimulus/SV_PolicingMSA/MI_1103/IMG_9_1103.jpg","null","","","","","","5","","","","","",""
"street view slide show","image-button-response","131","494833","0.0-131.0","","656776a7904ae00d6b91d1dd","6568aa5f8a9a75b2b442982a","5","","","","","","","","","","","","null","stimulus/SV_PolicingMSA/MI_1103/IMG_13_1103.jpg","null","","","","","","5","","","","","",""
"street view slide show","image-button-response","132","495851","0.0-132.0","","656776a7904ae00d6b91d1dd","6568aa5f8a9a75b2b442982a","5","","","","","","","","","","","","null","stimulus/SV_PolicingMSA/MI_1103/IMG_8_1103.jpg","null","","","","","","5","","","","","",""
"street view slide show","image-button-response","133","496865","0.0-133.0","","656776a7904ae00d6b91d1dd","6568aa5f8a9a75b2b442982a","5","","","","","","","","","","","","null","stimulus/SV_PolicingMSA/MI_1103/IMG_12_1103.jpg","null","","","","","","5","","","","","",""
"street view slide show","image-button-response","134","497883","0.0-134.0","","656776a7904ae00d6b91d1dd","6568aa5f8a9a75b2b442982a","5","","","","","","","","","","","","null","stimulus/SV_PolicingMSA/MI_1103/IMG_2_1103.jpg","null","","","","","","5","","","","","",""
"street view slide show","image-button-response","135","498896","0.0-135.0","","656776a7904ae00d6b91d1dd","6568aa5f8a9a75b2b442982a","5","","","","","","","","","","","","null","stimulus/SV_PolicingMSA/MI_1103/IMG_0_1103.jpg","null","","","","","","5","","","","","",""
"street view slide show","image-button-response","136","499910","0.0-136.0","","656776a7904ae00d6b91d1dd","6568aa5f8a9a75b2b442982a","5","","","","","","","","","","","","null","stimulus/SV_PolicingMSA/MI_1103/IMG_1_1103.jpg","null","","","","","","5","","","","","",""
"dot matrix survey1","survey","137","507991","0.0-137.0","","656776a7904ae00d6b91d1dd","6568aa5f8a9a75b2b442982a","5","","","","","","","","","","","","8051","","{""P0_Q0"":null,""P0_Q1"":{""wealthy"":3,""safe"":3,""walkable"":3,""traditional"":3,""diverse"":3}}","","","","","","5","[]","","","","",""
"dot matrix survey2","survey","138","513130","0.0-138.0","","656776a7904ae00d6b91d1dd","6568aa5f8a9a75b2b442982a","5","","","","","","","","","","","","5130","","{""P0_Q0"":null,""P0_Q1"":{""violence"":3,""crime"":3,""drug"":3,""schools"":3,""opportunities"":3}}","","","","","","5","[]","","","","",""
"dot matrix survey3","survey","139","521471","0.0-139.0","","656776a7904ae00d6b91d1dd","6568aa5f8a9a75b2b442982a","5","","","","","","","","","","","","8334","","{""P0_Q0"":null,""P0_Q1"":{""movein"":3,""moveout"":3,""walk"":3,""shopping"":3,""school"":3,""park"":3}}","","","","","","5","[]","","","","",""
"sliderTrial","html-slider-response","140","524718","0.0-140.0","","656776a7904ae00d6b91d1dd","6568aa5f8a9a75b2b442982a","5","","","","","","","","","","","","3245","[""SV_PolicingMSA/MI_1103/IMG_5_1103.jpg"",""SV_PolicingMSA/MI_1103/IMG_9_1103.jpg"",""SV_PolicingMSA/MI_1103/IMG_13_1103.jpg"",""SV_PolicingMSA/MI_1103/IMG_8_1103.jpg"",""SV_PolicingMSA/MI_1103/IMG_12_1103.jpg"",""SV_PolicingMSA/MI_1103/IMG_2_1103.jpg"",""SV_PolicingMSA/MI_1103/IMG_0_1103.jpg"",""SV_PolicingMSA/MI_1103/IMG_1_1103.jpg""]","5","","","","","","5","","4","[""./rc_img/cop_condGroup_17_SafeStreets_autoscaled.png"",""./rc_img/cop_condGroup_17_CommunitySafety_autoscaled.png""]","3","",""
"sliderTrial","html-slider-response","141","527974","0.0-141.0","","656776a7904ae00d6b91d1dd","6568aa5f8a9a75b2b442982a","5","","","","","","","","","","","","3253","[""SV_PolicingMSA/MI_1103/IMG_5_1103.jpg"",""SV_PolicingMSA/MI_1103/IMG_9_1103.jpg"",""SV_PolicingMSA/MI_1103/IMG_13_1103.jpg"",""SV_PolicingMSA/MI_1103/IMG_8_1103.jpg"",""SV_PolicingMSA/MI_1103/IMG_12_1103.jpg"",""SV_PolicingMSA/MI_1103/IMG_2_1103.jpg"",""SV_PolicingMSA/MI_1103/IMG_0_1103.jpg"",""SV_PolicingMSA/MI_1103/IMG_1_1103.jpg""]","3","","","","","","5","","4","[""./rc_img/cop_condGroup_20_CommunitySafety_autoscaled.png"",""./rc_img/cop_condGroup_20_SafeStreets_autoscaled.png""]","3","",""
"sliderTrial","html-slider-response","142","530141","0.0-142.0","","656776a7904ae00d6b91d1dd","6568aa5f8a9a75b2b442982a","5","","","","","","","","","","","","2165","[""SV_PolicingMSA/MI_1103/IMG_5_1103.jpg"",""SV_PolicingMSA/MI_1103/IMG_9_1103.jpg"",""SV_PolicingMSA/MI_1103/IMG_13_1103.jpg"",""SV_PolicingMSA/MI_1103/IMG_8_1103.jpg"",""SV_PolicingMSA/MI_1103/IMG_12_1103.jpg"",""SV_PolicingMSA/MI_1103/IMG_2_1103.jpg"",""SV_PolicingMSA/MI_1103/IMG_0_1103.jpg"",""SV_PolicingMSA/MI_1103/IMG_1_1103.jpg""]","5","","","","","","5","","4","[""./rc_img/cop_condGroup_13_SafeStreets_autoscaled.png"",""./rc_img/cop_condGroup_13_CommunitySafety_autoscaled.png""]","3","",""
"sliderTrial","html-slider-response","143","531949","0.0-143.0","","656776a7904ae00d6b91d1dd","6568aa5f8a9a75b2b442982a","5","","","","","","","","","","","","1806","[""SV_PolicingMSA/MI_1103/IMG_5_1103.jpg"",""SV_PolicingMSA/MI_1103/IMG_9_1103.jpg"",""SV_PolicingMSA/MI_1103/IMG_13_1103.jpg"",""SV_PolicingMSA/MI_1103/IMG_8_1103.jpg"",""SV_PolicingMSA/MI_1103/IMG_12_1103.jpg"",""SV_PolicingMSA/MI_1103/IMG_2_1103.jpg"",""SV_PolicingMSA/MI_1103/IMG_0_1103.jpg"",""SV_PolicingMSA/MI_1103/IMG_1_1103.jpg""]","3","","","","","","5","","4","[""./rc_img/cop_condGroup_19_CommunitySafety_autoscaled.png"",""./rc_img/cop_condGroup_19_SafeStreets_autoscaled.png""]","3","",""
"sliderTrial","html-slider-response","144","533935","0.0-144.0","","656776a7904ae00d6b91d1dd","6568aa5f8a9a75b2b442982a","5","","","","","","","","","","","","1985","[""SV_PolicingMSA/MI_1103/IMG_5_1103.jpg"",""SV_PolicingMSA/MI_1103/IMG_9_1103.jpg"",""SV_PolicingMSA/MI_1103/IMG_13_1103.jpg"",""SV_PolicingMSA/MI_1103/IMG_8_1103.jpg"",""SV_PolicingMSA/MI_1103/IMG_12_1103.jpg"",""SV_PolicingMSA/MI_1103/IMG_2_1103.jpg"",""SV_PolicingMSA/MI_1103/IMG_0_1103.jpg"",""SV_PolicingMSA/MI_1103/IMG_1_1103.jpg""]","5","","","","","","5","","4","[""./rc_img/cop_condGroup_7_SafeStreets_autoscaled.png"",""./rc_img/cop_condGroup_7_CommunitySafety_autoscaled.png""]","3","",""
"demographics","survey-html-form","145","596685","0.0-145.0","","656776a7904ae00d6b91d1dd","6568aa5f8a9a75b2b442982a","5","","","","","","","","","","","","62748","","{""age"":""69"",""sex"":""male"",""gender"":""man"",""gender-self-describe"":"""",""zipcode"":""10123""}","","","","","","","","","","","",""
"demographics-list","survey","146","617637","0.0-146.0","","656776a7904ae00d6b91d1dd","6568aa5f8a9a75b2b442982a","5","","","","","","","","","","","","20917","","{""P0_Q0"":null,""race-ethnicity"":[""White or of European ancestry""],""education"":""Graduate & professional degrees"",""P1_Q0"":null,""ideology"":""Moderate"",""P2_Q0"":null,""num-moves"":1,""P3_Q0"":null,""social-ladder"":5}","","","","","","","[]","","","","",""
"end-survey","survey-text","147","620084","0.0-147.0","","656776a7904ae00d6b91d1dd","6568aa5f8a9a75b2b442982a","5","","","","","","","","","","","","2438","","{""Q0"":""""}","","","","","","","","","","","","2"
"end-survey","html-button-response","148","622582","0.0-148.0","","656776a7904ae00d6b91d1dd","6568aa5f8a9a75b2b442982a","5","","","","","","","","","","","","2497","
    You've reached the end of the survey. <br><br> 
    <b>Do not close or refresh this window.</b><br>
    On the next page, you will be automatically redirected to Prolific. <br><br>

    <div class=""alert alert-warning""><b>
    </div>
","0","","","","","","","","","","","",""
