"task","trial_type","trial_index","time_elapsed","internal_node_id","subject_id","study_id","session_id","section","width","height","webaudio","browser","browser_version","mobile","os","fullscreen","vsync_rate","webcam","microphone","rt","stimulus","response","success","timeout","failed_images","failed_audio","failed_video","block","accuracy","slider_start","choices","standardized_response","correct","num_attention_checks_correct"
"pavlovia-init","pavlovia","0","1009","0.0-0.0","","656776a7904ae00d6b91d1dd","6568adf9ff7f646cd9137aec","10","","","","","","","","","","","","","","","","","","","","","","","","","",""
"browser-check","browser-check","1","25477","0.0-1.0","","656776a7904ae00d6b91d1dd","6568adf9ff7f646cd9137aec","10","1920","894","true","chrome","119.0.0","false","Windows 10","true","60.46","true","true","","","","","","","","","","","","","","",""
"consent","html-button-response","2","28217","0.0-2.0","","656776a7904ae00d6b91d1dd","6568adf9ff7f646cd9137aec","10","","","","","","","","","","","","2737","
        <div style=""font-size: 80%; max-width:700px"">
            <h2>CONSENT FORM</h2>
        
            <div style=""text-align: left"">
            <h4>DESCRIPTION</h4>
            <p>
            You will complete a short task where you give your impressions of various neighborhoods and assign individuals to those spaces, and answer some questions about your thoughts and opinions.<br>
            The University of Michigan Institutional Review Board Health Sciences and Behavioral Sciences has determined that this study is exempt from IRB oversight.
            </p>

            <h4>TIME INVOLVEMENT</h4>
            <p>Your participation will take approximately 15 minutes. You will receive $3.15 upon completion of the study.</p>
        
            <h4>RISKS AND BENEFITS</h4>
            <p>
            The risks associated with this study are minimal. The benefits which may reasonably be expected to result from this study are none. We cannot and do not guarantee or promise that you will receive any benefits from this study.
            </p>
          
            <h4>SUBJECT'S RIGHTS</h4>
            <p>
            If you have read this form and have decided to participate in this project, please understand your participation is voluntary and you have the right to withdraw your consent or discontinue participation at any time without penalty or loss of benefits to which you are otherwise entitled. The alternative is not to participate. You have the right to refuse to answer particular questions. Your individual privacy will be maintained in all published and written data resulting from the study.
            </p>

            <h4>HUMAN SUBJECT APPROVAL</h4>
            <p>
            This study is exempt from ongoing IRB review.
            </p>

            <h4>CONTACT INFORMATION</h4>
            If you have any questions, concerns or complaints about this research, its procedures, risks and benefits, contact the Protocol Director, Nicholas Camp, npcamp@umich.edu, (443) 851-6783. <br>

            If you have questions about your rights as a research participant, or wish to obtain information, ask questions or discuss any concerns about this study with someone other than the researcher(s), please contact the following:<br><br>
            University of Michigan<br>
            Health Sciences and Behavioral Sciences Institutional Review Board (IRB-HSBS)<br>
            2800 Plymouth Road<br>
            Building 520, Room 1169Ann Arbor, MI 48109-2800<br>
            Telephone: 734-936-0933 or toll free (866) 936-0933<br>
            Fax: 734-936-1852<br>
            E-mail: irbhsbs@umich.edu<br><br>

            You can also contact the University of Michigan Compliance Hotline at 1-866-990-0111. You may also print this consent form to keep.
            <br><br>
            <div class=""alert alert-warning""><b>
            Do you consent to participate in this study? If you consent to participate in this study, please click “Accept and Continue”. If you select ""Decline and Exit"", you will be exited from the survey. <br>
            </b></div>
            </div>
        </div>
    ","1","","","","","","","","","","","",""
"","preload","3","41455","0.0-3.0","","656776a7904ae00d6b91d1dd","6568adf9ff7f646cd9137aec","10","","","","","","","","","","","","","","","true","false","[]","[]","[]","","","","","","",""
"instructions","html-button-response","4","260643","0.0-4.0","","656776a7904ae00d6b91d1dd","6568adf9ff7f646cd9137aec","10","","","","","","","","","","","","219190","
        <div class=""text-container"">
        <h1>Welcome to the study!</h1>
        
        <div class=""text-left"">
            <p>
                In this study, we are interested in what people can tell about spaces from Google Street View images. <br> Google Street View takes pictures of streets used for Google Earth and Google Maps. <br>You’ll see Google Street View images of different places and answer some questions about each one.<br>
            </p>
        </div>
        <img src = ""assets/img/example.png"" width = 500px, height = auto>
        <br>
    <br>
    ","0","","","","","","","","","","","",""
"instructions","html-button-response","5","263959","0.0-5.0","","656776a7904ae00d6b91d1dd","6568adf9ff7f646cd9137aec","10","","","","","","","","","","","","3314","
    <div class=""text-container"">
        <div class=""text-center"">
            <p>Please remember that your answers are completely anonymous.<br>Go with your gut response- there are no right or wrong answers!</p>
        </div>
    <br>
","0","","","","","","","","","","","",""
"before_SVSlide_prompt","html-button-response","6","265007","0.0-6.0","","656776a7904ae00d6b91d1dd","6568adf9ff7f646cd9137aec","10","","","","","","","","","","","","1047","Click [Next] to see the next neighborhood!","0","","","","","","","","","","","",""
"street view slide show","image-button-response","7","266011","0.0-7.0","","656776a7904ae00d6b91d1dd","6568adf9ff7f646cd9137aec","10","","","","","","","","","","","","null","stimulus/SV_PolicingMSA/FL_1410/IMG_8_1410.jpg","null","","","","","","2","","","","","",""
"street view slide show","image-button-response","8","267017","0.0-8.0","","656776a7904ae00d6b91d1dd","6568adf9ff7f646cd9137aec","10","","","","","","","","","","","","null","stimulus/SV_PolicingMSA/FL_1410/IMG_9_1410.jpg","null","","","","","","2","","","","","",""
"street view slide show","image-button-response","9","268020","0.0-9.0","","656776a7904ae00d6b91d1dd","6568adf9ff7f646cd9137aec","10","","","","","","","","","","","","null","stimulus/SV_PolicingMSA/FL_1410/IMG_1_1410.jpg","null","","","","","","2","","","","","",""
"street view slide show","image-button-response","10","269032","0.0-10.0","","656776a7904ae00d6b91d1dd","6568adf9ff7f646cd9137aec","10","","","","","","","","","","","","null","stimulus/SV_PolicingMSA/FL_1410/IMG_5_1410.jpg","null","","","","","","2","","","","","",""
"street view slide show","image-button-response","11","270035","0.0-11.0","","656776a7904ae00d6b91d1dd","6568adf9ff7f646cd9137aec","10","","","","","","","","","","","","null","stimulus/SV_PolicingMSA/FL_1410/IMG_10_1410.jpg","null","","","","","","2","","","","","",""
"street view slide show","image-button-response","12","271039","0.0-12.0","","656776a7904ae00d6b91d1dd","6568adf9ff7f646cd9137aec","10","","","","","","","","","","","","null","stimulus/SV_PolicingMSA/FL_1410/IMG_11_1410.jpg","null","","","","","","2","","","","","",""
"street view slide show","image-button-response","13","272042","0.0-13.0","","656776a7904ae00d6b91d1dd","6568adf9ff7f646cd9137aec","10","","","","","","","","","","","","null","stimulus/SV_PolicingMSA/FL_1410/IMG_4_1410.jpg","null","","","","","","2","","","","","",""
"street view slide show","image-button-response","14","273046","0.0-14.0","","656776a7904ae00d6b91d1dd","6568adf9ff7f646cd9137aec","10","","","","","","","","","","","","null","stimulus/SV_PolicingMSA/FL_1410/IMG_6_1410.jpg","null","","","","","","2","","","","","",""
"dot matrix survey1","survey","15","291590","0.0-15.0","","656776a7904ae00d6b91d1dd","6568adf9ff7f646cd9137aec","10","","","","","","","","","","","","18475","","{""P0_Q0"":null,""P0_Q1"":{""wealthy"":2,""safe"":3,""walkable"":3,""traditional"":2,""diverse"":2}}","","","","","","2","[]","","","","",""
"dot matrix survey2","survey","16","303969","0.0-16.0","","656776a7904ae00d6b91d1dd","6568adf9ff7f646cd9137aec","10","","","","","","","","","","","","12367","","{""P0_Q0"":null,""P0_Q1"":{""violence"":1,""crime"":1,""drug"":2,""schools"":2,""opportunities"":2}}","","","","","","2","[]","","","","",""
"dot matrix survey3","survey","17","320512","0.0-17.0","","656776a7904ae00d6b91d1dd","6568adf9ff7f646cd9137aec","10","","","","","","","","","","","","16526","","{""P0_Q0"":null,""P0_Q1"":{""movein"":2,""moveout"":1,""shopping"":3,""walk"":2,""park"":4,""school"":3}}","","","","","","2","[]","","","","",""
"sliderTrial","html-slider-response","18","332473","0.0-18.0","","656776a7904ae00d6b91d1dd","6568adf9ff7f646cd9137aec","10","","","","","","","","","","","","11958","[""SV_PolicingMSA/FL_1410/IMG_8_1410.jpg"",""SV_PolicingMSA/FL_1410/IMG_9_1410.jpg"",""SV_PolicingMSA/FL_1410/IMG_1_1410.jpg"",""SV_PolicingMSA/FL_1410/IMG_5_1410.jpg"",""SV_PolicingMSA/FL_1410/IMG_10_1410.jpg"",""SV_PolicingMSA/FL_1410/IMG_11_1410.jpg"",""SV_PolicingMSA/FL_1410/IMG_4_1410.jpg"",""SV_PolicingMSA/FL_1410/IMG_6_1410.jpg""]","3","","","","","","2","","4","[""./rc_img/cop_condGroup_9_CommunitySafety_autoscaled.png"",""./rc_img/cop_condGroup_9_SafeStreets_autoscaled.png""]","3","",""
"sliderTrial","html-slider-response","19","335973","0.0-19.0","","656776a7904ae00d6b91d1dd","6568adf9ff7f646cd9137aec","10","","","","","","","","","","","","3497","[""SV_PolicingMSA/FL_1410/IMG_8_1410.jpg"",""SV_PolicingMSA/FL_1410/IMG_9_1410.jpg"",""SV_PolicingMSA/FL_1410/IMG_1_1410.jpg"",""SV_PolicingMSA/FL_1410/IMG_5_1410.jpg"",""SV_PolicingMSA/FL_1410/IMG_10_1410.jpg"",""SV_PolicingMSA/FL_1410/IMG_11_1410.jpg"",""SV_PolicingMSA/FL_1410/IMG_4_1410.jpg"",""SV_PolicingMSA/FL_1410/IMG_6_1410.jpg""]","5","","","","","","2","","4","[""./rc_img/cop_condGroup_12_SafeStreets_autoscaled.png"",""./rc_img/cop_condGroup_12_CommunitySafety_autoscaled.png""]","3","",""
"sliderTrial","html-slider-response","20","341362","0.0-20.0","","656776a7904ae00d6b91d1dd","6568adf9ff7f646cd9137aec","10","","","","","","","","","","","","5387","[""SV_PolicingMSA/FL_1410/IMG_8_1410.jpg"",""SV_PolicingMSA/FL_1410/IMG_9_1410.jpg"",""SV_PolicingMSA/FL_1410/IMG_1_1410.jpg"",""SV_PolicingMSA/FL_1410/IMG_5_1410.jpg"",""SV_PolicingMSA/FL_1410/IMG_10_1410.jpg"",""SV_PolicingMSA/FL_1410/IMG_11_1410.jpg"",""SV_PolicingMSA/FL_1410/IMG_4_1410.jpg"",""SV_PolicingMSA/FL_1410/IMG_6_1410.jpg""]","3","","","","","","2","","4","[""./rc_img/cop_condGroup_4_CommunitySafety_autoscaled.png"",""./rc_img/cop_condGroup_4_SafeStreets_autoscaled.png""]","3","",""
"sliderTrial","html-slider-response","21","345062","0.0-21.0","","656776a7904ae00d6b91d1dd","6568adf9ff7f646cd9137aec","10","","","","","","","","","","","","3698","[""SV_PolicingMSA/FL_1410/IMG_8_1410.jpg"",""SV_PolicingMSA/FL_1410/IMG_9_1410.jpg"",""SV_PolicingMSA/FL_1410/IMG_1_1410.jpg"",""SV_PolicingMSA/FL_1410/IMG_5_1410.jpg"",""SV_PolicingMSA/FL_1410/IMG_10_1410.jpg"",""SV_PolicingMSA/FL_1410/IMG_11_1410.jpg"",""SV_PolicingMSA/FL_1410/IMG_4_1410.jpg"",""SV_PolicingMSA/FL_1410/IMG_6_1410.jpg""]","2","","","","","","2","","4","[""./rc_img/cop_condGroup_18_CommunitySafety_autoscaled.png"",""./rc_img/cop_condGroup_18_SafeStreets_autoscaled.png""]","2","",""
"sliderTrial","html-slider-response","22","348563","0.0-22.0","","656776a7904ae00d6b91d1dd","6568adf9ff7f646cd9137aec","10","","","","","","","","","","","","3499","[""SV_PolicingMSA/FL_1410/IMG_8_1410.jpg"",""SV_PolicingMSA/FL_1410/IMG_9_1410.jpg"",""SV_PolicingMSA/FL_1410/IMG_1_1410.jpg"",""SV_PolicingMSA/FL_1410/IMG_5_1410.jpg"",""SV_PolicingMSA/FL_1410/IMG_10_1410.jpg"",""SV_PolicingMSA/FL_1410/IMG_11_1410.jpg"",""SV_PolicingMSA/FL_1410/IMG_4_1410.jpg"",""SV_PolicingMSA/FL_1410/IMG_6_1410.jpg""]","3","","","","","","2","","4","[""./rc_img/cop_condGroup_3_CommunitySafety_autoscaled.png"",""./rc_img/cop_condGroup_3_SafeStreets_autoscaled.png""]","3","",""
"before_SVSlide_prompt","html-button-response","23","350032","0.0-23.0","","656776a7904ae00d6b91d1dd","6568adf9ff7f646cd9137aec","10","","","","","","","","","","","","1468","Click [Next] to see the next neighborhood!","0","","","","","","","","","","","",""
"street view slide show","image-button-response","24","351039","0.0-24.0","","656776a7904ae00d6b91d1dd","6568adf9ff7f646cd9137aec","10","","","","","","","","","","","","null","stimulus/SV_PolicingMSA/FL_4887/IMG_11_4887.jpg","null","","","","","","5","","","","","",""
"street view slide show","image-button-response","25","352043","0.0-25.0","","656776a7904ae00d6b91d1dd","6568adf9ff7f646cd9137aec","10","","","","","","","","","","","","null","stimulus/SV_PolicingMSA/FL_4887/IMG_7_4887.jpg","null","","","","","","5","","","","","",""
"street view slide show","image-button-response","26","353046","0.0-26.0","","656776a7904ae00d6b91d1dd","6568adf9ff7f646cd9137aec","10","","","","","","","","","","","","null","stimulus/SV_PolicingMSA/FL_4887/IMG_9_4887.jpg","null","","","","","","5","","","","","",""
"street view slide show","image-button-response","27","354050","0.0-27.0","","656776a7904ae00d6b91d1dd","6568adf9ff7f646cd9137aec","10","","","","","","","","","","","","null","stimulus/SV_PolicingMSA/FL_4887/IMG_6_4887.jpg","null","","","","","","5","","","","","",""
"street view slide show","image-button-response","28","355053","0.0-28.0","","656776a7904ae00d6b91d1dd","6568adf9ff7f646cd9137aec","10","","","","","","","","","","","","null","stimulus/SV_PolicingMSA/FL_4887/IMG_10_4887.jpg","null","","","","","","5","","","","","",""
"street view slide show","image-button-response","29","356056","0.0-29.0","","656776a7904ae00d6b91d1dd","6568adf9ff7f646cd9137aec","10","","","","","","","","","","","","null","stimulus/SV_PolicingMSA/FL_4887/IMG_2_4887.jpg","null","","","","","","5","","","","","",""
"street view slide show","image-button-response","30","357059","0.0-30.0","","656776a7904ae00d6b91d1dd","6568adf9ff7f646cd9137aec","10","","","","","","","","","","","","null","stimulus/SV_PolicingMSA/FL_4887/IMG_0_4887.jpg","null","","","","","","5","","","","","",""
"street view slide show","image-button-response","31","358062","0.0-31.0","","656776a7904ae00d6b91d1dd","6568adf9ff7f646cd9137aec","10","","","","","","","","","","","","null","stimulus/SV_PolicingMSA/FL_4887/IMG_8_4887.jpg","null","","","","","","5","","","","","",""
"dot matrix survey1","survey","32","371209","0.0-32.0","","656776a7904ae00d6b91d1dd","6568adf9ff7f646cd9137aec","10","","","","","","","","","","","","13130","","{""P0_Q0"":null,""P0_Q1"":{""wealthy"":3,""safe"":2,""walkable"":2,""traditional"":2,""diverse"":2}}","","","","","","5","[]","","","","",""
"dot matrix survey2","survey","33","380197","0.0-33.0","","656776a7904ae00d6b91d1dd","6568adf9ff7f646cd9137aec","10","","","","","","","","","","","","8978","","{""P0_Q0"":null,""P0_Q1"":{""violence"":1,""crime"":1,""drug"":2,""schools"":2,""opportunities"":2}}","","","","","","5","[]","","","","",""
"dot matrix survey3","survey","34","389447","0.0-34.0","","656776a7904ae00d6b91d1dd","6568adf9ff7f646cd9137aec","10","","","","","","","","","","","","9242","","{""P0_Q0"":null,""P0_Q1"":{""movein"":2,""moveout"":1,""shopping"":3,""walk"":3,""park"":4,""school"":3}}","","","","","","5","[]","","","","",""
"sliderTrial","html-slider-response","35","396708","0.0-35.0","","656776a7904ae00d6b91d1dd","6568adf9ff7f646cd9137aec","10","","","","","","","","","","","","7258","[""SV_PolicingMSA/FL_4887/IMG_11_4887.jpg"",""SV_PolicingMSA/FL_4887/IMG_7_4887.jpg"",""SV_PolicingMSA/FL_4887/IMG_9_4887.jpg"",""SV_PolicingMSA/FL_4887/IMG_6_4887.jpg"",""SV_PolicingMSA/FL_4887/IMG_10_4887.jpg"",""SV_PolicingMSA/FL_4887/IMG_2_4887.jpg"",""SV_PolicingMSA/FL_4887/IMG_0_4887.jpg"",""SV_PolicingMSA/FL_4887/IMG_8_4887.jpg""]","3","","","","","","5","","4","[""./rc_img/cop_condGroup_8_SafeStreets_autoscaled.png"",""./rc_img/cop_condGroup_8_CommunitySafety_autoscaled.png""]","5","",""
"sliderTrial","html-slider-response","36","398876","0.0-36.0","","656776a7904ae00d6b91d1dd","6568adf9ff7f646cd9137aec","10","","","","","","","","","","","","2165","[""SV_PolicingMSA/FL_4887/IMG_11_4887.jpg"",""SV_PolicingMSA/FL_4887/IMG_7_4887.jpg"",""SV_PolicingMSA/FL_4887/IMG_9_4887.jpg"",""SV_PolicingMSA/FL_4887/IMG_6_4887.jpg"",""SV_PolicingMSA/FL_4887/IMG_10_4887.jpg"",""SV_PolicingMSA/FL_4887/IMG_2_4887.jpg"",""SV_PolicingMSA/FL_4887/IMG_0_4887.jpg"",""SV_PolicingMSA/FL_4887/IMG_8_4887.jpg""]","3","","","","","","5","","4","[""./rc_img/cop_condGroup_1_SafeStreets_autoscaled.png"",""./rc_img/cop_condGroup_1_CommunitySafety_autoscaled.png""]","5","",""
"sliderTrial","html-slider-response","37","401500","0.0-37.0","","656776a7904ae00d6b91d1dd","6568adf9ff7f646cd9137aec","10","","","","","","","","","","","","2622","[""SV_PolicingMSA/FL_4887/IMG_11_4887.jpg"",""SV_PolicingMSA/FL_4887/IMG_7_4887.jpg"",""SV_PolicingMSA/FL_4887/IMG_9_4887.jpg"",""SV_PolicingMSA/FL_4887/IMG_6_4887.jpg"",""SV_PolicingMSA/FL_4887/IMG_10_4887.jpg"",""SV_PolicingMSA/FL_4887/IMG_2_4887.jpg"",""SV_PolicingMSA/FL_4887/IMG_0_4887.jpg"",""SV_PolicingMSA/FL_4887/IMG_8_4887.jpg""]","3","","","","","","5","","4","[""./rc_img/cop_condGroup_10_SafeStreets_autoscaled.png"",""./rc_img/cop_condGroup_10_CommunitySafety_autoscaled.png""]","5","",""
"sliderTrial","html-slider-response","38","405135","0.0-38.0","","656776a7904ae00d6b91d1dd","6568adf9ff7f646cd9137aec","10","","","","","","","","","","","","3633","[""SV_PolicingMSA/FL_4887/IMG_11_4887.jpg"",""SV_PolicingMSA/FL_4887/IMG_7_4887.jpg"",""SV_PolicingMSA/FL_4887/IMG_9_4887.jpg"",""SV_PolicingMSA/FL_4887/IMG_6_4887.jpg"",""SV_PolicingMSA/FL_4887/IMG_10_4887.jpg"",""SV_PolicingMSA/FL_4887/IMG_2_4887.jpg"",""SV_PolicingMSA/FL_4887/IMG_0_4887.jpg"",""SV_PolicingMSA/FL_4887/IMG_8_4887.jpg""]","5","","","","","","5","","4","[""./rc_img/cop_condGroup_15_SafeStreets_autoscaled.png"",""./rc_img/cop_condGroup_15_CommunitySafety_autoscaled.png""]","3","",""
"sliderTrial","html-slider-response","39","407517","0.0-39.0","","656776a7904ae00d6b91d1dd","6568adf9ff7f646cd9137aec","10","","","","","","","","","","","","2380","[""SV_PolicingMSA/FL_4887/IMG_11_4887.jpg"",""SV_PolicingMSA/FL_4887/IMG_7_4887.jpg"",""SV_PolicingMSA/FL_4887/IMG_9_4887.jpg"",""SV_PolicingMSA/FL_4887/IMG_6_4887.jpg"",""SV_PolicingMSA/FL_4887/IMG_10_4887.jpg"",""SV_PolicingMSA/FL_4887/IMG_2_4887.jpg"",""SV_PolicingMSA/FL_4887/IMG_0_4887.jpg"",""SV_PolicingMSA/FL_4887/IMG_8_4887.jpg""]","5","","","","","","5","","4","[""./rc_img/cop_condGroup_11_SafeStreets_autoscaled.png"",""./rc_img/cop_condGroup_11_CommunitySafety_autoscaled.png""]","3","",""
"before_SVSlide_prompt","html-button-response","40","409534","0.0-40.0","","656776a7904ae00d6b91d1dd","6568adf9ff7f646cd9137aec","10","","","","","","","","","","","","2016","Click [Next] to see the next neighborhood!","0","","","","","","","","","","","",""
"street view slide show","image-button-response","41","410545","0.0-41.0","","656776a7904ae00d6b91d1dd","6568adf9ff7f646cd9137aec","10","","","","","","","","","","","","null","stimulus/SV_PolicingMSA/FL_4062/IMG_9_4062.jpg","null","","","","","","3","","","","","",""
"street view slide show","image-button-response","42","411553","0.0-42.0","","656776a7904ae00d6b91d1dd","6568adf9ff7f646cd9137aec","10","","","","","","","","","","","","null","stimulus/SV_PolicingMSA/FL_4062/IMG_7_4062.jpg","null","","","","","","3","","","","","",""
"street view slide show","image-button-response","43","412558","0.0-43.0","","656776a7904ae00d6b91d1dd","6568adf9ff7f646cd9137aec","10","","","","","","","","","","","","null","stimulus/SV_PolicingMSA/FL_4062/IMG_11_4062.jpg","null","","","","","","3","","","","","",""
"street view slide show","image-button-response","44","413575","0.0-44.0","","656776a7904ae00d6b91d1dd","6568adf9ff7f646cd9137aec","10","","","","","","","","","","","","null","stimulus/SV_PolicingMSA/FL_4062/IMG_8_4062.jpg","null","","","","","","3","","","","","",""
"street view slide show","image-button-response","45","414578","0.0-45.0","","656776a7904ae00d6b91d1dd","6568adf9ff7f646cd9137aec","10","","","","","","","","","","","","null","stimulus/SV_PolicingMSA/FL_4062/IMG_6_4062.jpg","null","","","","","","3","","","","","",""
"street view slide show","image-button-response","46","415581","0.0-46.0","","656776a7904ae00d6b91d1dd","6568adf9ff7f646cd9137aec","10","","","","","","","","","","","","null","stimulus/SV_PolicingMSA/FL_4062/IMG_14_4062.jpg","null","","","","","","3","","","","","",""
"street view slide show","image-button-response","47","416584","0.0-47.0","","656776a7904ae00d6b91d1dd","6568adf9ff7f646cd9137aec","10","","","","","","","","","","","","null","stimulus/SV_PolicingMSA/FL_4062/IMG_2_4062.jpg","null","","","","","","3","","","","","",""
"street view slide show","image-button-response","48","417586","0.0-48.0","","656776a7904ae00d6b91d1dd","6568adf9ff7f646cd9137aec","10","","","","","","","","","","","","null","stimulus/SV_PolicingMSA/FL_4062/IMG_3_4062.jpg","null","","","","","","3","","","","","",""
"dot matrix survey1","survey","49","430160","0.0-49.0","","656776a7904ae00d6b91d1dd","6568adf9ff7f646cd9137aec","10","","","","","","","","","","","","12564","","{""P0_Q0"":null,""P0_Q1"":{""wealthy"":1,""safe"":1,""walkable"":2,""traditional"":1,""diverse"":3}}","","","","","","3","[]","","","","",""
"dot matrix survey2","survey","50","439870","0.0-50.0","","656776a7904ae00d6b91d1dd","6568adf9ff7f646cd9137aec","10","","","","","","","","","","","","9703","","{""P0_Q0"":null,""P0_Q1"":{""violence"":2,""crime"":2,""drug"":3,""schools"":1,""opportunities"":1}}","","","","","","3","[]","","","","",""
"dot matrix survey3","survey","51","455658","0.0-51.0","","656776a7904ae00d6b91d1dd","6568adf9ff7f646cd9137aec","10","","","","","","","","","","","","15780","","{""P0_Q0"":null,""P0_Q1"":{""movein"":1,""moveout"":2,""shopping"":2,""walk"":1,""park"":2,""school"":2}}","","","","","","3","[]","","","","",""
"sliderTrial","html-slider-response","52","458320","0.0-52.0","","656776a7904ae00d6b91d1dd","6568adf9ff7f646cd9137aec","10","","","","","","","","","","","","2660","[""SV_PolicingMSA/FL_4062/IMG_9_4062.jpg"",""SV_PolicingMSA/FL_4062/IMG_7_4062.jpg"",""SV_PolicingMSA/FL_4062/IMG_11_4062.jpg"",""SV_PolicingMSA/FL_4062/IMG_8_4062.jpg"",""SV_PolicingMSA/FL_4062/IMG_6_4062.jpg"",""SV_PolicingMSA/FL_4062/IMG_14_4062.jpg"",""SV_PolicingMSA/FL_4062/IMG_2_4062.jpg"",""SV_PolicingMSA/FL_4062/IMG_3_4062.jpg""]","3","","","","","","3","","4","[""./rc_img/cop_condGroup_19_SafeStreets_autoscaled.png"",""./rc_img/cop_condGroup_19_CommunitySafety_autoscaled.png""]","5","",""
"sliderTrial","html-slider-response","53","460751","0.0-53.0","","656776a7904ae00d6b91d1dd","6568adf9ff7f646cd9137aec","10","","","","","","","","","","","","2429","[""SV_PolicingMSA/FL_4062/IMG_9_4062.jpg"",""SV_PolicingMSA/FL_4062/IMG_7_4062.jpg"",""SV_PolicingMSA/FL_4062/IMG_11_4062.jpg"",""SV_PolicingMSA/FL_4062/IMG_8_4062.jpg"",""SV_PolicingMSA/FL_4062/IMG_6_4062.jpg"",""SV_PolicingMSA/FL_4062/IMG_14_4062.jpg"",""SV_PolicingMSA/FL_4062/IMG_2_4062.jpg"",""SV_PolicingMSA/FL_4062/IMG_3_4062.jpg""]","3","","","","","","3","","4","[""./rc_img/cop_condGroup_6_SafeStreets_autoscaled.png"",""./rc_img/cop_condGroup_6_CommunitySafety_autoscaled.png""]","5","",""
"sliderTrial","html-slider-response","54","463004","0.0-54.0","","656776a7904ae00d6b91d1dd","6568adf9ff7f646cd9137aec","10","","","","","","","","","","","","2251","[""SV_PolicingMSA/FL_4062/IMG_9_4062.jpg"",""SV_PolicingMSA/FL_4062/IMG_7_4062.jpg"",""SV_PolicingMSA/FL_4062/IMG_11_4062.jpg"",""SV_PolicingMSA/FL_4062/IMG_8_4062.jpg"",""SV_PolicingMSA/FL_4062/IMG_6_4062.jpg"",""SV_PolicingMSA/FL_4062/IMG_14_4062.jpg"",""SV_PolicingMSA/FL_4062/IMG_2_4062.jpg"",""SV_PolicingMSA/FL_4062/IMG_3_4062.jpg""]","5","","","","","","3","","4","[""./rc_img/cop_condGroup_7_CommunitySafety_autoscaled.png"",""./rc_img/cop_condGroup_7_SafeStreets_autoscaled.png""]","5","",""
"sliderTrial","html-slider-response","55","465891","0.0-55.0","","656776a7904ae00d6b91d1dd","6568adf9ff7f646cd9137aec","10","","","","","","","","","","","","2885","[""SV_PolicingMSA/FL_4062/IMG_9_4062.jpg"",""SV_PolicingMSA/FL_4062/IMG_7_4062.jpg"",""SV_PolicingMSA/FL_4062/IMG_11_4062.jpg"",""SV_PolicingMSA/FL_4062/IMG_8_4062.jpg"",""SV_PolicingMSA/FL_4062/IMG_6_4062.jpg"",""SV_PolicingMSA/FL_4062/IMG_14_4062.jpg"",""SV_PolicingMSA/FL_4062/IMG_2_4062.jpg"",""SV_PolicingMSA/FL_4062/IMG_3_4062.jpg""]","2","","","","","","3","","4","[""./rc_img/cop_condGroup_5_CommunitySafety_autoscaled.png"",""./rc_img/cop_condGroup_5_SafeStreets_autoscaled.png""]","2","",""
"sliderTrial","html-slider-response","56","467766","0.0-56.0","","656776a7904ae00d6b91d1dd","6568adf9ff7f646cd9137aec","10","","","","","","","","","","","","1873","[""SV_PolicingMSA/FL_4062/IMG_9_4062.jpg"",""SV_PolicingMSA/FL_4062/IMG_7_4062.jpg"",""SV_PolicingMSA/FL_4062/IMG_11_4062.jpg"",""SV_PolicingMSA/FL_4062/IMG_8_4062.jpg"",""SV_PolicingMSA/FL_4062/IMG_6_4062.jpg"",""SV_PolicingMSA/FL_4062/IMG_14_4062.jpg"",""SV_PolicingMSA/FL_4062/IMG_2_4062.jpg"",""SV_PolicingMSA/FL_4062/IMG_3_4062.jpg""]","2","","","","","","3","","4","[""./rc_img/cop_condGroup_2_SafeStreets_autoscaled.png"",""./rc_img/cop_condGroup_2_CommunitySafety_autoscaled.png""]","6","",""
"before_SVSlide_prompt","html-button-response","57","469670","0.0-57.0","","656776a7904ae00d6b91d1dd","6568adf9ff7f646cd9137aec","10","","","","","","","","","","","","1903","Click [Next] to see the next neighborhood!","0","","","","","","","","","","","",""
"street view slide show","image-button-response","58","470688","0.0-58.0","","656776a7904ae00d6b91d1dd","6568adf9ff7f646cd9137aec","10","","","","","","","","","","","","null","stimulus/SV_PolicingMSA/FL_4528/IMG_7_4528.jpg","null","","","","","","1","","","","","",""
"street view slide show","image-button-response","59","471692","0.0-59.0","","656776a7904ae00d6b91d1dd","6568adf9ff7f646cd9137aec","10","","","","","","","","","","","","null","stimulus/SV_PolicingMSA/FL_4528/IMG_6_4528.jpg","null","","","","","","1","","","","","",""
"street view slide show","image-button-response","60","472695","0.0-60.0","","656776a7904ae00d6b91d1dd","6568adf9ff7f646cd9137aec","10","","","","","","","","","","","","null","stimulus/SV_PolicingMSA/FL_4528/IMG_10_4528.jpg","null","","","","","","1","","","","","",""
"street view slide show","image-button-response","61","473699","0.0-61.0","","656776a7904ae00d6b91d1dd","6568adf9ff7f646cd9137aec","10","","","","","","","","","","","","null","stimulus/SV_PolicingMSA/FL_4528/IMG_9_4528.jpg","null","","","","","","1","","","","","",""
"street view slide show","image-button-response","62","474702","0.0-62.0","","656776a7904ae00d6b91d1dd","6568adf9ff7f646cd9137aec","10","","","","","","","","","","","","null","stimulus/SV_PolicingMSA/FL_4528/IMG_8_4528.jpg","null","","","","","","1","","","","","",""
"street view slide show","image-button-response","63","475704","0.0-63.0","","656776a7904ae00d6b91d1dd","6568adf9ff7f646cd9137aec","10","","","","","","","","","","","","null","stimulus/SV_PolicingMSA/FL_4528/IMG_1_4528.jpg","null","","","","","","1","","","","","",""
"street view slide show","image-button-response","64","476707","0.0-64.0","","656776a7904ae00d6b91d1dd","6568adf9ff7f646cd9137aec","10","","","","","","","","","","","","null","stimulus/SV_PolicingMSA/FL_4528/IMG_14_4528.jpg","null","","","","","","1","","","","","",""
"street view slide show","image-button-response","65","477711","0.0-65.0","","656776a7904ae00d6b91d1dd","6568adf9ff7f646cd9137aec","10","","","","","","","","","","","","null","stimulus/SV_PolicingMSA/FL_4528/IMG_3_4528.jpg","null","","","","","","1","","","","","",""
"dot matrix survey1","survey","66","485623","0.0-66.0","","656776a7904ae00d6b91d1dd","6568adf9ff7f646cd9137aec","10","","","","","","","","","","","","7899","","{""P0_Q0"":null,""P0_Q1"":{""wealthy"":0,""safe"":1,""walkable"":1,""traditional"":1,""diverse"":3}}","","","","","","1","[]","","","","",""
"dot matrix survey2","survey","67","496204","0.0-67.0","","656776a7904ae00d6b91d1dd","6568adf9ff7f646cd9137aec","10","","","","","","","","","","","","10570","","{""P0_Q0"":null,""P0_Q1"":{""violence"":3,""crime"":3,""drug"":3,""schools"":1,""opportunities"":0}}","","","","","","1","[]","","","","",""
"dot matrix survey3","survey","68","510111","0.0-68.0","","656776a7904ae00d6b91d1dd","6568adf9ff7f646cd9137aec","10","","","","","","","","","","","","13899","","{""P0_Q0"":null,""P0_Q1"":{""movein"":0,""moveout"":3,""shopping"":1,""walk"":1,""park"":1,""school"":1}}","","","","","","1","[]","","","","",""
"sliderTrial","html-slider-response","69","513378","0.0-69.0","","656776a7904ae00d6b91d1dd","6568adf9ff7f646cd9137aec","10","","","","","","","","","","","","3265","[""SV_PolicingMSA/FL_4528/IMG_7_4528.jpg"",""SV_PolicingMSA/FL_4528/IMG_6_4528.jpg"",""SV_PolicingMSA/FL_4528/IMG_10_4528.jpg"",""SV_PolicingMSA/FL_4528/IMG_9_4528.jpg"",""SV_PolicingMSA/FL_4528/IMG_8_4528.jpg"",""SV_PolicingMSA/FL_4528/IMG_1_4528.jpg"",""SV_PolicingMSA/FL_4528/IMG_14_4528.jpg"",""SV_PolicingMSA/FL_4528/IMG_3_4528.jpg""]","2","","","","","","1","","4","[""./rc_img/cop_condGroup_19_SafeStreets_autoscaled.png"",""./rc_img/cop_condGroup_19_CommunitySafety_autoscaled.png""]","6","",""
"sliderTrial_attention","html-slider-response","70","523384","0.0-70.0","","656776a7904ae00d6b91d1dd","6568adf9ff7f646cd9137aec","10","","","","","","","","","","","","null","[""SV_PolicingMSA/FL_4528/IMG_7_4528.jpg"",""SV_PolicingMSA/FL_4528/IMG_6_4528.jpg"",""SV_PolicingMSA/FL_4528/IMG_10_4528.jpg"",""SV_PolicingMSA/FL_4528/IMG_9_4528.jpg"",""SV_PolicingMSA/FL_4528/IMG_8_4528.jpg"",""SV_PolicingMSA/FL_4528/IMG_1_4528.jpg"",""SV_PolicingMSA/FL_4528/IMG_14_4528.jpg"",""SV_PolicingMSA/FL_4528/IMG_3_4528.jpg""]","null","","","","","","1","","4","[""./assets/img/attnchk.png"",""./assets/img/attnchk.png""]","","true",""
"sliderTrial","html-slider-response","71","528142","0.0-71.0","","656776a7904ae00d6b91d1dd","6568adf9ff7f646cd9137aec","10","","","","","","","","","","","","4755","[""SV_PolicingMSA/FL_4528/IMG_7_4528.jpg"",""SV_PolicingMSA/FL_4528/IMG_6_4528.jpg"",""SV_PolicingMSA/FL_4528/IMG_10_4528.jpg"",""SV_PolicingMSA/FL_4528/IMG_9_4528.jpg"",""SV_PolicingMSA/FL_4528/IMG_8_4528.jpg"",""SV_PolicingMSA/FL_4528/IMG_1_4528.jpg"",""SV_PolicingMSA/FL_4528/IMG_14_4528.jpg"",""SV_PolicingMSA/FL_4528/IMG_3_4528.jpg""]","2","","","","","","1","","4","[""./rc_img/cop_condGroup_6_SafeStreets_autoscaled.png"",""./rc_img/cop_condGroup_6_CommunitySafety_autoscaled.png""]","6","",""
"sliderTrial","html-slider-response","72","531578","0.0-72.0","","656776a7904ae00d6b91d1dd","6568adf9ff7f646cd9137aec","10","","","","","","","","","","","","3434","[""SV_PolicingMSA/FL_4528/IMG_7_4528.jpg"",""SV_PolicingMSA/FL_4528/IMG_6_4528.jpg"",""SV_PolicingMSA/FL_4528/IMG_10_4528.jpg"",""SV_PolicingMSA/FL_4528/IMG_9_4528.jpg"",""SV_PolicingMSA/FL_4528/IMG_8_4528.jpg"",""SV_PolicingMSA/FL_4528/IMG_1_4528.jpg"",""SV_PolicingMSA/FL_4528/IMG_14_4528.jpg"",""SV_PolicingMSA/FL_4528/IMG_3_4528.jpg""]","6","","","","","","1","","4","[""./rc_img/cop_condGroup_7_CommunitySafety_autoscaled.png"",""./rc_img/cop_condGroup_7_SafeStreets_autoscaled.png""]","6","",""
"sliderTrial","html-slider-response","73","533895","0.0-73.0","","656776a7904ae00d6b91d1dd","6568adf9ff7f646cd9137aec","10","","","","","","","","","","","","2315","[""SV_PolicingMSA/FL_4528/IMG_7_4528.jpg"",""SV_PolicingMSA/FL_4528/IMG_6_4528.jpg"",""SV_PolicingMSA/FL_4528/IMG_10_4528.jpg"",""SV_PolicingMSA/FL_4528/IMG_9_4528.jpg"",""SV_PolicingMSA/FL_4528/IMG_8_4528.jpg"",""SV_PolicingMSA/FL_4528/IMG_1_4528.jpg"",""SV_PolicingMSA/FL_4528/IMG_14_4528.jpg"",""SV_PolicingMSA/FL_4528/IMG_3_4528.jpg""]","6","","","","","","1","","4","[""./rc_img/cop_condGroup_5_CommunitySafety_autoscaled.png"",""./rc_img/cop_condGroup_5_SafeStreets_autoscaled.png""]","6","",""
"sliderTrial","html-slider-response","74","536370","0.0-74.0","","656776a7904ae00d6b91d1dd","6568adf9ff7f646cd9137aec","10","","","","","","","","","","","","2472","[""SV_PolicingMSA/FL_4528/IMG_7_4528.jpg"",""SV_PolicingMSA/FL_4528/IMG_6_4528.jpg"",""SV_PolicingMSA/FL_4528/IMG_10_4528.jpg"",""SV_PolicingMSA/FL_4528/IMG_9_4528.jpg"",""SV_PolicingMSA/FL_4528/IMG_8_4528.jpg"",""SV_PolicingMSA/FL_4528/IMG_1_4528.jpg"",""SV_PolicingMSA/FL_4528/IMG_14_4528.jpg"",""SV_PolicingMSA/FL_4528/IMG_3_4528.jpg""]","2","","","","","","1","","4","[""./rc_img/cop_condGroup_2_SafeStreets_autoscaled.png"",""./rc_img/cop_condGroup_2_CommunitySafety_autoscaled.png""]","6","",""
"half-way","html-button-response","75","541980","0.0-75.0","","656776a7904ae00d6b91d1dd","6568adf9ff7f646cd9137aec","10","","","","","","","","","","","","5608","
    <h3>You are now half way through the study.</h3>
    <p>Please take a quick, 15-second break before you continue.</p>
    <img src='assets/img/countdown-15.gif'>
    <p>The study will automatically advance forward after the countdown is complete. <br> However, you may click ""Next"" to advance forward now if you wish.</p>
    ","0","","","","","","","","","","","",""
"before_SVSlide_prompt","html-button-response","76","543348","0.0-76.0","","656776a7904ae00d6b91d1dd","6568adf9ff7f646cd9137aec","10","","","","","","","","","","","","1368","Click [Next] to see the next neighborhood!","0","","","","","","","","","","","",""
"street view slide show","image-button-response","77","544354","0.0-77.0","","656776a7904ae00d6b91d1dd","6568adf9ff7f646cd9137aec","10","","","","","","","","","","","","null","stimulus/SV_PolicingMSA/FL_5080/IMG_8_5080.jpg","null","","","","","","2","","","","","",""
"street view slide show","image-button-response","78","545358","0.0-78.0","","656776a7904ae00d6b91d1dd","6568adf9ff7f646cd9137aec","10","","","","","","","","","","","","null","stimulus/SV_PolicingMSA/FL_5080/IMG_7_5080.jpg","null","","","","","","2","","","","","",""
"street view slide show","image-button-response","79","546368","0.0-79.0","","656776a7904ae00d6b91d1dd","6568adf9ff7f646cd9137aec","10","","","","","","","","","","","","null","stimulus/SV_PolicingMSA/FL_5080/IMG_3_5080.jpg","null","","","","","","2","","","","","",""
"street view slide show","image-button-response","80","547370","0.0-80.0","","656776a7904ae00d6b91d1dd","6568adf9ff7f646cd9137aec","10","","","","","","","","","","","","null","stimulus/SV_PolicingMSA/FL_5080/IMG_10_5080.jpg","null","","","","","","2","","","","","",""
"street view slide show","image-button-response","81","548374","0.0-81.0","","656776a7904ae00d6b91d1dd","6568adf9ff7f646cd9137aec","10","","","","","","","","","","","","null","stimulus/SV_PolicingMSA/FL_5080/IMG_9_5080.jpg","null","","","","","","2","","","","","",""
"street view slide show","image-button-response","82","549384","0.0-82.0","","656776a7904ae00d6b91d1dd","6568adf9ff7f646cd9137aec","10","","","","","","","","","","","","null","stimulus/SV_PolicingMSA/FL_5080/IMG_6_5080.jpg","null","","","","","","2","","","","","",""
"street view slide show","image-button-response","83","550395","0.0-83.0","","656776a7904ae00d6b91d1dd","6568adf9ff7f646cd9137aec","10","","","","","","","","","","","","null","stimulus/SV_PolicingMSA/FL_5080/IMG_13_5080.jpg","null","","","","","","2","","","","","",""
"street view slide show","image-button-response","84","551406","0.0-84.0","","656776a7904ae00d6b91d1dd","6568adf9ff7f646cd9137aec","10","","","","","","","","","","","","null","stimulus/SV_PolicingMSA/FL_5080/IMG_1_5080.jpg","null","","","","","","2","","","","","",""
"dot matrix survey1","survey","85","557864","0.0-85.0","","656776a7904ae00d6b91d1dd","6568adf9ff7f646cd9137aec","10","","","","","","","","","","","","6449","","{""P0_Q0"":null,""P0_Q1"":{""wealthy"":0,""safe"":1,""walkable"":1,""traditional"":1,""diverse"":3}}","","","","","","2","[]","","","","",""
"dot matrix survey2","survey","86","566297","0.0-86.0","","656776a7904ae00d6b91d1dd","6568adf9ff7f646cd9137aec","10","","","","","","","","","","","","8427","","{""P0_Q0"":null,""P0_Q1"":{""violence"":3,""crime"":3,""drug"":3,""schools"":1,""opportunities"":1}}","","","","","","2","[]","","","","",""
"dot matrix survey3","survey","87","579844","0.0-87.0","","656776a7904ae00d6b91d1dd","6568adf9ff7f646cd9137aec","10","","","","","","","","","","","","13538","","{""P0_Q0"":null,""P0_Q1"":{""movein"":0,""moveout"":3,""shopping"":1,""walk"":1,""park"":1,""school"":1}}","","","","","","2","[]","","","","",""
"sliderTrial","html-slider-response","88","581760","0.0-88.0","","656776a7904ae00d6b91d1dd","6568adf9ff7f646cd9137aec","10","","","","","","","","","","","","1914","[""SV_PolicingMSA/FL_5080/IMG_8_5080.jpg"",""SV_PolicingMSA/FL_5080/IMG_7_5080.jpg"",""SV_PolicingMSA/FL_5080/IMG_3_5080.jpg"",""SV_PolicingMSA/FL_5080/IMG_10_5080.jpg"",""SV_PolicingMSA/FL_5080/IMG_9_5080.jpg"",""SV_PolicingMSA/FL_5080/IMG_6_5080.jpg"",""SV_PolicingMSA/FL_5080/IMG_13_5080.jpg"",""SV_PolicingMSA/FL_5080/IMG_1_5080.jpg""]","6","","","","","","2","","4","[""./rc_img/cop_condGroup_16_CommunitySafety_autoscaled.png"",""./rc_img/cop_condGroup_16_SafeStreets_autoscaled.png""]","6","",""
"sliderTrial","html-slider-response","89","584314","0.0-89.0","","656776a7904ae00d6b91d1dd","6568adf9ff7f646cd9137aec","10","","","","","","","","","","","","2551","[""SV_PolicingMSA/FL_5080/IMG_8_5080.jpg"",""SV_PolicingMSA/FL_5080/IMG_7_5080.jpg"",""SV_PolicingMSA/FL_5080/IMG_3_5080.jpg"",""SV_PolicingMSA/FL_5080/IMG_10_5080.jpg"",""SV_PolicingMSA/FL_5080/IMG_9_5080.jpg"",""SV_PolicingMSA/FL_5080/IMG_6_5080.jpg"",""SV_PolicingMSA/FL_5080/IMG_13_5080.jpg"",""SV_PolicingMSA/FL_5080/IMG_1_5080.jpg""]","2","","","","","","2","","4","[""./rc_img/cop_condGroup_20_SafeStreets_autoscaled.png"",""./rc_img/cop_condGroup_20_CommunitySafety_autoscaled.png""]","6","",""
"sliderTrial","html-slider-response","90","586587","0.0-90.0","","656776a7904ae00d6b91d1dd","6568adf9ff7f646cd9137aec","10","","","","","","","","","","","","2270","[""SV_PolicingMSA/FL_5080/IMG_8_5080.jpg"",""SV_PolicingMSA/FL_5080/IMG_7_5080.jpg"",""SV_PolicingMSA/FL_5080/IMG_3_5080.jpg"",""SV_PolicingMSA/FL_5080/IMG_10_5080.jpg"",""SV_PolicingMSA/FL_5080/IMG_9_5080.jpg"",""SV_PolicingMSA/FL_5080/IMG_6_5080.jpg"",""SV_PolicingMSA/FL_5080/IMG_13_5080.jpg"",""SV_PolicingMSA/FL_5080/IMG_1_5080.jpg""]","2","","","","","","2","","4","[""./rc_img/cop_condGroup_17_SafeStreets_autoscaled.png"",""./rc_img/cop_condGroup_17_CommunitySafety_autoscaled.png""]","6","",""
"sliderTrial","html-slider-response","91","590629","0.0-91.0","","656776a7904ae00d6b91d1dd","6568adf9ff7f646cd9137aec","10","","","","","","","","","","","","4040","[""SV_PolicingMSA/FL_5080/IMG_8_5080.jpg"",""SV_PolicingMSA/FL_5080/IMG_7_5080.jpg"",""SV_PolicingMSA/FL_5080/IMG_3_5080.jpg"",""SV_PolicingMSA/FL_5080/IMG_10_5080.jpg"",""SV_PolicingMSA/FL_5080/IMG_9_5080.jpg"",""SV_PolicingMSA/FL_5080/IMG_6_5080.jpg"",""SV_PolicingMSA/FL_5080/IMG_13_5080.jpg"",""SV_PolicingMSA/FL_5080/IMG_1_5080.jpg""]","3","","","","","","2","","4","[""./rc_img/cop_condGroup_13_SafeStreets_autoscaled.png"",""./rc_img/cop_condGroup_13_CommunitySafety_autoscaled.png""]","5","",""
"sliderTrial","html-slider-response","92","592654","0.0-92.0","","656776a7904ae00d6b91d1dd","6568adf9ff7f646cd9137aec","10","","","","","","","","","","","","2023","[""SV_PolicingMSA/FL_5080/IMG_8_5080.jpg"",""SV_PolicingMSA/FL_5080/IMG_7_5080.jpg"",""SV_PolicingMSA/FL_5080/IMG_3_5080.jpg"",""SV_PolicingMSA/FL_5080/IMG_10_5080.jpg"",""SV_PolicingMSA/FL_5080/IMG_9_5080.jpg"",""SV_PolicingMSA/FL_5080/IMG_6_5080.jpg"",""SV_PolicingMSA/FL_5080/IMG_13_5080.jpg"",""SV_PolicingMSA/FL_5080/IMG_1_5080.jpg""]","3","","","","","","2","","4","[""./rc_img/cop_condGroup_14_SafeStreets_autoscaled.png"",""./rc_img/cop_condGroup_14_CommunitySafety_autoscaled.png""]","5","",""
"before_SVSlide_prompt","html-button-response","93","593865","0.0-93.0","","656776a7904ae00d6b91d1dd","6568adf9ff7f646cd9137aec","10","","","","","","","","","","","","1210","Click [Next] to see the next neighborhood!","0","","","","","","","","","","","",""
"street view slide show","image-button-response","94","594880","0.0-94.0","","656776a7904ae00d6b91d1dd","6568adf9ff7f646cd9137aec","10","","","","","","","","","","","","null","stimulus/SV_PolicingMSA/FL_4515/IMG_8_4515.jpg","null","","","","","","0","","","","","",""
"street view slide show","image-button-response","95","595884","0.0-95.0","","656776a7904ae00d6b91d1dd","6568adf9ff7f646cd9137aec","10","","","","","","","","","","","","null","stimulus/SV_PolicingMSA/FL_4515/IMG_10_4515.jpg","null","","","","","","0","","","","","",""
"street view slide show","image-button-response","96","596886","0.0-96.0","","656776a7904ae00d6b91d1dd","6568adf9ff7f646cd9137aec","10","","","","","","","","","","","","null","stimulus/SV_PolicingMSA/FL_4515/IMG_4_4515.jpg","null","","","","","","0","","","","","",""
"street view slide show","image-button-response","97","597897","0.0-97.0","","656776a7904ae00d6b91d1dd","6568adf9ff7f646cd9137aec","10","","","","","","","","","","","","null","stimulus/SV_PolicingMSA/FL_4515/IMG_13_4515.jpg","null","","","","","","0","","","","","",""
"street view slide show","image-button-response","98","598914","0.0-98.0","","656776a7904ae00d6b91d1dd","6568adf9ff7f646cd9137aec","10","","","","","","","","","","","","null","stimulus/SV_PolicingMSA/FL_4515/IMG_0_4515.jpg","null","","","","","","0","","","","","",""
"street view slide show","image-button-response","99","599917","0.0-99.0","","656776a7904ae00d6b91d1dd","6568adf9ff7f646cd9137aec","10","","","","","","","","","","","","null","stimulus/SV_PolicingMSA/FL_4515/IMG_6_4515.jpg","null","","","","","","0","","","","","",""
"street view slide show","image-button-response","100","600927","0.0-100.0","","656776a7904ae00d6b91d1dd","6568adf9ff7f646cd9137aec","10","","","","","","","","","","","","null","stimulus/SV_PolicingMSA/FL_4515/IMG_1_4515.jpg","null","","","","","","0","","","","","",""
"street view slide show","image-button-response","101","601928","0.0-101.0","","656776a7904ae00d6b91d1dd","6568adf9ff7f646cd9137aec","10","","","","","","","","","","","","null","stimulus/SV_PolicingMSA/FL_4515/IMG_12_4515.jpg","null","","","","","","0","","","","","",""
"dot matrix survey1","survey","102","609252","0.0-102.0","","656776a7904ae00d6b91d1dd","6568adf9ff7f646cd9137aec","10","","","","","","","","","","","","7314","","{""P0_Q0"":null,""P0_Q1"":{""wealthy"":1,""safe"":2,""walkable"":2,""traditional"":1,""diverse"":2}}","","","","","","0","[]","","","","",""
"dot matrix survey2","survey","103","619018","0.0-103.0","","656776a7904ae00d6b91d1dd","6568adf9ff7f646cd9137aec","10","","","","","","","","","","","","9758","","{""P0_Q0"":null,""P0_Q1"":{""violence"":2,""crime"":2,""drug"":3,""schools"":1,""opportunities"":1}}","","","","","","0","[]","","","","",""
"dot matrix survey3","survey","104","630555","0.0-104.0","","656776a7904ae00d6b91d1dd","6568adf9ff7f646cd9137aec","10","","","","","","","","","","","","11530","","{""P0_Q0"":null,""P0_Q1"":{""movein"":1,""moveout"":3,""shopping"":1,""walk"":1,""park"":2,""school"":1}}","","","","","","0","[]","","","","",""
"sliderTrial","html-slider-response","105","633818","0.0-105.0","","656776a7904ae00d6b91d1dd","6568adf9ff7f646cd9137aec","10","","","","","","","","","","","","3261","[""SV_PolicingMSA/FL_4515/IMG_8_4515.jpg"",""SV_PolicingMSA/FL_4515/IMG_10_4515.jpg"",""SV_PolicingMSA/FL_4515/IMG_4_4515.jpg"",""SV_PolicingMSA/FL_4515/IMG_13_4515.jpg"",""SV_PolicingMSA/FL_4515/IMG_0_4515.jpg"",""SV_PolicingMSA/FL_4515/IMG_6_4515.jpg"",""SV_PolicingMSA/FL_4515/IMG_1_4515.jpg"",""SV_PolicingMSA/FL_4515/IMG_12_4515.jpg""]","5","","","","","","0","","4","[""./rc_img/cop_condGroup_9_CommunitySafety_autoscaled.png"",""./rc_img/cop_condGroup_9_SafeStreets_autoscaled.png""]","5","",""
"sliderTrial","html-slider-response","106","637595","0.0-106.0","","656776a7904ae00d6b91d1dd","6568adf9ff7f646cd9137aec","10","","","","","","","","","","","","3775","[""SV_PolicingMSA/FL_4515/IMG_8_4515.jpg"",""SV_PolicingMSA/FL_4515/IMG_10_4515.jpg"",""SV_PolicingMSA/FL_4515/IMG_4_4515.jpg"",""SV_PolicingMSA/FL_4515/IMG_13_4515.jpg"",""SV_PolicingMSA/FL_4515/IMG_0_4515.jpg"",""SV_PolicingMSA/FL_4515/IMG_6_4515.jpg"",""SV_PolicingMSA/FL_4515/IMG_1_4515.jpg"",""SV_PolicingMSA/FL_4515/IMG_12_4515.jpg""]","3","","","","","","0","","4","[""./rc_img/cop_condGroup_12_SafeStreets_autoscaled.png"",""./rc_img/cop_condGroup_12_CommunitySafety_autoscaled.png""]","5","",""
"sliderTrial_attention","html-slider-response","107","647601","0.0-107.0","","656776a7904ae00d6b91d1dd","6568adf9ff7f646cd9137aec","10","","","","","","","","","","","","null","[""SV_PolicingMSA/FL_4515/IMG_8_4515.jpg"",""SV_PolicingMSA/FL_4515/IMG_10_4515.jpg"",""SV_PolicingMSA/FL_4515/IMG_4_4515.jpg"",""SV_PolicingMSA/FL_4515/IMG_13_4515.jpg"",""SV_PolicingMSA/FL_4515/IMG_0_4515.jpg"",""SV_PolicingMSA/FL_4515/IMG_6_4515.jpg"",""SV_PolicingMSA/FL_4515/IMG_1_4515.jpg"",""SV_PolicingMSA/FL_4515/IMG_12_4515.jpg""]","null","","","","","","0","","4","[""./assets/img/attnchk.png"",""./assets/img/attnchk.png""]","","true",""
"sliderTrial","html-slider-response","108","651896","0.0-108.0","","656776a7904ae00d6b91d1dd","6568adf9ff7f646cd9137aec","10","","","","","","","","","","","","4294","[""SV_PolicingMSA/FL_4515/IMG_8_4515.jpg"",""SV_PolicingMSA/FL_4515/IMG_10_4515.jpg"",""SV_PolicingMSA/FL_4515/IMG_4_4515.jpg"",""SV_PolicingMSA/FL_4515/IMG_13_4515.jpg"",""SV_PolicingMSA/FL_4515/IMG_0_4515.jpg"",""SV_PolicingMSA/FL_4515/IMG_6_4515.jpg"",""SV_PolicingMSA/FL_4515/IMG_1_4515.jpg"",""SV_PolicingMSA/FL_4515/IMG_12_4515.jpg""]","5","","","","","","0","","4","[""./rc_img/cop_condGroup_4_CommunitySafety_autoscaled.png"",""./rc_img/cop_condGroup_4_SafeStreets_autoscaled.png""]","5","",""
"sliderTrial","html-slider-response","109","654606","0.0-109.0","","656776a7904ae00d6b91d1dd","6568adf9ff7f646cd9137aec","10","","","","","","","","","","","","2707","[""SV_PolicingMSA/FL_4515/IMG_8_4515.jpg"",""SV_PolicingMSA/FL_4515/IMG_10_4515.jpg"",""SV_PolicingMSA/FL_4515/IMG_4_4515.jpg"",""SV_PolicingMSA/FL_4515/IMG_13_4515.jpg"",""SV_PolicingMSA/FL_4515/IMG_0_4515.jpg"",""SV_PolicingMSA/FL_4515/IMG_6_4515.jpg"",""SV_PolicingMSA/FL_4515/IMG_1_4515.jpg"",""SV_PolicingMSA/FL_4515/IMG_12_4515.jpg""]","5","","","","","","0","","4","[""./rc_img/cop_condGroup_18_CommunitySafety_autoscaled.png"",""./rc_img/cop_condGroup_18_SafeStreets_autoscaled.png""]","5","",""
"sliderTrial","html-slider-response","110","657479","0.0-110.0","","656776a7904ae00d6b91d1dd","6568adf9ff7f646cd9137aec","10","","","","","","","","","","","","2870","[""SV_PolicingMSA/FL_4515/IMG_8_4515.jpg"",""SV_PolicingMSA/FL_4515/IMG_10_4515.jpg"",""SV_PolicingMSA/FL_4515/IMG_4_4515.jpg"",""SV_PolicingMSA/FL_4515/IMG_13_4515.jpg"",""SV_PolicingMSA/FL_4515/IMG_0_4515.jpg"",""SV_PolicingMSA/FL_4515/IMG_6_4515.jpg"",""SV_PolicingMSA/FL_4515/IMG_1_4515.jpg"",""SV_PolicingMSA/FL_4515/IMG_12_4515.jpg""]","5","","","","","","0","","4","[""./rc_img/cop_condGroup_3_CommunitySafety_autoscaled.png"",""./rc_img/cop_condGroup_3_SafeStreets_autoscaled.png""]","5","",""
"before_SVSlide_prompt","html-button-response","111","658769","0.0-111.0","","656776a7904ae00d6b91d1dd","6568adf9ff7f646cd9137aec","10","","","","","","","","","","","","1289","Click [Next] to see the next neighborhood!","0","","","","","","","","","","","",""
"street view slide show","image-button-response","112","659771","0.0-112.0","","656776a7904ae00d6b91d1dd","6568adf9ff7f646cd9137aec","10","","","","","","","","","","","","null","stimulus/SV_PolicingMSA/FL_2544/IMG_2_2544.jpg","null","","","","","","3","","","","","",""
"street view slide show","image-button-response","113","660775","0.0-113.0","","656776a7904ae00d6b91d1dd","6568adf9ff7f646cd9137aec","10","","","","","","","","","","","","null","stimulus/SV_PolicingMSA/FL_2544/IMG_14_2544.jpg","null","","","","","","3","","","","","",""
"street view slide show","image-button-response","114","661778","0.0-114.0","","656776a7904ae00d6b91d1dd","6568adf9ff7f646cd9137aec","10","","","","","","","","","","","","null","stimulus/SV_PolicingMSA/FL_2544/IMG_11_2544.jpg","null","","","","","","3","","","","","",""
"street view slide show","image-button-response","115","662782","0.0-115.0","","656776a7904ae00d6b91d1dd","6568adf9ff7f646cd9137aec","10","","","","","","","","","","","","null","stimulus/SV_PolicingMSA/FL_2544/IMG_6_2544.jpg","null","","","","","","3","","","","","",""
"street view slide show","image-button-response","116","663795","0.0-116.0","","656776a7904ae00d6b91d1dd","6568adf9ff7f646cd9137aec","10","","","","","","","","","","","","null","stimulus/SV_PolicingMSA/FL_2544/IMG_12_2544.jpg","null","","","","","","3","","","","","",""
"street view slide show","image-button-response","117","664808","0.0-117.0","","656776a7904ae00d6b91d1dd","6568adf9ff7f646cd9137aec","10","","","","","","","","","","","","null","stimulus/SV_PolicingMSA/FL_2544/IMG_10_2544.jpg","null","","","","","","3","","","","","",""
"street view slide show","image-button-response","118","665822","0.0-118.0","","656776a7904ae00d6b91d1dd","6568adf9ff7f646cd9137aec","10","","","","","","","","","","","","null","stimulus/SV_PolicingMSA/FL_2544/IMG_1_2544.jpg","null","","","","","","3","","","","","",""
"street view slide show","image-button-response","119","666823","0.0-119.0","","656776a7904ae00d6b91d1dd","6568adf9ff7f646cd9137aec","10","","","","","","","","","","","","null","stimulus/SV_PolicingMSA/FL_2544/IMG_3_2544.jpg","null","","","","","","3","","","","","",""
"dot matrix survey1","survey","120","673256","0.0-120.0","","656776a7904ae00d6b91d1dd","6568adf9ff7f646cd9137aec","10","","","","","","","","","","","","6417","","{""P0_Q0"":null,""P0_Q1"":{""wealthy"":0,""safe"":1,""walkable"":0,""traditional"":0,""diverse"":4}}","","","","","","3","[]","","","","",""
"dot matrix survey2","survey","121","680085","0.0-121.0","","656776a7904ae00d6b91d1dd","6568adf9ff7f646cd9137aec","10","","","","","","","","","","","","6820","","{""P0_Q0"":null,""P0_Q1"":{""violence"":3,""crime"":3,""drug"":3,""schools"":0,""opportunities"":0}}","","","","","","3","[]","","","","",""
"dot matrix survey3","survey","122","691123","0.0-122.0","","656776a7904ae00d6b91d1dd","6568adf9ff7f646cd9137aec","10","","","","","","","","","","","","11031","","{""P0_Q0"":null,""P0_Q1"":{""movein"":0,""moveout"":4,""shopping"":1,""walk"":0,""park"":1,""school"":1}}","","","","","","3","[]","","","","",""
"sliderTrial","html-slider-response","123","706513","0.0-123.0","","656776a7904ae00d6b91d1dd","6568adf9ff7f646cd9137aec","10","","","","","","","","","","","","15388","[""SV_PolicingMSA/FL_2544/IMG_2_2544.jpg"",""SV_PolicingMSA/FL_2544/IMG_14_2544.jpg"",""SV_PolicingMSA/FL_2544/IMG_11_2544.jpg"",""SV_PolicingMSA/FL_2544/IMG_6_2544.jpg"",""SV_PolicingMSA/FL_2544/IMG_12_2544.jpg"",""SV_PolicingMSA/FL_2544/IMG_10_2544.jpg"",""SV_PolicingMSA/FL_2544/IMG_1_2544.jpg"",""SV_PolicingMSA/FL_2544/IMG_3_2544.jpg""]","2","","","","","","3","","4","[""./rc_img/cop_condGroup_8_SafeStreets_autoscaled.png"",""./rc_img/cop_condGroup_8_CommunitySafety_autoscaled.png""]","6","",""
"sliderTrial","html-slider-response","124","708773","0.0-124.0","","656776a7904ae00d6b91d1dd","6568adf9ff7f646cd9137aec","10","","","","","","","","","","","","2258","[""SV_PolicingMSA/FL_2544/IMG_2_2544.jpg"",""SV_PolicingMSA/FL_2544/IMG_14_2544.jpg"",""SV_PolicingMSA/FL_2544/IMG_11_2544.jpg"",""SV_PolicingMSA/FL_2544/IMG_6_2544.jpg"",""SV_PolicingMSA/FL_2544/IMG_12_2544.jpg"",""SV_PolicingMSA/FL_2544/IMG_10_2544.jpg"",""SV_PolicingMSA/FL_2544/IMG_1_2544.jpg"",""SV_PolicingMSA/FL_2544/IMG_3_2544.jpg""]","2","","","","","","3","","4","[""./rc_img/cop_condGroup_1_SafeStreets_autoscaled.png"",""./rc_img/cop_condGroup_1_CommunitySafety_autoscaled.png""]","6","",""
"sliderTrial","html-slider-response","125","711276","0.0-125.0","","656776a7904ae00d6b91d1dd","6568adf9ff7f646cd9137aec","10","","","","","","","","","","","","2501","[""SV_PolicingMSA/FL_2544/IMG_2_2544.jpg"",""SV_PolicingMSA/FL_2544/IMG_14_2544.jpg"",""SV_PolicingMSA/FL_2544/IMG_11_2544.jpg"",""SV_PolicingMSA/FL_2544/IMG_6_2544.jpg"",""SV_PolicingMSA/FL_2544/IMG_12_2544.jpg"",""SV_PolicingMSA/FL_2544/IMG_10_2544.jpg"",""SV_PolicingMSA/FL_2544/IMG_1_2544.jpg"",""SV_PolicingMSA/FL_2544/IMG_3_2544.jpg""]","2","","","","","","3","","4","[""./rc_img/cop_condGroup_10_SafeStreets_autoscaled.png"",""./rc_img/cop_condGroup_10_CommunitySafety_autoscaled.png""]","6","",""
"sliderTrial","html-slider-response","126","714049","0.0-126.0","","656776a7904ae00d6b91d1dd","6568adf9ff7f646cd9137aec","10","","","","","","","","","","","","2771","[""SV_PolicingMSA/FL_2544/IMG_2_2544.jpg"",""SV_PolicingMSA/FL_2544/IMG_14_2544.jpg"",""SV_PolicingMSA/FL_2544/IMG_11_2544.jpg"",""SV_PolicingMSA/FL_2544/IMG_6_2544.jpg"",""SV_PolicingMSA/FL_2544/IMG_12_2544.jpg"",""SV_PolicingMSA/FL_2544/IMG_10_2544.jpg"",""SV_PolicingMSA/FL_2544/IMG_1_2544.jpg"",""SV_PolicingMSA/FL_2544/IMG_3_2544.jpg""]","2","","","","","","3","","4","[""./rc_img/cop_condGroup_15_SafeStreets_autoscaled.png"",""./rc_img/cop_condGroup_15_CommunitySafety_autoscaled.png""]","6","",""
"sliderTrial","html-slider-response","127","716629","0.0-127.0","","656776a7904ae00d6b91d1dd","6568adf9ff7f646cd9137aec","10","","","","","","","","","","","","2578","[""SV_PolicingMSA/FL_2544/IMG_2_2544.jpg"",""SV_PolicingMSA/FL_2544/IMG_14_2544.jpg"",""SV_PolicingMSA/FL_2544/IMG_11_2544.jpg"",""SV_PolicingMSA/FL_2544/IMG_6_2544.jpg"",""SV_PolicingMSA/FL_2544/IMG_12_2544.jpg"",""SV_PolicingMSA/FL_2544/IMG_10_2544.jpg"",""SV_PolicingMSA/FL_2544/IMG_1_2544.jpg"",""SV_PolicingMSA/FL_2544/IMG_3_2544.jpg""]","3","","","","","","3","","4","[""./rc_img/cop_condGroup_11_SafeStreets_autoscaled.png"",""./rc_img/cop_condGroup_11_CommunitySafety_autoscaled.png""]","5","",""
"before_SVSlide_prompt","html-button-response","128","718091","0.0-128.0","","656776a7904ae00d6b91d1dd","6568adf9ff7f646cd9137aec","10","","","","","","","","","","","","1460","Click [Next] to see the next neighborhood!","0","","","","","","","","","","","",""
"street view slide show","image-button-response","129","719101","0.0-129.0","","656776a7904ae00d6b91d1dd","6568adf9ff7f646cd9137aec","10","","","","","","","","","","","","null","stimulus/SV_PolicingMSA/FL_4023/IMG_4_4023.jpg","null","","","","","","4","","","","","",""
"street view slide show","image-button-response","130","720105","0.0-130.0","","656776a7904ae00d6b91d1dd","6568adf9ff7f646cd9137aec","10","","","","","","","","","","","","null","stimulus/SV_PolicingMSA/FL_4023/IMG_10_4023.jpg","null","","","","","","4","","","","","",""
"street view slide show","image-button-response","131","721108","0.0-131.0","","656776a7904ae00d6b91d1dd","6568adf9ff7f646cd9137aec","10","","","","","","","","","","","","null","stimulus/SV_PolicingMSA/FL_4023/IMG_1_4023.jpg","null","","","","","","4","","","","","",""
"street view slide show","image-button-response","132","722111","0.0-132.0","","656776a7904ae00d6b91d1dd","6568adf9ff7f646cd9137aec","10","","","","","","","","","","","","null","stimulus/SV_PolicingMSA/FL_4023/IMG_2_4023.jpg","null","","","","","","4","","","","","",""
"street view slide show","image-button-response","133","723115","0.0-133.0","","656776a7904ae00d6b91d1dd","6568adf9ff7f646cd9137aec","10","","","","","","","","","","","","null","stimulus/SV_PolicingMSA/FL_4023/IMG_5_4023.jpg","null","","","","","","4","","","","","",""
"street view slide show","image-button-response","134","724118","0.0-134.0","","656776a7904ae00d6b91d1dd","6568adf9ff7f646cd9137aec","10","","","","","","","","","","","","null","stimulus/SV_PolicingMSA/FL_4023/IMG_12_4023.jpg","null","","","","","","4","","","","","",""
"street view slide show","image-button-response","135","725121","0.0-135.0","","656776a7904ae00d6b91d1dd","6568adf9ff7f646cd9137aec","10","","","","","","","","","","","","null","stimulus/SV_PolicingMSA/FL_4023/IMG_6_4023.jpg","null","","","","","","4","","","","","",""
"street view slide show","image-button-response","136","726124","0.0-136.0","","656776a7904ae00d6b91d1dd","6568adf9ff7f646cd9137aec","10","","","","","","","","","","","","null","stimulus/SV_PolicingMSA/FL_4023/IMG_9_4023.jpg","null","","","","","","4","","","","","",""
"dot matrix survey1","survey","137","736656","0.0-137.0","","656776a7904ae00d6b91d1dd","6568adf9ff7f646cd9137aec","10","","","","","","","","","","","","10518","","{""P0_Q0"":null,""P0_Q1"":{""wealthy"":3,""safe"":2,""walkable"":2,""traditional"":3,""diverse"":1}}","","","","","","4","[]","","","","",""
"dot matrix survey2","survey","138","743342","0.0-138.0","","656776a7904ae00d6b91d1dd","6568adf9ff7f646cd9137aec","10","","","","","","","","","","","","6678","","{""P0_Q0"":null,""P0_Q1"":{""violence"":1,""crime"":1,""drug"":1,""schools"":3,""opportunities"":3}}","","","","","","4","[]","","","","",""
"dot matrix survey3","survey","139","754234","0.0-139.0","","656776a7904ae00d6b91d1dd","6568adf9ff7f646cd9137aec","10","","","","","","","","","","","","10884","","{""P0_Q0"":null,""P0_Q1"":{""movein"":2,""moveout"":1,""shopping"":3,""walk"":2,""park"":3,""school"":3}}","","","","","","4","[]","","","","",""
"sliderTrial","html-slider-response","140","756248","0.0-140.0","","656776a7904ae00d6b91d1dd","6568adf9ff7f646cd9137aec","10","","","","","","","","","","","","2012","[""SV_PolicingMSA/FL_4023/IMG_4_4023.jpg"",""SV_PolicingMSA/FL_4023/IMG_10_4023.jpg"",""SV_PolicingMSA/FL_4023/IMG_1_4023.jpg"",""SV_PolicingMSA/FL_4023/IMG_2_4023.jpg"",""SV_PolicingMSA/FL_4023/IMG_5_4023.jpg"",""SV_PolicingMSA/FL_4023/IMG_12_4023.jpg"",""SV_PolicingMSA/FL_4023/IMG_6_4023.jpg"",""SV_PolicingMSA/FL_4023/IMG_9_4023.jpg""]","3","","","","","","4","","4","[""./rc_img/cop_condGroup_16_CommunitySafety_autoscaled.png"",""./rc_img/cop_condGroup_16_SafeStreets_autoscaled.png""]","3","",""
"sliderTrial","html-slider-response","141","758329","0.0-141.0","","656776a7904ae00d6b91d1dd","6568adf9ff7f646cd9137aec","10","","","","","","","","","","","","2079","[""SV_PolicingMSA/FL_4023/IMG_4_4023.jpg"",""SV_PolicingMSA/FL_4023/IMG_10_4023.jpg"",""SV_PolicingMSA/FL_4023/IMG_1_4023.jpg"",""SV_PolicingMSA/FL_4023/IMG_2_4023.jpg"",""SV_PolicingMSA/FL_4023/IMG_5_4023.jpg"",""SV_PolicingMSA/FL_4023/IMG_12_4023.jpg"",""SV_PolicingMSA/FL_4023/IMG_6_4023.jpg"",""SV_PolicingMSA/FL_4023/IMG_9_4023.jpg""]","5","","","","","","4","","4","[""./rc_img/cop_condGroup_20_SafeStreets_autoscaled.png"",""./rc_img/cop_condGroup_20_CommunitySafety_autoscaled.png""]","3","",""
"sliderTrial","html-slider-response","142","760475","0.0-142.0","","656776a7904ae00d6b91d1dd","6568adf9ff7f646cd9137aec","10","","","","","","","","","","","","2142","[""SV_PolicingMSA/FL_4023/IMG_4_4023.jpg"",""SV_PolicingMSA/FL_4023/IMG_10_4023.jpg"",""SV_PolicingMSA/FL_4023/IMG_1_4023.jpg"",""SV_PolicingMSA/FL_4023/IMG_2_4023.jpg"",""SV_PolicingMSA/FL_4023/IMG_5_4023.jpg"",""SV_PolicingMSA/FL_4023/IMG_12_4023.jpg"",""SV_PolicingMSA/FL_4023/IMG_6_4023.jpg"",""SV_PolicingMSA/FL_4023/IMG_9_4023.jpg""]","5","","","","","","4","","4","[""./rc_img/cop_condGroup_17_SafeStreets_autoscaled.png"",""./rc_img/cop_condGroup_17_CommunitySafety_autoscaled.png""]","3","",""
"sliderTrial","html-slider-response","143","763320","0.0-143.0","","656776a7904ae00d6b91d1dd","6568adf9ff7f646cd9137aec","10","","","","","","","","","","","","2843","[""SV_PolicingMSA/FL_4023/IMG_4_4023.jpg"",""SV_PolicingMSA/FL_4023/IMG_10_4023.jpg"",""SV_PolicingMSA/FL_4023/IMG_1_4023.jpg"",""SV_PolicingMSA/FL_4023/IMG_2_4023.jpg"",""SV_PolicingMSA/FL_4023/IMG_5_4023.jpg"",""SV_PolicingMSA/FL_4023/IMG_12_4023.jpg"",""SV_PolicingMSA/FL_4023/IMG_6_4023.jpg"",""SV_PolicingMSA/FL_4023/IMG_9_4023.jpg""]","5","","","","","","4","","4","[""./rc_img/cop_condGroup_13_SafeStreets_autoscaled.png"",""./rc_img/cop_condGroup_13_CommunitySafety_autoscaled.png""]","3","",""
"sliderTrial","html-slider-response","144","765330","0.0-144.0","","656776a7904ae00d6b91d1dd","6568adf9ff7f646cd9137aec","10","","","","","","","","","","","","2008","[""SV_PolicingMSA/FL_4023/IMG_4_4023.jpg"",""SV_PolicingMSA/FL_4023/IMG_10_4023.jpg"",""SV_PolicingMSA/FL_4023/IMG_1_4023.jpg"",""SV_PolicingMSA/FL_4023/IMG_2_4023.jpg"",""SV_PolicingMSA/FL_4023/IMG_5_4023.jpg"",""SV_PolicingMSA/FL_4023/IMG_12_4023.jpg"",""SV_PolicingMSA/FL_4023/IMG_6_4023.jpg"",""SV_PolicingMSA/FL_4023/IMG_9_4023.jpg""]","5","","","","","","4","","4","[""./rc_img/cop_condGroup_14_SafeStreets_autoscaled.png"",""./rc_img/cop_condGroup_14_CommunitySafety_autoscaled.png""]","3","",""
"demographics","survey-html-form","145","775704","0.0-145.0","","656776a7904ae00d6b91d1dd","6568adf9ff7f646cd9137aec","10","","","","","","","","","","","","10373","","{""age"":""33"",""sex"":""female"",""gender"":""woman"",""gender-self-describe"":"""",""zipcode"":""04950""}","","","","","","","","","","","",""
"demographics-list","survey","146","789349","0.0-146.0","","656776a7904ae00d6b91d1dd","6568adf9ff7f646cd9137aec","10","","","","","","","","","","","","13611","","{""P0_Q0"":null,""race-ethnicity"":[""White or of European ancestry""],""education"":""Bachelor’s degree"",""P1_Q0"":null,""ideology"":""Conservative"",""P2_Q0"":null,""num-moves"":1,""P3_Q0"":null,""social-ladder"":7}","","","","","","","[]","","","","",""
"end-survey","survey-text","147","794689","0.0-147.0","","656776a7904ae00d6b91d1dd","6568adf9ff7f646cd9137aec","10","","","","","","","","","","","","5331","","{""Q0"":""no""}","","","","","","","","","","","","2"
"end-survey","html-button-response","148","797754","0.0-148.0","","656776a7904ae00d6b91d1dd","6568adf9ff7f646cd9137aec","10","","","","","","","","","","","","3063","
    You've reached the end of the survey. <br><br> 
    <b>Do not close or refresh this window.</b><br>
    On the next page, you will be automatically redirected to Prolific. <br><br>

    <div class=""alert alert-warning""><b>
    </div>
","0","","","","","","","","","","","",""
