"task","trial_type","trial_index","time_elapsed","internal_node_id","subject_id","study_id","session_id","section","width","height","webaudio","browser","browser_version","mobile","os","fullscreen","vsync_rate","webcam","microphone","rt","stimulus","response","success","timeout","failed_images","failed_audio","failed_video","block","accuracy","slider_start","choices","standardized_response","correct","num_attention_checks_correct"
"pavlovia-init","pavlovia","0","2048","0.0-0.0","","656776a7904ae00d6b91d1dd","6568af2615d37441c653cd27","2","","","","","","","","","","","","","","","","","","","","","","","","","",""
"browser-check","browser-check","1","4121","0.0-1.0","","656776a7904ae00d6b91d1dd","6568af2615d37441c653cd27","2","1366","617","true","chrome","92.0.4515","false","Chrome OS","true","61.07","true","true","","","","","","","","","","","","","","",""
"consent","html-button-response","2","10558","0.0-2.0","","656776a7904ae00d6b91d1dd","6568af2615d37441c653cd27","2","","","","","","","","","","","","6434","
        <div style=""font-size: 80%; max-width:700px"">
            <h2>CONSENT FORM</h2>
        
            <div style=""text-align: left"">
            <h4>DESCRIPTION</h4>
            <p>
            You will complete a short task where you give your impressions of various neighborhoods and assign individuals to those spaces, and answer some questions about your thoughts and opinions.<br>
            The University of Michigan Institutional Review Board Health Sciences and Behavioral Sciences has determined that this study is exempt from IRB oversight.
            </p>

            <h4>TIME INVOLVEMENT</h4>
            <p>Your participation will take approximately 15 minutes. You will receive $3.15 upon completion of the study.</p>
        
            <h4>RISKS AND BENEFITS</h4>
            <p>
            The risks associated with this study are minimal. The benefits which may reasonably be expected to result from this study are none. We cannot and do not guarantee or promise that you will receive any benefits from this study.
            </p>
          
            <h4>SUBJECT'S RIGHTS</h4>
            <p>
            If you have read this form and have decided to participate in this project, please understand your participation is voluntary and you have the right to withdraw your consent or discontinue participation at any time without penalty or loss of benefits to which you are otherwise entitled. The alternative is not to participate. You have the right to refuse to answer particular questions. Your individual privacy will be maintained in all published and written data resulting from the study.
            </p>

            <h4>HUMAN SUBJECT APPROVAL</h4>
            <p>
            This study is exempt from ongoing IRB review.
            </p>

            <h4>CONTACT INFORMATION</h4>
            If you have any questions, concerns or complaints about this research, its procedures, risks and benefits, contact the Protocol Director, Nicholas Camp, npcamp@umich.edu, (443) 851-6783. <br>

            If you have questions about your rights as a research participant, or wish to obtain information, ask questions or discuss any concerns about this study with someone other than the researcher(s), please contact the following:<br><br>
            University of Michigan<br>
            Health Sciences and Behavioral Sciences Institutional Review Board (IRB-HSBS)<br>
            2800 Plymouth Road<br>
            Building 520, Room 1169Ann Arbor, MI 48109-2800<br>
            Telephone: 734-936-0933 or toll free (866) 936-0933<br>
            Fax: 734-936-1852<br>
            E-mail: irbhsbs@umich.edu<br><br>

            You can also contact the University of Michigan Compliance Hotline at 1-866-990-0111. You may also print this consent form to keep.
            <br><br>
            <div class=""alert alert-warning""><b>
            Do you consent to participate in this study? If you consent to participate in this study, please click “Accept and Continue”. If you select ""Decline and Exit"", you will be exited from the survey. <br>
            </b></div>
            </div>
        </div>
    ","1","","","","","","","","","","","",""
"","preload","3","17584","0.0-3.0","","656776a7904ae00d6b91d1dd","6568af2615d37441c653cd27","2","","","","","","","","","","","","","","","true","false","[]","[]","[]","","","","","","",""
"instructions","html-button-response","4","25678","0.0-4.0","","656776a7904ae00d6b91d1dd","6568af2615d37441c653cd27","2","","","","","","","","","","","","8092","
        <div class=""text-container"">
        <h1>Welcome to the study!</h1>
        
        <div class=""text-left"">
            <p>
                In this study, we are interested in what people can tell about spaces from Google Street View images. <br> Google Street View takes pictures of streets used for Google Earth and Google Maps. <br>You’ll see Google Street View images of different places and answer some questions about each one.<br>
            </p>
        </div>
        <img src = ""assets/img/example.png"" width = 500px, height = auto>
        <br>
    <br>
    ","0","","","","","","","","","","","",""
"instructions","html-button-response","5","34010","0.0-5.0","","656776a7904ae00d6b91d1dd","6568af2615d37441c653cd27","2","","","","","","","","","","","","8330","
    <div class=""text-container"">
        <div class=""text-center"">
            <p>Please remember that your answers are completely anonymous.<br>Go with your gut response- there are no right or wrong answers!</p>
        </div>
    <br>
","0","","","","","","","","","","","",""
"before_SVSlide_prompt","html-button-response","6","49677","0.0-6.0","","656776a7904ae00d6b91d1dd","6568af2615d37441c653cd27","2","","","","","","","","","","","","15666","Click [Next] to see the next neighborhood!","0","","","","","","","","","","","",""
"street view slide show","image-button-response","7","50695","0.0-7.0","","656776a7904ae00d6b91d1dd","6568af2615d37441c653cd27","2","","","","","","","","","","","","null","stimulus/SV_PolicingMSA/LA_599/IMG_2_599.jpg","null","","","","","","3","","","","","",""
"street view slide show","image-button-response","8","51698","0.0-8.0","","656776a7904ae00d6b91d1dd","6568af2615d37441c653cd27","2","","","","","","","","","","","","null","stimulus/SV_PolicingMSA/LA_599/IMG_4_599.jpg","null","","","","","","3","","","","","",""
"street view slide show","image-button-response","9","52701","0.0-9.0","","656776a7904ae00d6b91d1dd","6568af2615d37441c653cd27","2","","","","","","","","","","","","null","stimulus/SV_PolicingMSA/LA_599/IMG_1_599.jpg","null","","","","","","3","","","","","",""
"street view slide show","image-button-response","10","53704","0.0-10.0","","656776a7904ae00d6b91d1dd","6568af2615d37441c653cd27","2","","","","","","","","","","","","null","stimulus/SV_PolicingMSA/LA_599/IMG_9_599.jpg","null","","","","","","3","","","","","",""
"street view slide show","image-button-response","11","54706","0.0-11.0","","656776a7904ae00d6b91d1dd","6568af2615d37441c653cd27","2","","","","","","","","","","","","null","stimulus/SV_PolicingMSA/LA_599/IMG_11_599.jpg","null","","","","","","3","","","","","",""
"street view slide show","image-button-response","12","55708","0.0-12.0","","656776a7904ae00d6b91d1dd","6568af2615d37441c653cd27","2","","","","","","","","","","","","null","stimulus/SV_PolicingMSA/LA_599/IMG_3_599.jpg","null","","","","","","3","","","","","",""
"street view slide show","image-button-response","13","56711","0.0-13.0","","656776a7904ae00d6b91d1dd","6568af2615d37441c653cd27","2","","","","","","","","","","","","null","stimulus/SV_PolicingMSA/LA_599/IMG_5_599.jpg","null","","","","","","3","","","","","",""
"street view slide show","image-button-response","14","57714","0.0-14.0","","656776a7904ae00d6b91d1dd","6568af2615d37441c653cd27","2","","","","","","","","","","","","null","stimulus/SV_PolicingMSA/LA_599/IMG_8_599.jpg","null","","","","","","3","","","","","",""
"dot matrix survey1","survey","15","79188","0.0-15.0","","656776a7904ae00d6b91d1dd","6568af2615d37441c653cd27","2","","","","","","","","","","","","21367","","{""P0_Q0"":null,""P0_Q1"":{""wealthy"":1,""safe"":3,""walkable"":2,""traditional"":2,""diverse"":1}}","","","","","","3","[]","","","","",""
"dot matrix survey2","survey","16","97600","0.0-16.0","","656776a7904ae00d6b91d1dd","6568af2615d37441c653cd27","2","","","","","","","","","","","","18378","","{""P0_Q0"":null,""P0_Q1"":{""violence"":1,""crime"":1,""drug"":2,""schools"":2,""opportunities"":2}}","","","","","","3","[]","","","","",""
"dot matrix survey3","survey","17","123353","0.0-17.0","","656776a7904ae00d6b91d1dd","6568af2615d37441c653cd27","2","","","","","","","","","","","","25733","","{""P0_Q0"":null,""P0_Q1"":{""movein"":3,""moveout"":2,""shopping"":2,""walk"":2,""park"":2,""school"":2}}","","","","","","3","[]","","","","",""
"sliderTrial","html-slider-response","18","136999","0.0-18.0","","656776a7904ae00d6b91d1dd","6568af2615d37441c653cd27","2","","","","","","","","","","","","13641","[""SV_PolicingMSA/LA_599/IMG_2_599.jpg"",""SV_PolicingMSA/LA_599/IMG_4_599.jpg"",""SV_PolicingMSA/LA_599/IMG_1_599.jpg"",""SV_PolicingMSA/LA_599/IMG_9_599.jpg"",""SV_PolicingMSA/LA_599/IMG_11_599.jpg"",""SV_PolicingMSA/LA_599/IMG_3_599.jpg"",""SV_PolicingMSA/LA_599/IMG_5_599.jpg"",""SV_PolicingMSA/LA_599/IMG_8_599.jpg""]","4","","","","","","3","","4","[""./rc_img/cop_condGroup_6_SafeStreets_autoscaled.png"",""./rc_img/cop_condGroup_6_CommunitySafety_autoscaled.png""]","4","",""
"sliderTrial","html-slider-response","19","144847","0.0-19.0","","656776a7904ae00d6b91d1dd","6568af2615d37441c653cd27","2","","","","","","","","","","","","7844","[""SV_PolicingMSA/LA_599/IMG_2_599.jpg"",""SV_PolicingMSA/LA_599/IMG_4_599.jpg"",""SV_PolicingMSA/LA_599/IMG_1_599.jpg"",""SV_PolicingMSA/LA_599/IMG_9_599.jpg"",""SV_PolicingMSA/LA_599/IMG_11_599.jpg"",""SV_PolicingMSA/LA_599/IMG_3_599.jpg"",""SV_PolicingMSA/LA_599/IMG_5_599.jpg"",""SV_PolicingMSA/LA_599/IMG_8_599.jpg""]","4","","","","","","3","","4","[""./rc_img/cop_condGroup_20_SafeStreets_autoscaled.png"",""./rc_img/cop_condGroup_20_CommunitySafety_autoscaled.png""]","4","",""
"sliderTrial","html-slider-response","20","150242","0.0-20.0","","656776a7904ae00d6b91d1dd","6568af2615d37441c653cd27","2","","","","","","","","","","","","5391","[""SV_PolicingMSA/LA_599/IMG_2_599.jpg"",""SV_PolicingMSA/LA_599/IMG_4_599.jpg"",""SV_PolicingMSA/LA_599/IMG_1_599.jpg"",""SV_PolicingMSA/LA_599/IMG_9_599.jpg"",""SV_PolicingMSA/LA_599/IMG_11_599.jpg"",""SV_PolicingMSA/LA_599/IMG_3_599.jpg"",""SV_PolicingMSA/LA_599/IMG_5_599.jpg"",""SV_PolicingMSA/LA_599/IMG_8_599.jpg""]","4","","","","","","3","","4","[""./rc_img/cop_condGroup_12_CommunitySafety_autoscaled.png"",""./rc_img/cop_condGroup_12_SafeStreets_autoscaled.png""]","4","",""
"sliderTrial","html-slider-response","21","158681","0.0-21.0","","656776a7904ae00d6b91d1dd","6568af2615d37441c653cd27","2","","","","","","","","","","","","8434","[""SV_PolicingMSA/LA_599/IMG_2_599.jpg"",""SV_PolicingMSA/LA_599/IMG_4_599.jpg"",""SV_PolicingMSA/LA_599/IMG_1_599.jpg"",""SV_PolicingMSA/LA_599/IMG_9_599.jpg"",""SV_PolicingMSA/LA_599/IMG_11_599.jpg"",""SV_PolicingMSA/LA_599/IMG_3_599.jpg"",""SV_PolicingMSA/LA_599/IMG_5_599.jpg"",""SV_PolicingMSA/LA_599/IMG_8_599.jpg""]","4","","","","","","3","","4","[""./rc_img/cop_condGroup_13_SafeStreets_autoscaled.png"",""./rc_img/cop_condGroup_13_CommunitySafety_autoscaled.png""]","4","",""
"sliderTrial","html-slider-response","22","161981","0.0-22.0","","656776a7904ae00d6b91d1dd","6568af2615d37441c653cd27","2","","","","","","","","","","","","3296","[""SV_PolicingMSA/LA_599/IMG_2_599.jpg"",""SV_PolicingMSA/LA_599/IMG_4_599.jpg"",""SV_PolicingMSA/LA_599/IMG_1_599.jpg"",""SV_PolicingMSA/LA_599/IMG_9_599.jpg"",""SV_PolicingMSA/LA_599/IMG_11_599.jpg"",""SV_PolicingMSA/LA_599/IMG_3_599.jpg"",""SV_PolicingMSA/LA_599/IMG_5_599.jpg"",""SV_PolicingMSA/LA_599/IMG_8_599.jpg""]","4","","","","","","3","","4","[""./rc_img/cop_condGroup_9_CommunitySafety_autoscaled.png"",""./rc_img/cop_condGroup_9_SafeStreets_autoscaled.png""]","4","",""
"before_SVSlide_prompt","html-button-response","23","163353","0.0-23.0","","656776a7904ae00d6b91d1dd","6568af2615d37441c653cd27","2","","","","","","","","","","","","1368","Click [Next] to see the next neighborhood!","0","","","","","","","","","","","",""
"street view slide show","image-button-response","24","164358","0.0-24.0","","656776a7904ae00d6b91d1dd","6568af2615d37441c653cd27","2","","","","","","","","","","","","null","stimulus/SV_PolicingMSA/LA_55/IMG_2_55.jpg","null","","","","","","0","","","","","",""
"street view slide show","image-button-response","25","165360","0.0-25.0","","656776a7904ae00d6b91d1dd","6568af2615d37441c653cd27","2","","","","","","","","","","","","null","stimulus/SV_PolicingMSA/LA_55/IMG_0_55.jpg","null","","","","","","0","","","","","",""
"street view slide show","image-button-response","26","166371","0.0-26.0","","656776a7904ae00d6b91d1dd","6568af2615d37441c653cd27","2","","","","","","","","","","","","null","stimulus/SV_PolicingMSA/LA_55/IMG_14_55.jpg","null","","","","","","0","","","","","",""
"street view slide show","image-button-response","27","167375","0.0-27.0","","656776a7904ae00d6b91d1dd","6568af2615d37441c653cd27","2","","","","","","","","","","","","null","stimulus/SV_PolicingMSA/LA_55/IMG_3_55.jpg","null","","","","","","0","","","","","",""
"street view slide show","image-button-response","28","168377","0.0-28.0","","656776a7904ae00d6b91d1dd","6568af2615d37441c653cd27","2","","","","","","","","","","","","null","stimulus/SV_PolicingMSA/LA_55/IMG_8_55.jpg","null","","","","","","0","","","","","",""
"street view slide show","image-button-response","29","169379","0.0-29.0","","656776a7904ae00d6b91d1dd","6568af2615d37441c653cd27","2","","","","","","","","","","","","null","stimulus/SV_PolicingMSA/LA_55/IMG_10_55.jpg","null","","","","","","0","","","","","",""
"street view slide show","image-button-response","30","170381","0.0-30.0","","656776a7904ae00d6b91d1dd","6568af2615d37441c653cd27","2","","","","","","","","","","","","null","stimulus/SV_PolicingMSA/LA_55/IMG_9_55.jpg","null","","","","","","0","","","","","",""
"street view slide show","image-button-response","31","171383","0.0-31.0","","656776a7904ae00d6b91d1dd","6568af2615d37441c653cd27","2","","","","","","","","","","","","null","stimulus/SV_PolicingMSA/LA_55/IMG_4_55.jpg","null","","","","","","0","","","","","",""
"dot matrix survey1","survey","32","183986","0.0-32.0","","656776a7904ae00d6b91d1dd","6568af2615d37441c653cd27","2","","","","","","","","","","","","12583","","{""P0_Q0"":null,""P0_Q1"":{""wealthy"":1,""safe"":2,""walkable"":1,""traditional"":2,""diverse"":2}}","","","","","","0","[]","","","","",""
"dot matrix survey2","survey","33","196421","0.0-33.0","","656776a7904ae00d6b91d1dd","6568af2615d37441c653cd27","2","","","","","","","","","","","","12410","","{""P0_Q0"":null,""P0_Q1"":{""violence"":2,""crime"":2,""drug"":2,""schools"":1,""opportunities"":1}}","","","","","","0","[]","","","","",""
"dot matrix survey3","survey","34","211919","0.0-34.0","","656776a7904ae00d6b91d1dd","6568af2615d37441c653cd27","2","","","","","","","","","","","","15479","","{""P0_Q0"":null,""P0_Q1"":{""movein"":1,""moveout"":3,""shopping"":1,""walk"":1,""park"":1,""school"":1}}","","","","","","0","[]","","","","",""
"sliderTrial","html-slider-response","35","215401","0.0-35.0","","656776a7904ae00d6b91d1dd","6568af2615d37441c653cd27","2","","","","","","","","","","","","3477","[""SV_PolicingMSA/LA_55/IMG_2_55.jpg"",""SV_PolicingMSA/LA_55/IMG_0_55.jpg"",""SV_PolicingMSA/LA_55/IMG_14_55.jpg"",""SV_PolicingMSA/LA_55/IMG_3_55.jpg"",""SV_PolicingMSA/LA_55/IMG_8_55.jpg"",""SV_PolicingMSA/LA_55/IMG_10_55.jpg"",""SV_PolicingMSA/LA_55/IMG_9_55.jpg"",""SV_PolicingMSA/LA_55/IMG_4_55.jpg""]","4","","","","","","0","","4","[""./rc_img/cop_condGroup_5_CommunitySafety_autoscaled.png"",""./rc_img/cop_condGroup_5_SafeStreets_autoscaled.png""]","4","",""
"sliderTrial_attention","html-slider-response","36","225405","0.0-36.0","","656776a7904ae00d6b91d1dd","6568af2615d37441c653cd27","2","","","","","","","","","","","","null","[""SV_PolicingMSA/LA_55/IMG_2_55.jpg"",""SV_PolicingMSA/LA_55/IMG_0_55.jpg"",""SV_PolicingMSA/LA_55/IMG_14_55.jpg"",""SV_PolicingMSA/LA_55/IMG_3_55.jpg"",""SV_PolicingMSA/LA_55/IMG_8_55.jpg"",""SV_PolicingMSA/LA_55/IMG_10_55.jpg"",""SV_PolicingMSA/LA_55/IMG_9_55.jpg"",""SV_PolicingMSA/LA_55/IMG_4_55.jpg""]","null","","","","","","0","","4","[""./assets/img/attnchk.png"",""./assets/img/attnchk.png""]","","true",""
"sliderTrial","html-slider-response","37","230382","0.0-37.0","","656776a7904ae00d6b91d1dd","6568af2615d37441c653cd27","2","","","","","","","","","","","","4973","[""SV_PolicingMSA/LA_55/IMG_2_55.jpg"",""SV_PolicingMSA/LA_55/IMG_0_55.jpg"",""SV_PolicingMSA/LA_55/IMG_14_55.jpg"",""SV_PolicingMSA/LA_55/IMG_3_55.jpg"",""SV_PolicingMSA/LA_55/IMG_8_55.jpg"",""SV_PolicingMSA/LA_55/IMG_10_55.jpg"",""SV_PolicingMSA/LA_55/IMG_9_55.jpg"",""SV_PolicingMSA/LA_55/IMG_4_55.jpg""]","4","","","","","","0","","4","[""./rc_img/cop_condGroup_15_SafeStreets_autoscaled.png"",""./rc_img/cop_condGroup_15_CommunitySafety_autoscaled.png""]","4","",""
"sliderTrial","html-slider-response","38","234691","0.0-38.0","","656776a7904ae00d6b91d1dd","6568af2615d37441c653cd27","2","","","","","","","","","","","","4305","[""SV_PolicingMSA/LA_55/IMG_2_55.jpg"",""SV_PolicingMSA/LA_55/IMG_0_55.jpg"",""SV_PolicingMSA/LA_55/IMG_14_55.jpg"",""SV_PolicingMSA/LA_55/IMG_3_55.jpg"",""SV_PolicingMSA/LA_55/IMG_8_55.jpg"",""SV_PolicingMSA/LA_55/IMG_10_55.jpg"",""SV_PolicingMSA/LA_55/IMG_9_55.jpg"",""SV_PolicingMSA/LA_55/IMG_4_55.jpg""]","5","","","","","","0","","4","[""./rc_img/cop_condGroup_18_SafeStreets_autoscaled.png"",""./rc_img/cop_condGroup_18_CommunitySafety_autoscaled.png""]","3","",""
"sliderTrial","html-slider-response","39","237193","0.0-39.0","","656776a7904ae00d6b91d1dd","6568af2615d37441c653cd27","2","","","","","","","","","","","","2498","[""SV_PolicingMSA/LA_55/IMG_2_55.jpg"",""SV_PolicingMSA/LA_55/IMG_0_55.jpg"",""SV_PolicingMSA/LA_55/IMG_14_55.jpg"",""SV_PolicingMSA/LA_55/IMG_3_55.jpg"",""SV_PolicingMSA/LA_55/IMG_8_55.jpg"",""SV_PolicingMSA/LA_55/IMG_10_55.jpg"",""SV_PolicingMSA/LA_55/IMG_9_55.jpg"",""SV_PolicingMSA/LA_55/IMG_4_55.jpg""]","4","","","","","","0","","4","[""./rc_img/cop_condGroup_19_CommunitySafety_autoscaled.png"",""./rc_img/cop_condGroup_19_SafeStreets_autoscaled.png""]","4","",""
"sliderTrial","html-slider-response","40","240569","0.0-40.0","","656776a7904ae00d6b91d1dd","6568af2615d37441c653cd27","2","","","","","","","","","","","","3372","[""SV_PolicingMSA/LA_55/IMG_2_55.jpg"",""SV_PolicingMSA/LA_55/IMG_0_55.jpg"",""SV_PolicingMSA/LA_55/IMG_14_55.jpg"",""SV_PolicingMSA/LA_55/IMG_3_55.jpg"",""SV_PolicingMSA/LA_55/IMG_8_55.jpg"",""SV_PolicingMSA/LA_55/IMG_10_55.jpg"",""SV_PolicingMSA/LA_55/IMG_9_55.jpg"",""SV_PolicingMSA/LA_55/IMG_4_55.jpg""]","4","","","","","","0","","4","[""./rc_img/cop_condGroup_16_SafeStreets_autoscaled.png"",""./rc_img/cop_condGroup_16_CommunitySafety_autoscaled.png""]","4","",""
"before_SVSlide_prompt","html-button-response","41","241989","0.0-41.0","","656776a7904ae00d6b91d1dd","6568af2615d37441c653cd27","2","","","","","","","","","","","","1417","Click [Next] to see the next neighborhood!","0","","","","","","","","","","","",""
"street view slide show","image-button-response","42","242992","0.0-42.0","","656776a7904ae00d6b91d1dd","6568af2615d37441c653cd27","2","","","","","","","","","","","","null","stimulus/SV_PolicingMSA/LA_438/IMG_10_438.jpg","null","","","","","","4","","","","","",""
"street view slide show","image-button-response","43","243995","0.0-43.0","","656776a7904ae00d6b91d1dd","6568af2615d37441c653cd27","2","","","","","","","","","","","","null","stimulus/SV_PolicingMSA/LA_438/IMG_11_438.jpg","null","","","","","","4","","","","","",""
"street view slide show","image-button-response","44","244998","0.0-44.0","","656776a7904ae00d6b91d1dd","6568af2615d37441c653cd27","2","","","","","","","","","","","","null","stimulus/SV_PolicingMSA/LA_438/IMG_14_438.jpg","null","","","","","","4","","","","","",""
"street view slide show","image-button-response","45","246000","0.0-45.0","","656776a7904ae00d6b91d1dd","6568af2615d37441c653cd27","2","","","","","","","","","","","","null","stimulus/SV_PolicingMSA/LA_438/IMG_9_438.jpg","null","","","","","","4","","","","","",""
"street view slide show","image-button-response","46","247002","0.0-46.0","","656776a7904ae00d6b91d1dd","6568af2615d37441c653cd27","2","","","","","","","","","","","","null","stimulus/SV_PolicingMSA/LA_438/IMG_8_438.jpg","null","","","","","","4","","","","","",""
"street view slide show","image-button-response","47","248004","0.0-47.0","","656776a7904ae00d6b91d1dd","6568af2615d37441c653cd27","2","","","","","","","","","","","","null","stimulus/SV_PolicingMSA/LA_438/IMG_0_438.jpg","null","","","","","","4","","","","","",""
"street view slide show","image-button-response","48","249006","0.0-48.0","","656776a7904ae00d6b91d1dd","6568af2615d37441c653cd27","2","","","","","","","","","","","","null","stimulus/SV_PolicingMSA/LA_438/IMG_6_438.jpg","null","","","","","","4","","","","","",""
"street view slide show","image-button-response","49","250009","0.0-49.0","","656776a7904ae00d6b91d1dd","6568af2615d37441c653cd27","2","","","","","","","","","","","","null","stimulus/SV_PolicingMSA/LA_438/IMG_3_438.jpg","null","","","","","","4","","","","","",""
"dot matrix survey1","survey","50","261679","0.0-50.0","","656776a7904ae00d6b91d1dd","6568af2615d37441c653cd27","2","","","","","","","","","","","","11631","","{""P0_Q0"":null,""P0_Q1"":{""wealthy"":3,""safe"":4,""walkable"":1,""traditional"":2,""diverse"":1}}","","","","","","4","[]","","","","",""
"dot matrix survey2","survey","51","273810","0.0-51.0","","656776a7904ae00d6b91d1dd","6568af2615d37441c653cd27","2","","","","","","","","","","","","12111","","{""P0_Q0"":null,""P0_Q1"":{""violence"":0,""crime"":1,""drug"":1,""schools"":3,""opportunities"":3}}","","","","","","4","[]","","","","",""
"dot matrix survey3","survey","52","288929","0.0-52.0","","656776a7904ae00d6b91d1dd","6568af2615d37441c653cd27","2","","","","","","","","","","","","15100","","{""P0_Q0"":null,""P0_Q1"":{""movein"":4,""moveout"":1,""shopping"":3,""walk"":4,""park"":3,""school"":4}}","","","","","","4","[]","","","","",""
"sliderTrial","html-slider-response","53","292152","0.0-53.0","","656776a7904ae00d6b91d1dd","6568af2615d37441c653cd27","2","","","","","","","","","","","","3219","[""SV_PolicingMSA/LA_438/IMG_10_438.jpg"",""SV_PolicingMSA/LA_438/IMG_11_438.jpg"",""SV_PolicingMSA/LA_438/IMG_14_438.jpg"",""SV_PolicingMSA/LA_438/IMG_9_438.jpg"",""SV_PolicingMSA/LA_438/IMG_8_438.jpg"",""SV_PolicingMSA/LA_438/IMG_0_438.jpg"",""SV_PolicingMSA/LA_438/IMG_6_438.jpg"",""SV_PolicingMSA/LA_438/IMG_3_438.jpg""]","4","","","","","","4","","4","[""./rc_img/cop_condGroup_14_SafeStreets_autoscaled.png"",""./rc_img/cop_condGroup_14_CommunitySafety_autoscaled.png""]","4","",""
"sliderTrial","html-slider-response","54","294495","0.0-54.0","","656776a7904ae00d6b91d1dd","6568af2615d37441c653cd27","2","","","","","","","","","","","","2339","[""SV_PolicingMSA/LA_438/IMG_10_438.jpg"",""SV_PolicingMSA/LA_438/IMG_11_438.jpg"",""SV_PolicingMSA/LA_438/IMG_14_438.jpg"",""SV_PolicingMSA/LA_438/IMG_9_438.jpg"",""SV_PolicingMSA/LA_438/IMG_8_438.jpg"",""SV_PolicingMSA/LA_438/IMG_0_438.jpg"",""SV_PolicingMSA/LA_438/IMG_6_438.jpg"",""SV_PolicingMSA/LA_438/IMG_3_438.jpg""]","4","","","","","","4","","4","[""./rc_img/cop_condGroup_17_SafeStreets_autoscaled.png"",""./rc_img/cop_condGroup_17_CommunitySafety_autoscaled.png""]","4","",""
"sliderTrial","html-slider-response","55","297811","0.0-55.0","","656776a7904ae00d6b91d1dd","6568af2615d37441c653cd27","2","","","","","","","","","","","","3312","[""SV_PolicingMSA/LA_438/IMG_10_438.jpg"",""SV_PolicingMSA/LA_438/IMG_11_438.jpg"",""SV_PolicingMSA/LA_438/IMG_14_438.jpg"",""SV_PolicingMSA/LA_438/IMG_9_438.jpg"",""SV_PolicingMSA/LA_438/IMG_8_438.jpg"",""SV_PolicingMSA/LA_438/IMG_0_438.jpg"",""SV_PolicingMSA/LA_438/IMG_6_438.jpg"",""SV_PolicingMSA/LA_438/IMG_3_438.jpg""]","4","","","","","","4","","4","[""./rc_img/cop_condGroup_8_SafeStreets_autoscaled.png"",""./rc_img/cop_condGroup_8_CommunitySafety_autoscaled.png""]","4","",""
"sliderTrial","html-slider-response","56","301653","0.0-56.0","","656776a7904ae00d6b91d1dd","6568af2615d37441c653cd27","2","","","","","","","","","","","","3838","[""SV_PolicingMSA/LA_438/IMG_10_438.jpg"",""SV_PolicingMSA/LA_438/IMG_11_438.jpg"",""SV_PolicingMSA/LA_438/IMG_14_438.jpg"",""SV_PolicingMSA/LA_438/IMG_9_438.jpg"",""SV_PolicingMSA/LA_438/IMG_8_438.jpg"",""SV_PolicingMSA/LA_438/IMG_0_438.jpg"",""SV_PolicingMSA/LA_438/IMG_6_438.jpg"",""SV_PolicingMSA/LA_438/IMG_3_438.jpg""]","4","","","","","","4","","4","[""./rc_img/cop_condGroup_1_SafeStreets_autoscaled.png"",""./rc_img/cop_condGroup_1_CommunitySafety_autoscaled.png""]","4","",""
"sliderTrial","html-slider-response","57","305387","0.0-57.0","","656776a7904ae00d6b91d1dd","6568af2615d37441c653cd27","2","","","","","","","","","","","","3730","[""SV_PolicingMSA/LA_438/IMG_10_438.jpg"",""SV_PolicingMSA/LA_438/IMG_11_438.jpg"",""SV_PolicingMSA/LA_438/IMG_14_438.jpg"",""SV_PolicingMSA/LA_438/IMG_9_438.jpg"",""SV_PolicingMSA/LA_438/IMG_8_438.jpg"",""SV_PolicingMSA/LA_438/IMG_0_438.jpg"",""SV_PolicingMSA/LA_438/IMG_6_438.jpg"",""SV_PolicingMSA/LA_438/IMG_3_438.jpg""]","4","","","","","","4","","4","[""./rc_img/cop_condGroup_4_SafeStreets_autoscaled.png"",""./rc_img/cop_condGroup_4_CommunitySafety_autoscaled.png""]","4","",""
"before_SVSlide_prompt","html-button-response","58","307184","0.0-58.0","","656776a7904ae00d6b91d1dd","6568af2615d37441c653cd27","2","","","","","","","","","","","","1795","Click [Next] to see the next neighborhood!","0","","","","","","","","","","","",""
"street view slide show","image-button-response","59","308187","0.0-59.0","","656776a7904ae00d6b91d1dd","6568af2615d37441c653cd27","2","","","","","","","","","","","","null","stimulus/SV_PolicingMSA/LA_546/IMG_11_546.jpg","null","","","","","","1","","","","","",""
"street view slide show","image-button-response","60","309189","0.0-60.0","","656776a7904ae00d6b91d1dd","6568af2615d37441c653cd27","2","","","","","","","","","","","","null","stimulus/SV_PolicingMSA/LA_546/IMG_9_546.jpg","null","","","","","","1","","","","","",""
"street view slide show","image-button-response","61","310192","0.0-61.0","","656776a7904ae00d6b91d1dd","6568af2615d37441c653cd27","2","","","","","","","","","","","","null","stimulus/SV_PolicingMSA/LA_546/IMG_2_546.jpg","null","","","","","","1","","","","","",""
"street view slide show","image-button-response","62","311195","0.0-62.0","","656776a7904ae00d6b91d1dd","6568af2615d37441c653cd27","2","","","","","","","","","","","","null","stimulus/SV_PolicingMSA/LA_546/IMG_3_546.jpg","null","","","","","","1","","","","","",""
"street view slide show","image-button-response","63","312197","0.0-63.0","","656776a7904ae00d6b91d1dd","6568af2615d37441c653cd27","2","","","","","","","","","","","","null","stimulus/SV_PolicingMSA/LA_546/IMG_6_546.jpg","null","","","","","","1","","","","","",""
"street view slide show","image-button-response","64","313200","0.0-64.0","","656776a7904ae00d6b91d1dd","6568af2615d37441c653cd27","2","","","","","","","","","","","","null","stimulus/SV_PolicingMSA/LA_546/IMG_13_546.jpg","null","","","","","","1","","","","","",""
"street view slide show","image-button-response","65","314202","0.0-65.0","","656776a7904ae00d6b91d1dd","6568af2615d37441c653cd27","2","","","","","","","","","","","","null","stimulus/SV_PolicingMSA/LA_546/IMG_1_546.jpg","null","","","","","","1","","","","","",""
"street view slide show","image-button-response","66","315204","0.0-66.0","","656776a7904ae00d6b91d1dd","6568af2615d37441c653cd27","2","","","","","","","","","","","","null","stimulus/SV_PolicingMSA/LA_546/IMG_14_546.jpg","null","","","","","","1","","","","","",""
"dot matrix survey1","survey","67","325194","0.0-67.0","","656776a7904ae00d6b91d1dd","6568af2615d37441c653cd27","2","","","","","","","","","","","","9948","","{""P0_Q0"":null,""P0_Q1"":{""wealthy"":0,""safe"":1,""walkable"":1,""traditional"":2,""diverse"":1}}","","","","","","1","[]","","","","",""
"dot matrix survey2","survey","68","335834","0.0-68.0","","656776a7904ae00d6b91d1dd","6568af2615d37441c653cd27","2","","","","","","","","","","","","10623","","{""P0_Q0"":null,""P0_Q1"":{""violence"":3,""crime"":3,""drug"":4,""schools"":1,""opportunities"":0}}","","","","","","1","[]","","","","",""
"dot matrix survey3","survey","69","347224","0.0-69.0","","656776a7904ae00d6b91d1dd","6568af2615d37441c653cd27","2","","","","","","","","","","","","11370","","{""P0_Q0"":null,""P0_Q1"":{""movein"":0,""moveout"":3,""shopping"":1,""walk"":1,""park"":1,""school"":0}}","","","","","","1","[]","","","","",""
"sliderTrial","html-slider-response","70","350854","0.0-70.0","","656776a7904ae00d6b91d1dd","6568af2615d37441c653cd27","2","","","","","","","","","","","","3626","[""SV_PolicingMSA/LA_546/IMG_11_546.jpg"",""SV_PolicingMSA/LA_546/IMG_9_546.jpg"",""SV_PolicingMSA/LA_546/IMG_2_546.jpg"",""SV_PolicingMSA/LA_546/IMG_3_546.jpg"",""SV_PolicingMSA/LA_546/IMG_6_546.jpg"",""SV_PolicingMSA/LA_546/IMG_13_546.jpg"",""SV_PolicingMSA/LA_546/IMG_1_546.jpg"",""SV_PolicingMSA/LA_546/IMG_14_546.jpg""]","4","","","","","","1","","4","[""./rc_img/cop_condGroup_3_CommunitySafety_autoscaled.png"",""./rc_img/cop_condGroup_3_SafeStreets_autoscaled.png""]","4","",""
"sliderTrial_attention","html-slider-response","71","360858","0.0-71.0","","656776a7904ae00d6b91d1dd","6568af2615d37441c653cd27","2","","","","","","","","","","","","null","[""SV_PolicingMSA/LA_546/IMG_11_546.jpg"",""SV_PolicingMSA/LA_546/IMG_9_546.jpg"",""SV_PolicingMSA/LA_546/IMG_2_546.jpg"",""SV_PolicingMSA/LA_546/IMG_3_546.jpg"",""SV_PolicingMSA/LA_546/IMG_6_546.jpg"",""SV_PolicingMSA/LA_546/IMG_13_546.jpg"",""SV_PolicingMSA/LA_546/IMG_1_546.jpg"",""SV_PolicingMSA/LA_546/IMG_14_546.jpg""]","null","","","","","","1","","4","[""./assets/img/attnchk.png"",""./assets/img/attnchk.png""]","","true",""
"sliderTrial","html-slider-response","72","364924","0.0-72.0","","656776a7904ae00d6b91d1dd","6568af2615d37441c653cd27","2","","","","","","","","","","","","4062","[""SV_PolicingMSA/LA_546/IMG_11_546.jpg"",""SV_PolicingMSA/LA_546/IMG_9_546.jpg"",""SV_PolicingMSA/LA_546/IMG_2_546.jpg"",""SV_PolicingMSA/LA_546/IMG_3_546.jpg"",""SV_PolicingMSA/LA_546/IMG_6_546.jpg"",""SV_PolicingMSA/LA_546/IMG_13_546.jpg"",""SV_PolicingMSA/LA_546/IMG_1_546.jpg"",""SV_PolicingMSA/LA_546/IMG_14_546.jpg""]","4","","","","","","1","","4","[""./rc_img/cop_condGroup_10_CommunitySafety_autoscaled.png"",""./rc_img/cop_condGroup_10_SafeStreets_autoscaled.png""]","4","",""
"sliderTrial","html-slider-response","73","369508","0.0-73.0","","656776a7904ae00d6b91d1dd","6568af2615d37441c653cd27","2","","","","","","","","","","","","4580","[""SV_PolicingMSA/LA_546/IMG_11_546.jpg"",""SV_PolicingMSA/LA_546/IMG_9_546.jpg"",""SV_PolicingMSA/LA_546/IMG_2_546.jpg"",""SV_PolicingMSA/LA_546/IMG_3_546.jpg"",""SV_PolicingMSA/LA_546/IMG_6_546.jpg"",""SV_PolicingMSA/LA_546/IMG_13_546.jpg"",""SV_PolicingMSA/LA_546/IMG_1_546.jpg"",""SV_PolicingMSA/LA_546/IMG_14_546.jpg""]","4","","","","","","1","","4","[""./rc_img/cop_condGroup_7_CommunitySafety_autoscaled.png"",""./rc_img/cop_condGroup_7_SafeStreets_autoscaled.png""]","4","",""
"sliderTrial","html-slider-response","74","373637","0.0-74.0","","656776a7904ae00d6b91d1dd","6568af2615d37441c653cd27","2","","","","","","","","","","","","4125","[""SV_PolicingMSA/LA_546/IMG_11_546.jpg"",""SV_PolicingMSA/LA_546/IMG_9_546.jpg"",""SV_PolicingMSA/LA_546/IMG_2_546.jpg"",""SV_PolicingMSA/LA_546/IMG_3_546.jpg"",""SV_PolicingMSA/LA_546/IMG_6_546.jpg"",""SV_PolicingMSA/LA_546/IMG_13_546.jpg"",""SV_PolicingMSA/LA_546/IMG_1_546.jpg"",""SV_PolicingMSA/LA_546/IMG_14_546.jpg""]","4","","","","","","1","","4","[""./rc_img/cop_condGroup_11_CommunitySafety_autoscaled.png"",""./rc_img/cop_condGroup_11_SafeStreets_autoscaled.png""]","4","",""
"sliderTrial","html-slider-response","75","376972","0.0-75.0","","656776a7904ae00d6b91d1dd","6568af2615d37441c653cd27","2","","","","","","","","","","","","3331","[""SV_PolicingMSA/LA_546/IMG_11_546.jpg"",""SV_PolicingMSA/LA_546/IMG_9_546.jpg"",""SV_PolicingMSA/LA_546/IMG_2_546.jpg"",""SV_PolicingMSA/LA_546/IMG_3_546.jpg"",""SV_PolicingMSA/LA_546/IMG_6_546.jpg"",""SV_PolicingMSA/LA_546/IMG_13_546.jpg"",""SV_PolicingMSA/LA_546/IMG_1_546.jpg"",""SV_PolicingMSA/LA_546/IMG_14_546.jpg""]","4","","","","","","1","","4","[""./rc_img/cop_condGroup_2_CommunitySafety_autoscaled.png"",""./rc_img/cop_condGroup_2_SafeStreets_autoscaled.png""]","4","",""
"half-way","html-button-response","76","380952","0.0-76.0","","656776a7904ae00d6b91d1dd","6568af2615d37441c653cd27","2","","","","","","","","","","","","3978","
    <h3>You are now half way through the study.</h3>
    <p>Please take a quick, 15-second break before you continue.</p>
    <img src='assets/img/countdown-15.gif'>
    <p>The study will automatically advance forward after the countdown is complete. <br> However, you may click ""Next"" to advance forward now if you wish.</p>
    ","0","","","","","","","","","","","",""
"before_SVSlide_prompt","html-button-response","77","382512","0.0-77.0","","656776a7904ae00d6b91d1dd","6568af2615d37441c653cd27","2","","","","","","","","","","","","1557","Click [Next] to see the next neighborhood!","0","","","","","","","","","","","",""
"street view slide show","image-button-response","78","383514","0.0-78.0","","656776a7904ae00d6b91d1dd","6568af2615d37441c653cd27","2","","","","","","","","","","","","null","stimulus/SV_PolicingMSA/LA_1076/IMG_5_1076.jpg","null","","","","","","5","","","","","",""
"street view slide show","image-button-response","79","384517","0.0-79.0","","656776a7904ae00d6b91d1dd","6568af2615d37441c653cd27","2","","","","","","","","","","","","null","stimulus/SV_PolicingMSA/LA_1076/IMG_8_1076.jpg","null","","","","","","5","","","","","",""
"street view slide show","image-button-response","80","385519","0.0-80.0","","656776a7904ae00d6b91d1dd","6568af2615d37441c653cd27","2","","","","","","","","","","","","null","stimulus/SV_PolicingMSA/LA_1076/IMG_14_1076.jpg","null","","","","","","5","","","","","",""
"street view slide show","image-button-response","81","386522","0.0-81.0","","656776a7904ae00d6b91d1dd","6568af2615d37441c653cd27","2","","","","","","","","","","","","null","stimulus/SV_PolicingMSA/LA_1076/IMG_12_1076.jpg","null","","","","","","5","","","","","",""
"street view slide show","image-button-response","82","387525","0.0-82.0","","656776a7904ae00d6b91d1dd","6568af2615d37441c653cd27","2","","","","","","","","","","","","null","stimulus/SV_PolicingMSA/LA_1076/IMG_4_1076.jpg","null","","","","","","5","","","","","",""
"street view slide show","image-button-response","83","388527","0.0-83.0","","656776a7904ae00d6b91d1dd","6568af2615d37441c653cd27","2","","","","","","","","","","","","null","stimulus/SV_PolicingMSA/LA_1076/IMG_3_1076.jpg","null","","","","","","5","","","","","",""
"street view slide show","image-button-response","84","389529","0.0-84.0","","656776a7904ae00d6b91d1dd","6568af2615d37441c653cd27","2","","","","","","","","","","","","null","stimulus/SV_PolicingMSA/LA_1076/IMG_6_1076.jpg","null","","","","","","5","","","","","",""
"street view slide show","image-button-response","85","390531","0.0-85.0","","656776a7904ae00d6b91d1dd","6568af2615d37441c653cd27","2","","","","","","","","","","","","null","stimulus/SV_PolicingMSA/LA_1076/IMG_11_1076.jpg","null","","","","","","5","","","","","",""
"dot matrix survey1","survey","86","403300","0.0-86.0","","656776a7904ae00d6b91d1dd","6568af2615d37441c653cd27","2","","","","","","","","","","","","12743","","{""P0_Q0"":null,""P0_Q1"":{""wealthy"":2,""safe"":3,""walkable"":1,""traditional"":2,""diverse"":1}}","","","","","","5","[]","","","","",""
"dot matrix survey2","survey","87","412198","0.0-87.0","","656776a7904ae00d6b91d1dd","6568af2615d37441c653cd27","2","","","","","","","","","","","","8877","","{""P0_Q0"":null,""P0_Q1"":{""violence"":1,""crime"":1,""drug"":2,""schools"":2,""opportunities"":2}}","","","","","","5","[]","","","","",""
"dot matrix survey3","survey","88","426563","0.0-88.0","","656776a7904ae00d6b91d1dd","6568af2615d37441c653cd27","2","","","","","","","","","","","","14349","","{""P0_Q0"":null,""P0_Q1"":{""movein"":2,""moveout"":2,""shopping"":2,""walk"":1,""park"":2,""school"":2}}","","","","","","5","[]","","","","",""
"sliderTrial","html-slider-response","89","429079","0.0-89.0","","656776a7904ae00d6b91d1dd","6568af2615d37441c653cd27","2","","","","","","","","","","","","2511","[""SV_PolicingMSA/LA_1076/IMG_5_1076.jpg"",""SV_PolicingMSA/LA_1076/IMG_8_1076.jpg"",""SV_PolicingMSA/LA_1076/IMG_14_1076.jpg"",""SV_PolicingMSA/LA_1076/IMG_12_1076.jpg"",""SV_PolicingMSA/LA_1076/IMG_4_1076.jpg"",""SV_PolicingMSA/LA_1076/IMG_3_1076.jpg"",""SV_PolicingMSA/LA_1076/IMG_6_1076.jpg"",""SV_PolicingMSA/LA_1076/IMG_11_1076.jpg""]","4","","","","","","5","","4","[""./rc_img/cop_condGroup_6_SafeStreets_autoscaled.png"",""./rc_img/cop_condGroup_6_CommunitySafety_autoscaled.png""]","4","",""
"sliderTrial","html-slider-response","90","431760","0.0-90.0","","656776a7904ae00d6b91d1dd","6568af2615d37441c653cd27","2","","","","","","","","","","","","2677","[""SV_PolicingMSA/LA_1076/IMG_5_1076.jpg"",""SV_PolicingMSA/LA_1076/IMG_8_1076.jpg"",""SV_PolicingMSA/LA_1076/IMG_14_1076.jpg"",""SV_PolicingMSA/LA_1076/IMG_12_1076.jpg"",""SV_PolicingMSA/LA_1076/IMG_4_1076.jpg"",""SV_PolicingMSA/LA_1076/IMG_3_1076.jpg"",""SV_PolicingMSA/LA_1076/IMG_6_1076.jpg"",""SV_PolicingMSA/LA_1076/IMG_11_1076.jpg""]","4","","","","","","5","","4","[""./rc_img/cop_condGroup_20_SafeStreets_autoscaled.png"",""./rc_img/cop_condGroup_20_CommunitySafety_autoscaled.png""]","4","",""
"sliderTrial","html-slider-response","91","435096","0.0-91.0","","656776a7904ae00d6b91d1dd","6568af2615d37441c653cd27","2","","","","","","","","","","","","3332","[""SV_PolicingMSA/LA_1076/IMG_5_1076.jpg"",""SV_PolicingMSA/LA_1076/IMG_8_1076.jpg"",""SV_PolicingMSA/LA_1076/IMG_14_1076.jpg"",""SV_PolicingMSA/LA_1076/IMG_12_1076.jpg"",""SV_PolicingMSA/LA_1076/IMG_4_1076.jpg"",""SV_PolicingMSA/LA_1076/IMG_3_1076.jpg"",""SV_PolicingMSA/LA_1076/IMG_6_1076.jpg"",""SV_PolicingMSA/LA_1076/IMG_11_1076.jpg""]","4","","","","","","5","","4","[""./rc_img/cop_condGroup_12_CommunitySafety_autoscaled.png"",""./rc_img/cop_condGroup_12_SafeStreets_autoscaled.png""]","4","",""
"sliderTrial","html-slider-response","92","437289","0.0-92.0","","656776a7904ae00d6b91d1dd","6568af2615d37441c653cd27","2","","","","","","","","","","","","2190","[""SV_PolicingMSA/LA_1076/IMG_5_1076.jpg"",""SV_PolicingMSA/LA_1076/IMG_8_1076.jpg"",""SV_PolicingMSA/LA_1076/IMG_14_1076.jpg"",""SV_PolicingMSA/LA_1076/IMG_12_1076.jpg"",""SV_PolicingMSA/LA_1076/IMG_4_1076.jpg"",""SV_PolicingMSA/LA_1076/IMG_3_1076.jpg"",""SV_PolicingMSA/LA_1076/IMG_6_1076.jpg"",""SV_PolicingMSA/LA_1076/IMG_11_1076.jpg""]","4","","","","","","5","","4","[""./rc_img/cop_condGroup_13_SafeStreets_autoscaled.png"",""./rc_img/cop_condGroup_13_CommunitySafety_autoscaled.png""]","4","",""
"sliderTrial","html-slider-response","93","439216","0.0-93.0","","656776a7904ae00d6b91d1dd","6568af2615d37441c653cd27","2","","","","","","","","","","","","1922","[""SV_PolicingMSA/LA_1076/IMG_5_1076.jpg"",""SV_PolicingMSA/LA_1076/IMG_8_1076.jpg"",""SV_PolicingMSA/LA_1076/IMG_14_1076.jpg"",""SV_PolicingMSA/LA_1076/IMG_12_1076.jpg"",""SV_PolicingMSA/LA_1076/IMG_4_1076.jpg"",""SV_PolicingMSA/LA_1076/IMG_3_1076.jpg"",""SV_PolicingMSA/LA_1076/IMG_6_1076.jpg"",""SV_PolicingMSA/LA_1076/IMG_11_1076.jpg""]","4","","","","","","5","","4","[""./rc_img/cop_condGroup_9_CommunitySafety_autoscaled.png"",""./rc_img/cop_condGroup_9_SafeStreets_autoscaled.png""]","4","",""
"before_SVSlide_prompt","html-button-response","94","440765","0.0-94.0","","656776a7904ae00d6b91d1dd","6568af2615d37441c653cd27","2","","","","","","","","","","","","1546","Click [Next] to see the next neighborhood!","0","","","","","","","","","","","",""
"street view slide show","image-button-response","95","441767","0.0-95.0","","656776a7904ae00d6b91d1dd","6568af2615d37441c653cd27","2","","","","","","","","","","","","null","stimulus/SV_PolicingMSA/LA_42/IMG_0_42.jpg","null","","","","","","2","","","","","",""
"street view slide show","image-button-response","96","442770","0.0-96.0","","656776a7904ae00d6b91d1dd","6568af2615d37441c653cd27","2","","","","","","","","","","","","null","stimulus/SV_PolicingMSA/LA_42/IMG_5_42.jpg","null","","","","","","2","","","","","",""
"street view slide show","image-button-response","97","443773","0.0-97.0","","656776a7904ae00d6b91d1dd","6568af2615d37441c653cd27","2","","","","","","","","","","","","null","stimulus/SV_PolicingMSA/LA_42/IMG_2_42.jpg","null","","","","","","2","","","","","",""
"street view slide show","image-button-response","98","444775","0.0-98.0","","656776a7904ae00d6b91d1dd","6568af2615d37441c653cd27","2","","","","","","","","","","","","null","stimulus/SV_PolicingMSA/LA_42/IMG_1_42.jpg","null","","","","","","2","","","","","",""
"street view slide show","image-button-response","99","445778","0.0-99.0","","656776a7904ae00d6b91d1dd","6568af2615d37441c653cd27","2","","","","","","","","","","","","null","stimulus/SV_PolicingMSA/LA_42/IMG_10_42.jpg","null","","","","","","2","","","","","",""
"street view slide show","image-button-response","100","446780","0.0-100.0","","656776a7904ae00d6b91d1dd","6568af2615d37441c653cd27","2","","","","","","","","","","","","null","stimulus/SV_PolicingMSA/LA_42/IMG_7_42.jpg","null","","","","","","2","","","","","",""
"street view slide show","image-button-response","101","447782","0.0-101.0","","656776a7904ae00d6b91d1dd","6568af2615d37441c653cd27","2","","","","","","","","","","","","null","stimulus/SV_PolicingMSA/LA_42/IMG_13_42.jpg","null","","","","","","2","","","","","",""
"street view slide show","image-button-response","102","448784","0.0-102.0","","656776a7904ae00d6b91d1dd","6568af2615d37441c653cd27","2","","","","","","","","","","","","null","stimulus/SV_PolicingMSA/LA_42/IMG_14_42.jpg","null","","","","","","2","","","","","",""
"dot matrix survey1","survey","103","460830","0.0-103.0","","656776a7904ae00d6b91d1dd","6568af2615d37441c653cd27","2","","","","","","","","","","","","12017","","{""P0_Q0"":null,""P0_Q1"":{""wealthy"":3,""safe"":3,""walkable"":1,""traditional"":2,""diverse"":3}}","","","","","","2","[]","","","","",""
"dot matrix survey2","survey","104","471612","0.0-104.0","","656776a7904ae00d6b91d1dd","6568af2615d37441c653cd27","2","","","","","","","","","","","","10764","","{""P0_Q0"":null,""P0_Q1"":{""violence"":1,""crime"":1,""drug"":2,""schools"":3,""opportunities"":3}}","","","","","","2","[]","","","","",""
"dot matrix survey3","survey","105","482289","0.0-105.0","","656776a7904ae00d6b91d1dd","6568af2615d37441c653cd27","2","","","","","","","","","","","","10657","","{""P0_Q0"":null,""P0_Q1"":{""movein"":3,""moveout"":1,""shopping"":3,""walk"":2,""park"":2,""school"":2}}","","","","","","2","[]","","","","",""
"sliderTrial","html-slider-response","106","485510","0.0-106.0","","656776a7904ae00d6b91d1dd","6568af2615d37441c653cd27","2","","","","","","","","","","","","3217","[""SV_PolicingMSA/LA_42/IMG_0_42.jpg"",""SV_PolicingMSA/LA_42/IMG_5_42.jpg"",""SV_PolicingMSA/LA_42/IMG_2_42.jpg"",""SV_PolicingMSA/LA_42/IMG_1_42.jpg"",""SV_PolicingMSA/LA_42/IMG_10_42.jpg"",""SV_PolicingMSA/LA_42/IMG_7_42.jpg"",""SV_PolicingMSA/LA_42/IMG_13_42.jpg"",""SV_PolicingMSA/LA_42/IMG_14_42.jpg""]","4","","","","","","2","","4","[""./rc_img/cop_condGroup_5_CommunitySafety_autoscaled.png"",""./rc_img/cop_condGroup_5_SafeStreets_autoscaled.png""]","4","",""
"sliderTrial","html-slider-response","107","499898","0.0-107.0","","656776a7904ae00d6b91d1dd","6568af2615d37441c653cd27","2","","","","","","","","","","","","14385","[""SV_PolicingMSA/LA_42/IMG_0_42.jpg"",""SV_PolicingMSA/LA_42/IMG_5_42.jpg"",""SV_PolicingMSA/LA_42/IMG_2_42.jpg"",""SV_PolicingMSA/LA_42/IMG_1_42.jpg"",""SV_PolicingMSA/LA_42/IMG_10_42.jpg"",""SV_PolicingMSA/LA_42/IMG_7_42.jpg"",""SV_PolicingMSA/LA_42/IMG_13_42.jpg"",""SV_PolicingMSA/LA_42/IMG_14_42.jpg""]","4","","","","","","2","","4","[""./rc_img/cop_condGroup_15_SafeStreets_autoscaled.png"",""./rc_img/cop_condGroup_15_CommunitySafety_autoscaled.png""]","4","",""
"sliderTrial","html-slider-response","108","510928","0.0-108.0","","656776a7904ae00d6b91d1dd","6568af2615d37441c653cd27","2","","","","","","","","","","","","11026","[""SV_PolicingMSA/LA_42/IMG_0_42.jpg"",""SV_PolicingMSA/LA_42/IMG_5_42.jpg"",""SV_PolicingMSA/LA_42/IMG_2_42.jpg"",""SV_PolicingMSA/LA_42/IMG_1_42.jpg"",""SV_PolicingMSA/LA_42/IMG_10_42.jpg"",""SV_PolicingMSA/LA_42/IMG_7_42.jpg"",""SV_PolicingMSA/LA_42/IMG_13_42.jpg"",""SV_PolicingMSA/LA_42/IMG_14_42.jpg""]","4","","","","","","2","","4","[""./rc_img/cop_condGroup_18_SafeStreets_autoscaled.png"",""./rc_img/cop_condGroup_18_CommunitySafety_autoscaled.png""]","4","",""
"sliderTrial","html-slider-response","109","517650","0.0-109.0","","656776a7904ae00d6b91d1dd","6568af2615d37441c653cd27","2","","","","","","","","","","","","6718","[""SV_PolicingMSA/LA_42/IMG_0_42.jpg"",""SV_PolicingMSA/LA_42/IMG_5_42.jpg"",""SV_PolicingMSA/LA_42/IMG_2_42.jpg"",""SV_PolicingMSA/LA_42/IMG_1_42.jpg"",""SV_PolicingMSA/LA_42/IMG_10_42.jpg"",""SV_PolicingMSA/LA_42/IMG_7_42.jpg"",""SV_PolicingMSA/LA_42/IMG_13_42.jpg"",""SV_PolicingMSA/LA_42/IMG_14_42.jpg""]","4","","","","","","2","","4","[""./rc_img/cop_condGroup_19_CommunitySafety_autoscaled.png"",""./rc_img/cop_condGroup_19_SafeStreets_autoscaled.png""]","4","",""
"sliderTrial","html-slider-response","110","524451","0.0-110.0","","656776a7904ae00d6b91d1dd","6568af2615d37441c653cd27","2","","","","","","","","","","","","6797","[""SV_PolicingMSA/LA_42/IMG_0_42.jpg"",""SV_PolicingMSA/LA_42/IMG_5_42.jpg"",""SV_PolicingMSA/LA_42/IMG_2_42.jpg"",""SV_PolicingMSA/LA_42/IMG_1_42.jpg"",""SV_PolicingMSA/LA_42/IMG_10_42.jpg"",""SV_PolicingMSA/LA_42/IMG_7_42.jpg"",""SV_PolicingMSA/LA_42/IMG_13_42.jpg"",""SV_PolicingMSA/LA_42/IMG_14_42.jpg""]","4","","","","","","2","","4","[""./rc_img/cop_condGroup_16_SafeStreets_autoscaled.png"",""./rc_img/cop_condGroup_16_CommunitySafety_autoscaled.png""]","4","",""
"before_SVSlide_prompt","html-button-response","111","526873","0.0-111.0","","656776a7904ae00d6b91d1dd","6568af2615d37441c653cd27","2","","","","","","","","","","","","2420","Click [Next] to see the next neighborhood!","0","","","","","","","","","","","",""
"street view slide show","image-button-response","112","527876","0.0-112.0","","656776a7904ae00d6b91d1dd","6568af2615d37441c653cd27","2","","","","","","","","","","","","null","stimulus/SV_PolicingMSA/LA_447/IMG_2_447.jpg","null","","","","","","3","","","","","",""
"street view slide show","image-button-response","113","528878","0.0-113.0","","656776a7904ae00d6b91d1dd","6568af2615d37441c653cd27","2","","","","","","","","","","","","null","stimulus/SV_PolicingMSA/LA_447/IMG_7_447.jpg","null","","","","","","3","","","","","",""
"street view slide show","image-button-response","114","529881","0.0-114.0","","656776a7904ae00d6b91d1dd","6568af2615d37441c653cd27","2","","","","","","","","","","","","null","stimulus/SV_PolicingMSA/LA_447/IMG_3_447.jpg","null","","","","","","3","","","","","",""
"street view slide show","image-button-response","115","530883","0.0-115.0","","656776a7904ae00d6b91d1dd","6568af2615d37441c653cd27","2","","","","","","","","","","","","null","stimulus/SV_PolicingMSA/LA_447/IMG_10_447.jpg","null","","","","","","3","","","","","",""
"street view slide show","image-button-response","116","531885","0.0-116.0","","656776a7904ae00d6b91d1dd","6568af2615d37441c653cd27","2","","","","","","","","","","","","null","stimulus/SV_PolicingMSA/LA_447/IMG_0_447.jpg","null","","","","","","3","","","","","",""
"street view slide show","image-button-response","117","532888","0.0-117.0","","656776a7904ae00d6b91d1dd","6568af2615d37441c653cd27","2","","","","","","","","","","","","null","stimulus/SV_PolicingMSA/LA_447/IMG_14_447.jpg","null","","","","","","3","","","","","",""
"street view slide show","image-button-response","118","533891","0.0-118.0","","656776a7904ae00d6b91d1dd","6568af2615d37441c653cd27","2","","","","","","","","","","","","null","stimulus/SV_PolicingMSA/LA_447/IMG_5_447.jpg","null","","","","","","3","","","","","",""
"street view slide show","image-button-response","119","534894","0.0-119.0","","656776a7904ae00d6b91d1dd","6568af2615d37441c653cd27","2","","","","","","","","","","","","null","stimulus/SV_PolicingMSA/LA_447/IMG_9_447.jpg","null","","","","","","3","","","","","",""
"dot matrix survey1","survey","120","548929","0.0-120.0","","656776a7904ae00d6b91d1dd","6568af2615d37441c653cd27","2","","","","","","","","","","","","14011","","{""P0_Q0"":null,""P0_Q1"":{""wealthy"":2,""safe"":3,""walkable"":2,""traditional"":2,""diverse"":1}}","","","","","","3","[]","","","","",""
"dot matrix survey2","survey","121","559301","0.0-121.0","","656776a7904ae00d6b91d1dd","6568af2615d37441c653cd27","2","","","","","","","","","","","","10356","","{""P0_Q0"":null,""P0_Q1"":{""violence"":1,""crime"":1,""drug"":2,""schools"":2,""opportunities"":2}}","","","","","","3","[]","","","","",""
"dot matrix survey3","survey","122","569682","0.0-122.0","","656776a7904ae00d6b91d1dd","6568af2615d37441c653cd27","2","","","","","","","","","","","","10366","","{""P0_Q0"":null,""P0_Q1"":{""movein"":3,""moveout"":1,""shopping"":3,""walk"":2,""park"":2,""school"":3}}","","","","","","3","[]","","","","",""
"sliderTrial","html-slider-response","123","572795","0.0-123.0","","656776a7904ae00d6b91d1dd","6568af2615d37441c653cd27","2","","","","","","","","","","","","3109","[""SV_PolicingMSA/LA_447/IMG_2_447.jpg"",""SV_PolicingMSA/LA_447/IMG_7_447.jpg"",""SV_PolicingMSA/LA_447/IMG_3_447.jpg"",""SV_PolicingMSA/LA_447/IMG_10_447.jpg"",""SV_PolicingMSA/LA_447/IMG_0_447.jpg"",""SV_PolicingMSA/LA_447/IMG_14_447.jpg"",""SV_PolicingMSA/LA_447/IMG_5_447.jpg"",""SV_PolicingMSA/LA_447/IMG_9_447.jpg""]","4","","","","","","3","","4","[""./rc_img/cop_condGroup_3_CommunitySafety_autoscaled.png"",""./rc_img/cop_condGroup_3_SafeStreets_autoscaled.png""]","4","",""
"sliderTrial","html-slider-response","124","575794","0.0-124.0","","656776a7904ae00d6b91d1dd","6568af2615d37441c653cd27","2","","","","","","","","","","","","2996","[""SV_PolicingMSA/LA_447/IMG_2_447.jpg"",""SV_PolicingMSA/LA_447/IMG_7_447.jpg"",""SV_PolicingMSA/LA_447/IMG_3_447.jpg"",""SV_PolicingMSA/LA_447/IMG_10_447.jpg"",""SV_PolicingMSA/LA_447/IMG_0_447.jpg"",""SV_PolicingMSA/LA_447/IMG_14_447.jpg"",""SV_PolicingMSA/LA_447/IMG_5_447.jpg"",""SV_PolicingMSA/LA_447/IMG_9_447.jpg""]","4","","","","","","3","","4","[""./rc_img/cop_condGroup_10_CommunitySafety_autoscaled.png"",""./rc_img/cop_condGroup_10_SafeStreets_autoscaled.png""]","4","",""
"sliderTrial","html-slider-response","125","577830","0.0-125.0","","656776a7904ae00d6b91d1dd","6568af2615d37441c653cd27","2","","","","","","","","","","","","2032","[""SV_PolicingMSA/LA_447/IMG_2_447.jpg"",""SV_PolicingMSA/LA_447/IMG_7_447.jpg"",""SV_PolicingMSA/LA_447/IMG_3_447.jpg"",""SV_PolicingMSA/LA_447/IMG_10_447.jpg"",""SV_PolicingMSA/LA_447/IMG_0_447.jpg"",""SV_PolicingMSA/LA_447/IMG_14_447.jpg"",""SV_PolicingMSA/LA_447/IMG_5_447.jpg"",""SV_PolicingMSA/LA_447/IMG_9_447.jpg""]","4","","","","","","3","","4","[""./rc_img/cop_condGroup_7_CommunitySafety_autoscaled.png"",""./rc_img/cop_condGroup_7_SafeStreets_autoscaled.png""]","4","",""
"sliderTrial","html-slider-response","126","579895","0.0-126.0","","656776a7904ae00d6b91d1dd","6568af2615d37441c653cd27","2","","","","","","","","","","","","2061","[""SV_PolicingMSA/LA_447/IMG_2_447.jpg"",""SV_PolicingMSA/LA_447/IMG_7_447.jpg"",""SV_PolicingMSA/LA_447/IMG_3_447.jpg"",""SV_PolicingMSA/LA_447/IMG_10_447.jpg"",""SV_PolicingMSA/LA_447/IMG_0_447.jpg"",""SV_PolicingMSA/LA_447/IMG_14_447.jpg"",""SV_PolicingMSA/LA_447/IMG_5_447.jpg"",""SV_PolicingMSA/LA_447/IMG_9_447.jpg""]","4","","","","","","3","","4","[""./rc_img/cop_condGroup_11_CommunitySafety_autoscaled.png"",""./rc_img/cop_condGroup_11_SafeStreets_autoscaled.png""]","4","",""
"sliderTrial","html-slider-response","127","582229","0.0-127.0","","656776a7904ae00d6b91d1dd","6568af2615d37441c653cd27","2","","","","","","","","","","","","2330","[""SV_PolicingMSA/LA_447/IMG_2_447.jpg"",""SV_PolicingMSA/LA_447/IMG_7_447.jpg"",""SV_PolicingMSA/LA_447/IMG_3_447.jpg"",""SV_PolicingMSA/LA_447/IMG_10_447.jpg"",""SV_PolicingMSA/LA_447/IMG_0_447.jpg"",""SV_PolicingMSA/LA_447/IMG_14_447.jpg"",""SV_PolicingMSA/LA_447/IMG_5_447.jpg"",""SV_PolicingMSA/LA_447/IMG_9_447.jpg""]","4","","","","","","3","","4","[""./rc_img/cop_condGroup_2_CommunitySafety_autoscaled.png"",""./rc_img/cop_condGroup_2_SafeStreets_autoscaled.png""]","4","",""
"before_SVSlide_prompt","html-button-response","128","584036","0.0-128.0","","656776a7904ae00d6b91d1dd","6568af2615d37441c653cd27","2","","","","","","","","","","","","1805","Click [Next] to see the next neighborhood!","0","","","","","","","","","","","",""
"street view slide show","image-button-response","129","585040","0.0-129.0","","656776a7904ae00d6b91d1dd","6568af2615d37441c653cd27","2","","","","","","","","","","","","null","stimulus/SV_PolicingMSA/LA_547/IMG_13_547.jpg","null","","","","","","2","","","","","",""
"street view slide show","image-button-response","130","586042","0.0-130.0","","656776a7904ae00d6b91d1dd","6568af2615d37441c653cd27","2","","","","","","","","","","","","null","stimulus/SV_PolicingMSA/LA_547/IMG_6_547.jpg","null","","","","","","2","","","","","",""
"street view slide show","image-button-response","131","587044","0.0-131.0","","656776a7904ae00d6b91d1dd","6568af2615d37441c653cd27","2","","","","","","","","","","","","null","stimulus/SV_PolicingMSA/LA_547/IMG_2_547.jpg","null","","","","","","2","","","","","",""
"street view slide show","image-button-response","132","588046","0.0-132.0","","656776a7904ae00d6b91d1dd","6568af2615d37441c653cd27","2","","","","","","","","","","","","null","stimulus/SV_PolicingMSA/LA_547/IMG_3_547.jpg","null","","","","","","2","","","","","",""
"street view slide show","image-button-response","133","589048","0.0-133.0","","656776a7904ae00d6b91d1dd","6568af2615d37441c653cd27","2","","","","","","","","","","","","null","stimulus/SV_PolicingMSA/LA_547/IMG_12_547.jpg","null","","","","","","2","","","","","",""
"street view slide show","image-button-response","134","590051","0.0-134.0","","656776a7904ae00d6b91d1dd","6568af2615d37441c653cd27","2","","","","","","","","","","","","null","stimulus/SV_PolicingMSA/LA_547/IMG_1_547.jpg","null","","","","","","2","","","","","",""
"street view slide show","image-button-response","135","591062","0.0-135.0","","656776a7904ae00d6b91d1dd","6568af2615d37441c653cd27","2","","","","","","","","","","","","null","stimulus/SV_PolicingMSA/LA_547/IMG_14_547.jpg","null","","","","","","2","","","","","",""
"street view slide show","image-button-response","136","592064","0.0-136.0","","656776a7904ae00d6b91d1dd","6568af2615d37441c653cd27","2","","","","","","","","","","","","null","stimulus/SV_PolicingMSA/LA_547/IMG_10_547.jpg","null","","","","","","2","","","","","",""
"dot matrix survey1","survey","137","602471","0.0-137.0","","656776a7904ae00d6b91d1dd","6568af2615d37441c653cd27","2","","","","","","","","","","","","10391","","{""P0_Q0"":null,""P0_Q1"":{""wealthy"":0,""safe"":1,""walkable"":1,""traditional"":1,""diverse"":1}}","","","","","","2","[]","","","","",""
"dot matrix survey2","survey","138","613672","0.0-138.0","","656776a7904ae00d6b91d1dd","6568af2615d37441c653cd27","2","","","","","","","","","","","","11184","","{""P0_Q0"":null,""P0_Q1"":{""violence"":3,""crime"":4,""drug"":4,""schools"":0,""opportunities"":0}}","","","","","","2","[]","","","","",""
"dot matrix survey3","survey","139","629038","0.0-139.0","","656776a7904ae00d6b91d1dd","6568af2615d37441c653cd27","2","","","","","","","","","","","","15349","","{""P0_Q0"":null,""P0_Q1"":{""movein"":0,""moveout"":4,""shopping"":0,""walk"":0,""park"":1,""school"":0}}","","","","","","2","[]","","","","",""
"sliderTrial","html-slider-response","140","632253","0.0-140.0","","656776a7904ae00d6b91d1dd","6568af2615d37441c653cd27","2","","","","","","","","","","","","3211","[""SV_PolicingMSA/LA_547/IMG_13_547.jpg"",""SV_PolicingMSA/LA_547/IMG_6_547.jpg"",""SV_PolicingMSA/LA_547/IMG_2_547.jpg"",""SV_PolicingMSA/LA_547/IMG_3_547.jpg"",""SV_PolicingMSA/LA_547/IMG_12_547.jpg"",""SV_PolicingMSA/LA_547/IMG_1_547.jpg"",""SV_PolicingMSA/LA_547/IMG_14_547.jpg"",""SV_PolicingMSA/LA_547/IMG_10_547.jpg""]","4","","","","","","2","","4","[""./rc_img/cop_condGroup_14_SafeStreets_autoscaled.png"",""./rc_img/cop_condGroup_14_CommunitySafety_autoscaled.png""]","4","",""
"sliderTrial","html-slider-response","141","636928","0.0-141.0","","656776a7904ae00d6b91d1dd","6568af2615d37441c653cd27","2","","","","","","","","","","","","4670","[""SV_PolicingMSA/LA_547/IMG_13_547.jpg"",""SV_PolicingMSA/LA_547/IMG_6_547.jpg"",""SV_PolicingMSA/LA_547/IMG_2_547.jpg"",""SV_PolicingMSA/LA_547/IMG_3_547.jpg"",""SV_PolicingMSA/LA_547/IMG_12_547.jpg"",""SV_PolicingMSA/LA_547/IMG_1_547.jpg"",""SV_PolicingMSA/LA_547/IMG_14_547.jpg"",""SV_PolicingMSA/LA_547/IMG_10_547.jpg""]","4","","","","","","2","","4","[""./rc_img/cop_condGroup_17_SafeStreets_autoscaled.png"",""./rc_img/cop_condGroup_17_CommunitySafety_autoscaled.png""]","4","",""
"sliderTrial","html-slider-response","142","642260","0.0-142.0","","656776a7904ae00d6b91d1dd","6568af2615d37441c653cd27","2","","","","","","","","","","","","5328","[""SV_PolicingMSA/LA_547/IMG_13_547.jpg"",""SV_PolicingMSA/LA_547/IMG_6_547.jpg"",""SV_PolicingMSA/LA_547/IMG_2_547.jpg"",""SV_PolicingMSA/LA_547/IMG_3_547.jpg"",""SV_PolicingMSA/LA_547/IMG_12_547.jpg"",""SV_PolicingMSA/LA_547/IMG_1_547.jpg"",""SV_PolicingMSA/LA_547/IMG_14_547.jpg"",""SV_PolicingMSA/LA_547/IMG_10_547.jpg""]","4","","","","","","2","","4","[""./rc_img/cop_condGroup_8_SafeStreets_autoscaled.png"",""./rc_img/cop_condGroup_8_CommunitySafety_autoscaled.png""]","4","",""
"sliderTrial","html-slider-response","143","644444","0.0-143.0","","656776a7904ae00d6b91d1dd","6568af2615d37441c653cd27","2","","","","","","","","","","","","2181","[""SV_PolicingMSA/LA_547/IMG_13_547.jpg"",""SV_PolicingMSA/LA_547/IMG_6_547.jpg"",""SV_PolicingMSA/LA_547/IMG_2_547.jpg"",""SV_PolicingMSA/LA_547/IMG_3_547.jpg"",""SV_PolicingMSA/LA_547/IMG_12_547.jpg"",""SV_PolicingMSA/LA_547/IMG_1_547.jpg"",""SV_PolicingMSA/LA_547/IMG_14_547.jpg"",""SV_PolicingMSA/LA_547/IMG_10_547.jpg""]","4","","","","","","2","","4","[""./rc_img/cop_condGroup_1_SafeStreets_autoscaled.png"",""./rc_img/cop_condGroup_1_CommunitySafety_autoscaled.png""]","4","",""
"sliderTrial","html-slider-response","144","646929","0.0-144.0","","656776a7904ae00d6b91d1dd","6568af2615d37441c653cd27","2","","","","","","","","","","","","2480","[""SV_PolicingMSA/LA_547/IMG_13_547.jpg"",""SV_PolicingMSA/LA_547/IMG_6_547.jpg"",""SV_PolicingMSA/LA_547/IMG_2_547.jpg"",""SV_PolicingMSA/LA_547/IMG_3_547.jpg"",""SV_PolicingMSA/LA_547/IMG_12_547.jpg"",""SV_PolicingMSA/LA_547/IMG_1_547.jpg"",""SV_PolicingMSA/LA_547/IMG_14_547.jpg"",""SV_PolicingMSA/LA_547/IMG_10_547.jpg""]","4","","","","","","2","","4","[""./rc_img/cop_condGroup_4_SafeStreets_autoscaled.png"",""./rc_img/cop_condGroup_4_CommunitySafety_autoscaled.png""]","4","",""
"demographics","survey-html-form","145","666184","0.0-145.0","","656776a7904ae00d6b91d1dd","6568af2615d37441c653cd27","2","","","","","","","","","","","","19247","","{""age"":""42"",""sex"":""male"",""gender"":""man"",""gender-self-describe"":"""",""zipcode"":""68130""}","","","","","","","","","","","",""
"demographics-list","survey","146","689120","0.0-146.0","","656776a7904ae00d6b91d1dd","6568af2615d37441c653cd27","2","","","","","","","","","","","","22864","","{""P0_Q0"":null,""race-ethnicity"":[""White or of European ancestry""],""education"":""Bachelor’s degree"",""P1_Q0"":null,""ideology"":""Liberal"",""P2_Q0"":null,""num-moves"":1,""P3_Q0"":null,""social-ladder"":5}","","","","","","","[]","","","","",""
"end-survey","survey-text","147","832155","0.0-147.0","","656776a7904ae00d6b91d1dd","6568af2615d37441c653cd27","2","","","","","","","","","","","","143018","","{""Q0"":""""}","","","","","","","","","","","","2"
"end-survey","html-button-response","148","835490","0.0-148.0","","656776a7904ae00d6b91d1dd","6568af2615d37441c653cd27","2","","","","","","","","","","","","3332","
    You've reached the end of the survey. <br><br> 
    <b>Do not close or refresh this window.</b><br>
    On the next page, you will be automatically redirected to Prolific. <br><br>

    <div class=""alert alert-warning""><b>
    </div>
","0","","","","","","","","","","","",""
