"task","trial_type","trial_index","time_elapsed","internal_node_id","subject_id","study_id","session_id","section","width","height","webaudio","browser","browser_version","mobile","os","fullscreen","vsync_rate","webcam","microphone","rt","stimulus","response","success","timeout","failed_images","failed_audio","failed_video","block","accuracy","slider_start","choices","standardized_response","correct","num_attention_checks_correct"
"pavlovia-init","pavlovia","0","803","0.0-0.0","","656776a7904ae00d6b91d1dd","6568adac8141dc6f6d24e0d8","2","","","","","","","","","","","","","","","","","","","","","","","","","",""
"browser-check","browser-check","1","1800","0.0-1.0","","656776a7904ae00d6b91d1dd","6568adac8141dc6f6d24e0d8","2","1440","718","true","chrome","119.0.0","false","Mac OS","true","60.47","true","true","","","","","","","","","","","","","","",""
"consent","html-button-response","2","12339","0.0-2.0","","656776a7904ae00d6b91d1dd","6568adac8141dc6f6d24e0d8","2","","","","","","","","","","","","10537","
        <div style=""font-size: 80%; max-width:700px"">
            <h2>CONSENT FORM</h2>
        
            <div style=""text-align: left"">
            <h4>DESCRIPTION</h4>
            <p>
            You will complete a short task where you give your impressions of various neighborhoods and assign individuals to those spaces, and answer some questions about your thoughts and opinions.<br>
            The University of Michigan Institutional Review Board Health Sciences and Behavioral Sciences has determined that this study is exempt from IRB oversight.
            </p>

            <h4>TIME INVOLVEMENT</h4>
            <p>Your participation will take approximately 15 minutes. You will receive $3.15 upon completion of the study.</p>
        
            <h4>RISKS AND BENEFITS</h4>
            <p>
            The risks associated with this study are minimal. The benefits which may reasonably be expected to result from this study are none. We cannot and do not guarantee or promise that you will receive any benefits from this study.
            </p>
          
            <h4>SUBJECT'S RIGHTS</h4>
            <p>
            If you have read this form and have decided to participate in this project, please understand your participation is voluntary and you have the right to withdraw your consent or discontinue participation at any time without penalty or loss of benefits to which you are otherwise entitled. The alternative is not to participate. You have the right to refuse to answer particular questions. Your individual privacy will be maintained in all published and written data resulting from the study.
            </p>

            <h4>HUMAN SUBJECT APPROVAL</h4>
            <p>
            This study is exempt from ongoing IRB review.
            </p>

            <h4>CONTACT INFORMATION</h4>
            If you have any questions, concerns or complaints about this research, its procedures, risks and benefits, contact the Protocol Director, Nicholas Camp, npcamp@umich.edu, (443) 851-6783. <br>

            If you have questions about your rights as a research participant, or wish to obtain information, ask questions or discuss any concerns about this study with someone other than the researcher(s), please contact the following:<br><br>
            University of Michigan<br>
            Health Sciences and Behavioral Sciences Institutional Review Board (IRB-HSBS)<br>
            2800 Plymouth Road<br>
            Building 520, Room 1169Ann Arbor, MI 48109-2800<br>
            Telephone: 734-936-0933 or toll free (866) 936-0933<br>
            Fax: 734-936-1852<br>
            E-mail: irbhsbs@umich.edu<br><br>

            You can also contact the University of Michigan Compliance Hotline at 1-866-990-0111. You may also print this consent form to keep.
            <br><br>
            <div class=""alert alert-warning""><b>
            Do you consent to participate in this study? If you consent to participate in this study, please click “Accept and Continue”. If you select ""Decline and Exit"", you will be exited from the survey. <br>
            </b></div>
            </div>
        </div>
    ","1","","","","","","","","","","","",""
"","preload","3","13542","0.0-3.0","","656776a7904ae00d6b91d1dd","6568adac8141dc6f6d24e0d8","2","","","","","","","","","","","","","","","true","false","[]","[]","[]","","","","","","",""
"instructions","html-button-response","4","17003","0.0-4.0","","656776a7904ae00d6b91d1dd","6568adac8141dc6f6d24e0d8","2","","","","","","","","","","","","3459","
        <div class=""text-container"">
        <h1>Welcome to the study!</h1>
        
        <div class=""text-left"">
            <p>
                In this study, we are interested in what people can tell about spaces from Google Street View images. <br> Google Street View takes pictures of streets used for Google Earth and Google Maps. <br>You’ll see Google Street View images of different places and answer some questions about each one.<br>
            </p>
        </div>
        <img src = ""assets/img/example.png"" width = 500px, height = auto>
        <br>
    <br>
    ","0","","","","","","","","","","","",""
"instructions","html-button-response","5","19286","0.0-5.0","","656776a7904ae00d6b91d1dd","6568adac8141dc6f6d24e0d8","2","","","","","","","","","","","","2283","
    <div class=""text-container"">
        <div class=""text-center"">
            <p>Please remember that your answers are completely anonymous.<br>Go with your gut response- there are no right or wrong answers!</p>
        </div>
    <br>
","0","","","","","","","","","","","",""
"before_SVSlide_prompt","html-button-response","6","20586","0.0-6.0","","656776a7904ae00d6b91d1dd","6568adac8141dc6f6d24e0d8","2","","","","","","","","","","","","1299","Click [Next] to see the next neighborhood!","0","","","","","","","","","","","",""
"street view slide show","image-button-response","7","21594","0.0-7.0","","656776a7904ae00d6b91d1dd","6568adac8141dc6f6d24e0d8","2","","","","","","","","","","","","null","stimulus/SV_PolicingMSA/LA_438/IMG_10_438.jpg","null","","","","","","4","","","","","",""
"street view slide show","image-button-response","8","22600","0.0-8.0","","656776a7904ae00d6b91d1dd","6568adac8141dc6f6d24e0d8","2","","","","","","","","","","","","null","stimulus/SV_PolicingMSA/LA_438/IMG_11_438.jpg","null","","","","","","4","","","","","",""
"street view slide show","image-button-response","9","23607","0.0-9.0","","656776a7904ae00d6b91d1dd","6568adac8141dc6f6d24e0d8","2","","","","","","","","","","","","null","stimulus/SV_PolicingMSA/LA_438/IMG_14_438.jpg","null","","","","","","4","","","","","",""
"street view slide show","image-button-response","10","24614","0.0-10.0","","656776a7904ae00d6b91d1dd","6568adac8141dc6f6d24e0d8","2","","","","","","","","","","","","null","stimulus/SV_PolicingMSA/LA_438/IMG_9_438.jpg","null","","","","","","4","","","","","",""
"street view slide show","image-button-response","11","25618","0.0-11.0","","656776a7904ae00d6b91d1dd","6568adac8141dc6f6d24e0d8","2","","","","","","","","","","","","null","stimulus/SV_PolicingMSA/LA_438/IMG_8_438.jpg","null","","","","","","4","","","","","",""
"street view slide show","image-button-response","12","26622","0.0-12.0","","656776a7904ae00d6b91d1dd","6568adac8141dc6f6d24e0d8","2","","","","","","","","","","","","null","stimulus/SV_PolicingMSA/LA_438/IMG_0_438.jpg","null","","","","","","4","","","","","",""
"street view slide show","image-button-response","13","27628","0.0-13.0","","656776a7904ae00d6b91d1dd","6568adac8141dc6f6d24e0d8","2","","","","","","","","","","","","null","stimulus/SV_PolicingMSA/LA_438/IMG_6_438.jpg","null","","","","","","4","","","","","",""
"street view slide show","image-button-response","14","28636","0.0-14.0","","656776a7904ae00d6b91d1dd","6568adac8141dc6f6d24e0d8","2","","","","","","","","","","","","null","stimulus/SV_PolicingMSA/LA_438/IMG_3_438.jpg","null","","","","","","4","","","","","",""
"dot matrix survey1","survey","15","44327","0.0-15.0","","656776a7904ae00d6b91d1dd","6568adac8141dc6f6d24e0d8","2","","","","","","","","","","","","15629","","{""P0_Q0"":null,""P0_Q1"":{""wealthy"":3,""safe"":3,""walkable"":3,""traditional"":3,""diverse"":0}}","","","","","","4","[]","","","","",""
"dot matrix survey2","survey","16","61590","0.0-16.0","","656776a7904ae00d6b91d1dd","6568adac8141dc6f6d24e0d8","2","","","","","","","","","","","","17248","","{""P0_Q0"":null,""P0_Q1"":{""violence"":0,""crime"":0,""drug"":0,""schools"":4,""opportunities"":4}}","","","","","","4","[]","","","","",""
"dot matrix survey3","survey","17","75427","0.0-17.0","","656776a7904ae00d6b91d1dd","6568adac8141dc6f6d24e0d8","2","","","","","","","","","","","","13827","","{""P0_Q0"":null,""P0_Q1"":{""movein"":3,""moveout"":1,""shopping"":2,""walk"":2,""park"":2,""school"":3}}","","","","","","4","[]","","","","",""
"sliderTrial","html-slider-response","18","79941","0.0-18.0","","656776a7904ae00d6b91d1dd","6568adac8141dc6f6d24e0d8","2","","","","","","","","","","","","4512","[""SV_PolicingMSA/LA_438/IMG_10_438.jpg"",""SV_PolicingMSA/LA_438/IMG_11_438.jpg"",""SV_PolicingMSA/LA_438/IMG_14_438.jpg"",""SV_PolicingMSA/LA_438/IMG_9_438.jpg"",""SV_PolicingMSA/LA_438/IMG_8_438.jpg"",""SV_PolicingMSA/LA_438/IMG_0_438.jpg"",""SV_PolicingMSA/LA_438/IMG_6_438.jpg"",""SV_PolicingMSA/LA_438/IMG_3_438.jpg""]","7","","","","","","4","","4","[""./rc_img/cop_condGroup_11_SafeStreets_autoscaled.png"",""./rc_img/cop_condGroup_11_CommunitySafety_autoscaled.png""]","1","",""
"sliderTrial","html-slider-response","19","85453","0.0-19.0","","656776a7904ae00d6b91d1dd","6568adac8141dc6f6d24e0d8","2","","","","","","","","","","","","5510","[""SV_PolicingMSA/LA_438/IMG_10_438.jpg"",""SV_PolicingMSA/LA_438/IMG_11_438.jpg"",""SV_PolicingMSA/LA_438/IMG_14_438.jpg"",""SV_PolicingMSA/LA_438/IMG_9_438.jpg"",""SV_PolicingMSA/LA_438/IMG_8_438.jpg"",""SV_PolicingMSA/LA_438/IMG_0_438.jpg"",""SV_PolicingMSA/LA_438/IMG_6_438.jpg"",""SV_PolicingMSA/LA_438/IMG_3_438.jpg""]","1","","","","","","4","","4","[""./rc_img/cop_condGroup_10_CommunitySafety_autoscaled.png"",""./rc_img/cop_condGroup_10_SafeStreets_autoscaled.png""]","1","",""
"sliderTrial","html-slider-response","20","91539","0.0-20.0","","656776a7904ae00d6b91d1dd","6568adac8141dc6f6d24e0d8","2","","","","","","","","","","","","6084","[""SV_PolicingMSA/LA_438/IMG_10_438.jpg"",""SV_PolicingMSA/LA_438/IMG_11_438.jpg"",""SV_PolicingMSA/LA_438/IMG_14_438.jpg"",""SV_PolicingMSA/LA_438/IMG_9_438.jpg"",""SV_PolicingMSA/LA_438/IMG_8_438.jpg"",""SV_PolicingMSA/LA_438/IMG_0_438.jpg"",""SV_PolicingMSA/LA_438/IMG_6_438.jpg"",""SV_PolicingMSA/LA_438/IMG_3_438.jpg""]","1","","","","","","4","","4","[""./rc_img/cop_condGroup_9_CommunitySafety_autoscaled.png"",""./rc_img/cop_condGroup_9_SafeStreets_autoscaled.png""]","1","",""
"sliderTrial","html-slider-response","21","97449","0.0-21.0","","656776a7904ae00d6b91d1dd","6568adac8141dc6f6d24e0d8","2","","","","","","","","","","","","5908","[""SV_PolicingMSA/LA_438/IMG_10_438.jpg"",""SV_PolicingMSA/LA_438/IMG_11_438.jpg"",""SV_PolicingMSA/LA_438/IMG_14_438.jpg"",""SV_PolicingMSA/LA_438/IMG_9_438.jpg"",""SV_PolicingMSA/LA_438/IMG_8_438.jpg"",""SV_PolicingMSA/LA_438/IMG_0_438.jpg"",""SV_PolicingMSA/LA_438/IMG_6_438.jpg"",""SV_PolicingMSA/LA_438/IMG_3_438.jpg""]","7","","","","","","4","","4","[""./rc_img/cop_condGroup_16_SafeStreets_autoscaled.png"",""./rc_img/cop_condGroup_16_CommunitySafety_autoscaled.png""]","1","",""
"sliderTrial","html-slider-response","22","103160","0.0-22.0","","656776a7904ae00d6b91d1dd","6568adac8141dc6f6d24e0d8","2","","","","","","","","","","","","5708","[""SV_PolicingMSA/LA_438/IMG_10_438.jpg"",""SV_PolicingMSA/LA_438/IMG_11_438.jpg"",""SV_PolicingMSA/LA_438/IMG_14_438.jpg"",""SV_PolicingMSA/LA_438/IMG_9_438.jpg"",""SV_PolicingMSA/LA_438/IMG_8_438.jpg"",""SV_PolicingMSA/LA_438/IMG_0_438.jpg"",""SV_PolicingMSA/LA_438/IMG_6_438.jpg"",""SV_PolicingMSA/LA_438/IMG_3_438.jpg""]","1","","","","","","4","","4","[""./rc_img/cop_condGroup_3_CommunitySafety_autoscaled.png"",""./rc_img/cop_condGroup_3_SafeStreets_autoscaled.png""]","1","",""
"before_SVSlide_prompt","html-button-response","23","104849","0.0-23.0","","656776a7904ae00d6b91d1dd","6568adac8141dc6f6d24e0d8","2","","","","","","","","","","","","1688","Click [Next] to see the next neighborhood!","0","","","","","","","","","","","",""
"street view slide show","image-button-response","24","105852","0.0-24.0","","656776a7904ae00d6b91d1dd","6568adac8141dc6f6d24e0d8","2","","","","","","","","","","","","null","stimulus/SV_PolicingMSA/LA_1076/IMG_5_1076.jpg","null","","","","","","5","","","","","",""
"street view slide show","image-button-response","25","106854","0.0-25.0","","656776a7904ae00d6b91d1dd","6568adac8141dc6f6d24e0d8","2","","","","","","","","","","","","null","stimulus/SV_PolicingMSA/LA_1076/IMG_8_1076.jpg","null","","","","","","5","","","","","",""
"street view slide show","image-button-response","26","107861","0.0-26.0","","656776a7904ae00d6b91d1dd","6568adac8141dc6f6d24e0d8","2","","","","","","","","","","","","null","stimulus/SV_PolicingMSA/LA_1076/IMG_14_1076.jpg","null","","","","","","5","","","","","",""
"street view slide show","image-button-response","27","108864","0.0-27.0","","656776a7904ae00d6b91d1dd","6568adac8141dc6f6d24e0d8","2","","","","","","","","","","","","null","stimulus/SV_PolicingMSA/LA_1076/IMG_12_1076.jpg","null","","","","","","5","","","","","",""
"street view slide show","image-button-response","28","109868","0.0-28.0","","656776a7904ae00d6b91d1dd","6568adac8141dc6f6d24e0d8","2","","","","","","","","","","","","null","stimulus/SV_PolicingMSA/LA_1076/IMG_4_1076.jpg","null","","","","","","5","","","","","",""
"street view slide show","image-button-response","29","110872","0.0-29.0","","656776a7904ae00d6b91d1dd","6568adac8141dc6f6d24e0d8","2","","","","","","","","","","","","null","stimulus/SV_PolicingMSA/LA_1076/IMG_3_1076.jpg","null","","","","","","5","","","","","",""
"street view slide show","image-button-response","30","111879","0.0-30.0","","656776a7904ae00d6b91d1dd","6568adac8141dc6f6d24e0d8","2","","","","","","","","","","","","null","stimulus/SV_PolicingMSA/LA_1076/IMG_6_1076.jpg","null","","","","","","5","","","","","",""
"street view slide show","image-button-response","31","112881","0.0-31.0","","656776a7904ae00d6b91d1dd","6568adac8141dc6f6d24e0d8","2","","","","","","","","","","","","null","stimulus/SV_PolicingMSA/LA_1076/IMG_11_1076.jpg","null","","","","","","5","","","","","",""
"dot matrix survey1","survey","32","122229","0.0-32.0","","656776a7904ae00d6b91d1dd","6568adac8141dc6f6d24e0d8","2","","","","","","","","","","","","9333","","{""P0_Q0"":null,""P0_Q1"":{""wealthy"":2,""safe"":2,""walkable"":2,""traditional"":2,""diverse"":1}}","","","","","","5","[]","","","","",""
"dot matrix survey2","survey","33","131752","0.0-33.0","","656776a7904ae00d6b91d1dd","6568adac8141dc6f6d24e0d8","2","","","","","","","","","","","","9511","","{""P0_Q0"":null,""P0_Q1"":{""violence"":1,""crime"":1,""drug"":1,""schools"":2,""opportunities"":2}}","","","","","","5","[]","","","","",""
"dot matrix survey3","survey","34","144259","0.0-34.0","","656776a7904ae00d6b91d1dd","6568adac8141dc6f6d24e0d8","2","","","","","","","","","","","","12499","","{""P0_Q0"":null,""P0_Q1"":{""movein"":0,""moveout"":4,""shopping"":0,""walk"":0,""park"":0,""school"":0}}","","","","","","5","[]","","","","",""
"sliderTrial","html-slider-response","35","147983","0.0-35.0","","656776a7904ae00d6b91d1dd","6568adac8141dc6f6d24e0d8","2","","","","","","","","","","","","3722","[""SV_PolicingMSA/LA_1076/IMG_5_1076.jpg"",""SV_PolicingMSA/LA_1076/IMG_8_1076.jpg"",""SV_PolicingMSA/LA_1076/IMG_14_1076.jpg"",""SV_PolicingMSA/LA_1076/IMG_12_1076.jpg"",""SV_PolicingMSA/LA_1076/IMG_4_1076.jpg"",""SV_PolicingMSA/LA_1076/IMG_3_1076.jpg"",""SV_PolicingMSA/LA_1076/IMG_6_1076.jpg"",""SV_PolicingMSA/LA_1076/IMG_11_1076.jpg""]","7","","","","","","5","","4","[""./rc_img/cop_condGroup_19_SafeStreets_autoscaled.png"",""./rc_img/cop_condGroup_19_CommunitySafety_autoscaled.png""]","1","",""
"sliderTrial","html-slider-response","36","152022","0.0-36.0","","656776a7904ae00d6b91d1dd","6568adac8141dc6f6d24e0d8","2","","","","","","","","","","","","4037","[""SV_PolicingMSA/LA_1076/IMG_5_1076.jpg"",""SV_PolicingMSA/LA_1076/IMG_8_1076.jpg"",""SV_PolicingMSA/LA_1076/IMG_14_1076.jpg"",""SV_PolicingMSA/LA_1076/IMG_12_1076.jpg"",""SV_PolicingMSA/LA_1076/IMG_4_1076.jpg"",""SV_PolicingMSA/LA_1076/IMG_3_1076.jpg"",""SV_PolicingMSA/LA_1076/IMG_6_1076.jpg"",""SV_PolicingMSA/LA_1076/IMG_11_1076.jpg""]","7","","","","","","5","","4","[""./rc_img/cop_condGroup_14_CommunitySafety_autoscaled.png"",""./rc_img/cop_condGroup_14_SafeStreets_autoscaled.png""]","7","",""
"sliderTrial","html-slider-response","37","152982","0.0-37.0","","656776a7904ae00d6b91d1dd","6568adac8141dc6f6d24e0d8","2","","","","","","","","","","","","958","[""SV_PolicingMSA/LA_1076/IMG_5_1076.jpg"",""SV_PolicingMSA/LA_1076/IMG_8_1076.jpg"",""SV_PolicingMSA/LA_1076/IMG_14_1076.jpg"",""SV_PolicingMSA/LA_1076/IMG_12_1076.jpg"",""SV_PolicingMSA/LA_1076/IMG_4_1076.jpg"",""SV_PolicingMSA/LA_1076/IMG_3_1076.jpg"",""SV_PolicingMSA/LA_1076/IMG_6_1076.jpg"",""SV_PolicingMSA/LA_1076/IMG_11_1076.jpg""]","4","","","","","","5","","4","[""./rc_img/cop_condGroup_2_CommunitySafety_autoscaled.png"",""./rc_img/cop_condGroup_2_SafeStreets_autoscaled.png""]","4","",""
"sliderTrial","html-slider-response","38","157365","0.0-38.0","","656776a7904ae00d6b91d1dd","6568adac8141dc6f6d24e0d8","2","","","","","","","","","","","","4380","[""SV_PolicingMSA/LA_1076/IMG_5_1076.jpg"",""SV_PolicingMSA/LA_1076/IMG_8_1076.jpg"",""SV_PolicingMSA/LA_1076/IMG_14_1076.jpg"",""SV_PolicingMSA/LA_1076/IMG_12_1076.jpg"",""SV_PolicingMSA/LA_1076/IMG_4_1076.jpg"",""SV_PolicingMSA/LA_1076/IMG_3_1076.jpg"",""SV_PolicingMSA/LA_1076/IMG_6_1076.jpg"",""SV_PolicingMSA/LA_1076/IMG_11_1076.jpg""]","1","","","","","","5","","4","[""./rc_img/cop_condGroup_1_SafeStreets_autoscaled.png"",""./rc_img/cop_condGroup_1_CommunitySafety_autoscaled.png""]","7","",""
"sliderTrial","html-slider-response","39","161427","0.0-39.0","","656776a7904ae00d6b91d1dd","6568adac8141dc6f6d24e0d8","2","","","","","","","","","","","","4060","[""SV_PolicingMSA/LA_1076/IMG_5_1076.jpg"",""SV_PolicingMSA/LA_1076/IMG_8_1076.jpg"",""SV_PolicingMSA/LA_1076/IMG_14_1076.jpg"",""SV_PolicingMSA/LA_1076/IMG_12_1076.jpg"",""SV_PolicingMSA/LA_1076/IMG_4_1076.jpg"",""SV_PolicingMSA/LA_1076/IMG_3_1076.jpg"",""SV_PolicingMSA/LA_1076/IMG_6_1076.jpg"",""SV_PolicingMSA/LA_1076/IMG_11_1076.jpg""]","1","","","","","","5","","4","[""./rc_img/cop_condGroup_20_SafeStreets_autoscaled.png"",""./rc_img/cop_condGroup_20_CommunitySafety_autoscaled.png""]","7","",""
"before_SVSlide_prompt","html-button-response","40","163005","0.0-40.0","","656776a7904ae00d6b91d1dd","6568adac8141dc6f6d24e0d8","2","","","","","","","","","","","","1577","Click [Next] to see the next neighborhood!","0","","","","","","","","","","","",""
"street view slide show","image-button-response","41","164010","0.0-41.0","","656776a7904ae00d6b91d1dd","6568adac8141dc6f6d24e0d8","2","","","","","","","","","","","","null","stimulus/SV_PolicingMSA/LA_546/IMG_11_546.jpg","null","","","","","","1","","","","","",""
"street view slide show","image-button-response","42","165012","0.0-42.0","","656776a7904ae00d6b91d1dd","6568adac8141dc6f6d24e0d8","2","","","","","","","","","","","","null","stimulus/SV_PolicingMSA/LA_546/IMG_9_546.jpg","null","","","","","","1","","","","","",""
"street view slide show","image-button-response","43","166020","0.0-43.0","","656776a7904ae00d6b91d1dd","6568adac8141dc6f6d24e0d8","2","","","","","","","","","","","","null","stimulus/SV_PolicingMSA/LA_546/IMG_2_546.jpg","null","","","","","","1","","","","","",""
"street view slide show","image-button-response","44","167022","0.0-44.0","","656776a7904ae00d6b91d1dd","6568adac8141dc6f6d24e0d8","2","","","","","","","","","","","","null","stimulus/SV_PolicingMSA/LA_546/IMG_3_546.jpg","null","","","","","","1","","","","","",""
"street view slide show","image-button-response","45","168028","0.0-45.0","","656776a7904ae00d6b91d1dd","6568adac8141dc6f6d24e0d8","2","","","","","","","","","","","","null","stimulus/SV_PolicingMSA/LA_546/IMG_6_546.jpg","null","","","","","","1","","","","","",""
"street view slide show","image-button-response","46","169030","0.0-46.0","","656776a7904ae00d6b91d1dd","6568adac8141dc6f6d24e0d8","2","","","","","","","","","","","","null","stimulus/SV_PolicingMSA/LA_546/IMG_13_546.jpg","null","","","","","","1","","","","","",""
"street view slide show","image-button-response","47","170037","0.0-47.0","","656776a7904ae00d6b91d1dd","6568adac8141dc6f6d24e0d8","2","","","","","","","","","","","","null","stimulus/SV_PolicingMSA/LA_546/IMG_1_546.jpg","null","","","","","","1","","","","","",""
"street view slide show","image-button-response","48","171039","0.0-48.0","","656776a7904ae00d6b91d1dd","6568adac8141dc6f6d24e0d8","2","","","","","","","","","","","","null","stimulus/SV_PolicingMSA/LA_546/IMG_14_546.jpg","null","","","","","","1","","","","","",""
"dot matrix survey1","survey","49","180366","0.0-49.0","","656776a7904ae00d6b91d1dd","6568adac8141dc6f6d24e0d8","2","","","","","","","","","","","","9312","","{""P0_Q0"":null,""P0_Q1"":{""wealthy"":1,""safe"":2,""walkable"":2,""traditional"":2,""diverse"":2}}","","","","","","1","[]","","","","",""
"dot matrix survey2","survey","50","195992","0.0-50.0","","656776a7904ae00d6b91d1dd","6568adac8141dc6f6d24e0d8","2","","","","","","","","","","","","15618","","{""P0_Q0"":null,""P0_Q1"":{""violence"":1,""crime"":1,""drug"":1,""schools"":1,""opportunities"":1}}","","","","","","1","[]","","","","",""
"dot matrix survey3","survey","51","204739","0.0-51.0","","656776a7904ae00d6b91d1dd","6568adac8141dc6f6d24e0d8","2","","","","","","","","","","","","8736","","{""P0_Q0"":null,""P0_Q1"":{""movein"":0,""moveout"":4,""shopping"":0,""walk"":0,""park"":0,""school"":0}}","","","","","","1","[]","","","","",""
"sliderTrial","html-slider-response","52","209289","0.0-52.0","","656776a7904ae00d6b91d1dd","6568adac8141dc6f6d24e0d8","2","","","","","","","","","","","","4548","[""SV_PolicingMSA/LA_546/IMG_11_546.jpg"",""SV_PolicingMSA/LA_546/IMG_9_546.jpg"",""SV_PolicingMSA/LA_546/IMG_2_546.jpg"",""SV_PolicingMSA/LA_546/IMG_3_546.jpg"",""SV_PolicingMSA/LA_546/IMG_6_546.jpg"",""SV_PolicingMSA/LA_546/IMG_13_546.jpg"",""SV_PolicingMSA/LA_546/IMG_1_546.jpg"",""SV_PolicingMSA/LA_546/IMG_14_546.jpg""]","1","","","","","","1","","4","[""./rc_img/cop_condGroup_15_SafeStreets_autoscaled.png"",""./rc_img/cop_condGroup_15_CommunitySafety_autoscaled.png""]","7","",""
"sliderTrial","html-slider-response","53","213597","0.0-53.0","","656776a7904ae00d6b91d1dd","6568adac8141dc6f6d24e0d8","2","","","","","","","","","","","","4307","[""SV_PolicingMSA/LA_546/IMG_11_546.jpg"",""SV_PolicingMSA/LA_546/IMG_9_546.jpg"",""SV_PolicingMSA/LA_546/IMG_2_546.jpg"",""SV_PolicingMSA/LA_546/IMG_3_546.jpg"",""SV_PolicingMSA/LA_546/IMG_6_546.jpg"",""SV_PolicingMSA/LA_546/IMG_13_546.jpg"",""SV_PolicingMSA/LA_546/IMG_1_546.jpg"",""SV_PolicingMSA/LA_546/IMG_14_546.jpg""]","1","","","","","","1","","4","[""./rc_img/cop_condGroup_8_SafeStreets_autoscaled.png"",""./rc_img/cop_condGroup_8_CommunitySafety_autoscaled.png""]","7","",""
"sliderTrial","html-slider-response","54","216865","0.0-54.0","","656776a7904ae00d6b91d1dd","6568adac8141dc6f6d24e0d8","2","","","","","","","","","","","","3266","[""SV_PolicingMSA/LA_546/IMG_11_546.jpg"",""SV_PolicingMSA/LA_546/IMG_9_546.jpg"",""SV_PolicingMSA/LA_546/IMG_2_546.jpg"",""SV_PolicingMSA/LA_546/IMG_3_546.jpg"",""SV_PolicingMSA/LA_546/IMG_6_546.jpg"",""SV_PolicingMSA/LA_546/IMG_13_546.jpg"",""SV_PolicingMSA/LA_546/IMG_1_546.jpg"",""SV_PolicingMSA/LA_546/IMG_14_546.jpg""]","1","","","","","","1","","4","[""./rc_img/cop_condGroup_17_SafeStreets_autoscaled.png"",""./rc_img/cop_condGroup_17_CommunitySafety_autoscaled.png""]","7","",""
"sliderTrial","html-slider-response","55","219920","0.0-55.0","","656776a7904ae00d6b91d1dd","6568adac8141dc6f6d24e0d8","2","","","","","","","","","","","","3053","[""SV_PolicingMSA/LA_546/IMG_11_546.jpg"",""SV_PolicingMSA/LA_546/IMG_9_546.jpg"",""SV_PolicingMSA/LA_546/IMG_2_546.jpg"",""SV_PolicingMSA/LA_546/IMG_3_546.jpg"",""SV_PolicingMSA/LA_546/IMG_6_546.jpg"",""SV_PolicingMSA/LA_546/IMG_13_546.jpg"",""SV_PolicingMSA/LA_546/IMG_1_546.jpg"",""SV_PolicingMSA/LA_546/IMG_14_546.jpg""]","1","","","","","","1","","4","[""./rc_img/cop_condGroup_5_SafeStreets_autoscaled.png"",""./rc_img/cop_condGroup_5_CommunitySafety_autoscaled.png""]","7","",""
"sliderTrial_attention","html-slider-response","56","229925","0.0-56.0","","656776a7904ae00d6b91d1dd","6568adac8141dc6f6d24e0d8","2","","","","","","","","","","","","null","[""SV_PolicingMSA/LA_546/IMG_11_546.jpg"",""SV_PolicingMSA/LA_546/IMG_9_546.jpg"",""SV_PolicingMSA/LA_546/IMG_2_546.jpg"",""SV_PolicingMSA/LA_546/IMG_3_546.jpg"",""SV_PolicingMSA/LA_546/IMG_6_546.jpg"",""SV_PolicingMSA/LA_546/IMG_13_546.jpg"",""SV_PolicingMSA/LA_546/IMG_1_546.jpg"",""SV_PolicingMSA/LA_546/IMG_14_546.jpg""]","null","","","","","","1","","4","[""./assets/img/attnchk.png"",""./assets/img/attnchk.png""]","","true",""
"sliderTrial","html-slider-response","57","234117","0.0-57.0","","656776a7904ae00d6b91d1dd","6568adac8141dc6f6d24e0d8","2","","","","","","","","","","","","4189","[""SV_PolicingMSA/LA_546/IMG_11_546.jpg"",""SV_PolicingMSA/LA_546/IMG_9_546.jpg"",""SV_PolicingMSA/LA_546/IMG_2_546.jpg"",""SV_PolicingMSA/LA_546/IMG_3_546.jpg"",""SV_PolicingMSA/LA_546/IMG_6_546.jpg"",""SV_PolicingMSA/LA_546/IMG_13_546.jpg"",""SV_PolicingMSA/LA_546/IMG_1_546.jpg"",""SV_PolicingMSA/LA_546/IMG_14_546.jpg""]","7","","","","","","1","","4","[""./rc_img/cop_condGroup_7_CommunitySafety_autoscaled.png"",""./rc_img/cop_condGroup_7_SafeStreets_autoscaled.png""]","7","",""
"before_SVSlide_prompt","html-button-response","58","235824","0.0-58.0","","656776a7904ae00d6b91d1dd","6568adac8141dc6f6d24e0d8","2","","","","","","","","","","","","1706","Click [Next] to see the next neighborhood!","0","","","","","","","","","","","",""
"street view slide show","image-button-response","59","236826","0.0-59.0","","656776a7904ae00d6b91d1dd","6568adac8141dc6f6d24e0d8","2","","","","","","","","","","","","null","stimulus/SV_PolicingMSA/LA_599/IMG_2_599.jpg","null","","","","","","3","","","","","",""
"street view slide show","image-button-response","60","237831","0.0-60.0","","656776a7904ae00d6b91d1dd","6568adac8141dc6f6d24e0d8","2","","","","","","","","","","","","null","stimulus/SV_PolicingMSA/LA_599/IMG_4_599.jpg","null","","","","","","3","","","","","",""
"street view slide show","image-button-response","61","238838","0.0-61.0","","656776a7904ae00d6b91d1dd","6568adac8141dc6f6d24e0d8","2","","","","","","","","","","","","null","stimulus/SV_PolicingMSA/LA_599/IMG_1_599.jpg","null","","","","","","3","","","","","",""
"street view slide show","image-button-response","62","239841","0.0-62.0","","656776a7904ae00d6b91d1dd","6568adac8141dc6f6d24e0d8","2","","","","","","","","","","","","null","stimulus/SV_PolicingMSA/LA_599/IMG_9_599.jpg","null","","","","","","3","","","","","",""
"street view slide show","image-button-response","63","240847","0.0-63.0","","656776a7904ae00d6b91d1dd","6568adac8141dc6f6d24e0d8","2","","","","","","","","","","","","null","stimulus/SV_PolicingMSA/LA_599/IMG_11_599.jpg","null","","","","","","3","","","","","",""
"street view slide show","image-button-response","64","241850","0.0-64.0","","656776a7904ae00d6b91d1dd","6568adac8141dc6f6d24e0d8","2","","","","","","","","","","","","null","stimulus/SV_PolicingMSA/LA_599/IMG_3_599.jpg","null","","","","","","3","","","","","",""
"street view slide show","image-button-response","65","242856","0.0-65.0","","656776a7904ae00d6b91d1dd","6568adac8141dc6f6d24e0d8","2","","","","","","","","","","","","null","stimulus/SV_PolicingMSA/LA_599/IMG_5_599.jpg","null","","","","","","3","","","","","",""
"street view slide show","image-button-response","66","243859","0.0-66.0","","656776a7904ae00d6b91d1dd","6568adac8141dc6f6d24e0d8","2","","","","","","","","","","","","null","stimulus/SV_PolicingMSA/LA_599/IMG_8_599.jpg","null","","","","","","3","","","","","",""
"dot matrix survey1","survey","67","268620","0.0-67.0","","656776a7904ae00d6b91d1dd","6568adac8141dc6f6d24e0d8","2","","","","","","","","","","","","24747","","{""P0_Q0"":null,""P0_Q1"":{""wealthy"":3,""safe"":3,""walkable"":3,""traditional"":3,""diverse"":0}}","","","","","","3","[]","","","","",""
"dot matrix survey2","survey","68","278816","0.0-68.0","","656776a7904ae00d6b91d1dd","6568adac8141dc6f6d24e0d8","2","","","","","","","","","","","","10185","","{""P0_Q0"":null,""P0_Q1"":{""violence"":0,""crime"":0,""drug"":0,""schools"":3,""opportunities"":3}}","","","","","","3","[]","","","","",""
"dot matrix survey3","survey","69","305940","0.0-69.0","","656776a7904ae00d6b91d1dd","6568adac8141dc6f6d24e0d8","2","","","","","","","","","","","","27116","","{""P0_Q0"":null,""P0_Q1"":{""movein"":2,""moveout"":1,""shopping"":2,""walk"":1,""park"":2,""school"":2}}","","","","","","3","[]","","","","",""
"sliderTrial","html-slider-response","70","311156","0.0-70.0","","656776a7904ae00d6b91d1dd","6568adac8141dc6f6d24e0d8","2","","","","","","","","","","","","5214","[""SV_PolicingMSA/LA_599/IMG_2_599.jpg"",""SV_PolicingMSA/LA_599/IMG_4_599.jpg"",""SV_PolicingMSA/LA_599/IMG_1_599.jpg"",""SV_PolicingMSA/LA_599/IMG_9_599.jpg"",""SV_PolicingMSA/LA_599/IMG_11_599.jpg"",""SV_PolicingMSA/LA_599/IMG_3_599.jpg"",""SV_PolicingMSA/LA_599/IMG_5_599.jpg"",""SV_PolicingMSA/LA_599/IMG_8_599.jpg""]","7","","","","","","3","","4","[""./rc_img/cop_condGroup_19_SafeStreets_autoscaled.png"",""./rc_img/cop_condGroup_19_CommunitySafety_autoscaled.png""]","1","",""
"sliderTrial","html-slider-response","71","315845","0.0-71.0","","656776a7904ae00d6b91d1dd","6568adac8141dc6f6d24e0d8","2","","","","","","","","","","","","4687","[""SV_PolicingMSA/LA_599/IMG_2_599.jpg"",""SV_PolicingMSA/LA_599/IMG_4_599.jpg"",""SV_PolicingMSA/LA_599/IMG_1_599.jpg"",""SV_PolicingMSA/LA_599/IMG_9_599.jpg"",""SV_PolicingMSA/LA_599/IMG_11_599.jpg"",""SV_PolicingMSA/LA_599/IMG_3_599.jpg"",""SV_PolicingMSA/LA_599/IMG_5_599.jpg"",""SV_PolicingMSA/LA_599/IMG_8_599.jpg""]","1","","","","","","3","","4","[""./rc_img/cop_condGroup_14_CommunitySafety_autoscaled.png"",""./rc_img/cop_condGroup_14_SafeStreets_autoscaled.png""]","1","",""
"sliderTrial","html-slider-response","72","320774","0.0-72.0","","656776a7904ae00d6b91d1dd","6568adac8141dc6f6d24e0d8","2","","","","","","","","","","","","4926","[""SV_PolicingMSA/LA_599/IMG_2_599.jpg"",""SV_PolicingMSA/LA_599/IMG_4_599.jpg"",""SV_PolicingMSA/LA_599/IMG_1_599.jpg"",""SV_PolicingMSA/LA_599/IMG_9_599.jpg"",""SV_PolicingMSA/LA_599/IMG_11_599.jpg"",""SV_PolicingMSA/LA_599/IMG_3_599.jpg"",""SV_PolicingMSA/LA_599/IMG_5_599.jpg"",""SV_PolicingMSA/LA_599/IMG_8_599.jpg""]","1","","","","","","3","","4","[""./rc_img/cop_condGroup_2_CommunitySafety_autoscaled.png"",""./rc_img/cop_condGroup_2_SafeStreets_autoscaled.png""]","1","",""
"sliderTrial","html-slider-response","73","324270","0.0-73.0","","656776a7904ae00d6b91d1dd","6568adac8141dc6f6d24e0d8","2","","","","","","","","","","","","3494","[""SV_PolicingMSA/LA_599/IMG_2_599.jpg"",""SV_PolicingMSA/LA_599/IMG_4_599.jpg"",""SV_PolicingMSA/LA_599/IMG_1_599.jpg"",""SV_PolicingMSA/LA_599/IMG_9_599.jpg"",""SV_PolicingMSA/LA_599/IMG_11_599.jpg"",""SV_PolicingMSA/LA_599/IMG_3_599.jpg"",""SV_PolicingMSA/LA_599/IMG_5_599.jpg"",""SV_PolicingMSA/LA_599/IMG_8_599.jpg""]","7","","","","","","3","","4","[""./rc_img/cop_condGroup_1_SafeStreets_autoscaled.png"",""./rc_img/cop_condGroup_1_CommunitySafety_autoscaled.png""]","1","",""
"sliderTrial","html-slider-response","74","328390","0.0-74.0","","656776a7904ae00d6b91d1dd","6568adac8141dc6f6d24e0d8","2","","","","","","","","","","","","4118","[""SV_PolicingMSA/LA_599/IMG_2_599.jpg"",""SV_PolicingMSA/LA_599/IMG_4_599.jpg"",""SV_PolicingMSA/LA_599/IMG_1_599.jpg"",""SV_PolicingMSA/LA_599/IMG_9_599.jpg"",""SV_PolicingMSA/LA_599/IMG_11_599.jpg"",""SV_PolicingMSA/LA_599/IMG_3_599.jpg"",""SV_PolicingMSA/LA_599/IMG_5_599.jpg"",""SV_PolicingMSA/LA_599/IMG_8_599.jpg""]","7","","","","","","3","","4","[""./rc_img/cop_condGroup_20_SafeStreets_autoscaled.png"",""./rc_img/cop_condGroup_20_CommunitySafety_autoscaled.png""]","1","",""
"half-way","html-button-response","75","344143","0.0-75.0","","656776a7904ae00d6b91d1dd","6568adac8141dc6f6d24e0d8","2","","","","","","","","","","","","null","
    <h3>You are now half way through the study.</h3>
    <p>Please take a quick, 15-second break before you continue.</p>
    <img src='assets/img/countdown-15.gif'>
    <p>The study will automatically advance forward after the countdown is complete. <br> However, you may click ""Next"" to advance forward now if you wish.</p>
    ","null","","","","","","","","","","","",""
"before_SVSlide_prompt","html-button-response","76","345786","0.0-76.0","","656776a7904ae00d6b91d1dd","6568adac8141dc6f6d24e0d8","2","","","","","","","","","","","","1642","Click [Next] to see the next neighborhood!","0","","","","","","","","","","","",""
"street view slide show","image-button-response","77","346792","0.0-77.0","","656776a7904ae00d6b91d1dd","6568adac8141dc6f6d24e0d8","2","","","","","","","","","","","","null","stimulus/SV_PolicingMSA/LA_447/IMG_2_447.jpg","null","","","","","","3","","","","","",""
"street view slide show","image-button-response","78","347795","0.0-78.0","","656776a7904ae00d6b91d1dd","6568adac8141dc6f6d24e0d8","2","","","","","","","","","","","","null","stimulus/SV_PolicingMSA/LA_447/IMG_7_447.jpg","null","","","","","","3","","","","","",""
"street view slide show","image-button-response","79","348801","0.0-79.0","","656776a7904ae00d6b91d1dd","6568adac8141dc6f6d24e0d8","2","","","","","","","","","","","","null","stimulus/SV_PolicingMSA/LA_447/IMG_3_447.jpg","null","","","","","","3","","","","","",""
"street view slide show","image-button-response","80","349804","0.0-80.0","","656776a7904ae00d6b91d1dd","6568adac8141dc6f6d24e0d8","2","","","","","","","","","","","","null","stimulus/SV_PolicingMSA/LA_447/IMG_10_447.jpg","null","","","","","","3","","","","","",""
"street view slide show","image-button-response","81","350811","0.0-81.0","","656776a7904ae00d6b91d1dd","6568adac8141dc6f6d24e0d8","2","","","","","","","","","","","","null","stimulus/SV_PolicingMSA/LA_447/IMG_0_447.jpg","null","","","","","","3","","","","","",""
"street view slide show","image-button-response","82","351813","0.0-82.0","","656776a7904ae00d6b91d1dd","6568adac8141dc6f6d24e0d8","2","","","","","","","","","","","","null","stimulus/SV_PolicingMSA/LA_447/IMG_14_447.jpg","null","","","","","","3","","","","","",""
"street view slide show","image-button-response","83","352818","0.0-83.0","","656776a7904ae00d6b91d1dd","6568adac8141dc6f6d24e0d8","2","","","","","","","","","","","","null","stimulus/SV_PolicingMSA/LA_447/IMG_5_447.jpg","null","","","","","","3","","","","","",""
"street view slide show","image-button-response","84","353820","0.0-84.0","","656776a7904ae00d6b91d1dd","6568adac8141dc6f6d24e0d8","2","","","","","","","","","","","","null","stimulus/SV_PolicingMSA/LA_447/IMG_9_447.jpg","null","","","","","","3","","","","","",""
"dot matrix survey1","survey","85","379000","0.0-85.0","","656776a7904ae00d6b91d1dd","6568adac8141dc6f6d24e0d8","2","","","","","","","","","","","","25162","","{""P0_Q0"":null,""P0_Q1"":{""wealthy"":2,""safe"":2,""walkable"":2,""traditional"":2,""diverse"":1}}","","","","","","3","[]","","","","",""
"dot matrix survey2","survey","86","390966","0.0-86.0","","656776a7904ae00d6b91d1dd","6568adac8141dc6f6d24e0d8","2","","","","","","","","","","","","11957","","{""P0_Q0"":null,""P0_Q1"":{""violence"":0,""crime"":0,""drug"":0,""schools"":2,""opportunities"":2}}","","","","","","3","[]","","","","",""
"dot matrix survey3","survey","87","411181","0.0-87.0","","656776a7904ae00d6b91d1dd","6568adac8141dc6f6d24e0d8","2","","","","","","","","","","","","20205","","{""P0_Q0"":null,""P0_Q1"":{""movein"":0,""moveout"":4,""shopping"":0,""walk"":0,""park"":0,""school"":0}}","","","","","","3","[]","","","","",""
"sliderTrial","html-slider-response","88","416876","0.0-88.0","","656776a7904ae00d6b91d1dd","6568adac8141dc6f6d24e0d8","2","","","","","","","","","","","","5692","[""SV_PolicingMSA/LA_447/IMG_2_447.jpg"",""SV_PolicingMSA/LA_447/IMG_7_447.jpg"",""SV_PolicingMSA/LA_447/IMG_3_447.jpg"",""SV_PolicingMSA/LA_447/IMG_10_447.jpg"",""SV_PolicingMSA/LA_447/IMG_0_447.jpg"",""SV_PolicingMSA/LA_447/IMG_14_447.jpg"",""SV_PolicingMSA/LA_447/IMG_5_447.jpg"",""SV_PolicingMSA/LA_447/IMG_9_447.jpg""]","1","","","","","","3","","4","[""./rc_img/cop_condGroup_15_SafeStreets_autoscaled.png"",""./rc_img/cop_condGroup_15_CommunitySafety_autoscaled.png""]","7","",""
"sliderTrial","html-slider-response","89","422119","0.0-89.0","","656776a7904ae00d6b91d1dd","6568adac8141dc6f6d24e0d8","2","","","","","","","","","","","","5242","[""SV_PolicingMSA/LA_447/IMG_2_447.jpg"",""SV_PolicingMSA/LA_447/IMG_7_447.jpg"",""SV_PolicingMSA/LA_447/IMG_3_447.jpg"",""SV_PolicingMSA/LA_447/IMG_10_447.jpg"",""SV_PolicingMSA/LA_447/IMG_0_447.jpg"",""SV_PolicingMSA/LA_447/IMG_14_447.jpg"",""SV_PolicingMSA/LA_447/IMG_5_447.jpg"",""SV_PolicingMSA/LA_447/IMG_9_447.jpg""]","1","","","","","","3","","4","[""./rc_img/cop_condGroup_8_SafeStreets_autoscaled.png"",""./rc_img/cop_condGroup_8_CommunitySafety_autoscaled.png""]","7","",""
"sliderTrial","html-slider-response","90","425858","0.0-90.0","","656776a7904ae00d6b91d1dd","6568adac8141dc6f6d24e0d8","2","","","","","","","","","","","","3737","[""SV_PolicingMSA/LA_447/IMG_2_447.jpg"",""SV_PolicingMSA/LA_447/IMG_7_447.jpg"",""SV_PolicingMSA/LA_447/IMG_3_447.jpg"",""SV_PolicingMSA/LA_447/IMG_10_447.jpg"",""SV_PolicingMSA/LA_447/IMG_0_447.jpg"",""SV_PolicingMSA/LA_447/IMG_14_447.jpg"",""SV_PolicingMSA/LA_447/IMG_5_447.jpg"",""SV_PolicingMSA/LA_447/IMG_9_447.jpg""]","1","","","","","","3","","4","[""./rc_img/cop_condGroup_17_SafeStreets_autoscaled.png"",""./rc_img/cop_condGroup_17_CommunitySafety_autoscaled.png""]","7","",""
"sliderTrial","html-slider-response","91","429208","0.0-91.0","","656776a7904ae00d6b91d1dd","6568adac8141dc6f6d24e0d8","2","","","","","","","","","","","","3347","[""SV_PolicingMSA/LA_447/IMG_2_447.jpg"",""SV_PolicingMSA/LA_447/IMG_7_447.jpg"",""SV_PolicingMSA/LA_447/IMG_3_447.jpg"",""SV_PolicingMSA/LA_447/IMG_10_447.jpg"",""SV_PolicingMSA/LA_447/IMG_0_447.jpg"",""SV_PolicingMSA/LA_447/IMG_14_447.jpg"",""SV_PolicingMSA/LA_447/IMG_5_447.jpg"",""SV_PolicingMSA/LA_447/IMG_9_447.jpg""]","1","","","","","","3","","4","[""./rc_img/cop_condGroup_5_SafeStreets_autoscaled.png"",""./rc_img/cop_condGroup_5_CommunitySafety_autoscaled.png""]","7","",""
"sliderTrial","html-slider-response","92","432458","0.0-92.0","","656776a7904ae00d6b91d1dd","6568adac8141dc6f6d24e0d8","2","","","","","","","","","","","","3249","[""SV_PolicingMSA/LA_447/IMG_2_447.jpg"",""SV_PolicingMSA/LA_447/IMG_7_447.jpg"",""SV_PolicingMSA/LA_447/IMG_3_447.jpg"",""SV_PolicingMSA/LA_447/IMG_10_447.jpg"",""SV_PolicingMSA/LA_447/IMG_0_447.jpg"",""SV_PolicingMSA/LA_447/IMG_14_447.jpg"",""SV_PolicingMSA/LA_447/IMG_5_447.jpg"",""SV_PolicingMSA/LA_447/IMG_9_447.jpg""]","7","","","","","","3","","4","[""./rc_img/cop_condGroup_7_CommunitySafety_autoscaled.png"",""./rc_img/cop_condGroup_7_SafeStreets_autoscaled.png""]","7","",""
"before_SVSlide_prompt","html-button-response","93","434289","0.0-93.0","","656776a7904ae00d6b91d1dd","6568adac8141dc6f6d24e0d8","2","","","","","","","","","","","","1829","Click [Next] to see the next neighborhood!","0","","","","","","","","","","","",""
"street view slide show","image-button-response","94","435294","0.0-94.0","","656776a7904ae00d6b91d1dd","6568adac8141dc6f6d24e0d8","2","","","","","","","","","","","","null","stimulus/SV_PolicingMSA/LA_55/IMG_2_55.jpg","null","","","","","","0","","","","","",""
"street view slide show","image-button-response","95","436296","0.0-95.0","","656776a7904ae00d6b91d1dd","6568adac8141dc6f6d24e0d8","2","","","","","","","","","","","","null","stimulus/SV_PolicingMSA/LA_55/IMG_0_55.jpg","null","","","","","","0","","","","","",""
"street view slide show","image-button-response","96","437303","0.0-96.0","","656776a7904ae00d6b91d1dd","6568adac8141dc6f6d24e0d8","2","","","","","","","","","","","","null","stimulus/SV_PolicingMSA/LA_55/IMG_14_55.jpg","null","","","","","","0","","","","","",""
"street view slide show","image-button-response","97","438304","0.0-97.0","","656776a7904ae00d6b91d1dd","6568adac8141dc6f6d24e0d8","2","","","","","","","","","","","","null","stimulus/SV_PolicingMSA/LA_55/IMG_3_55.jpg","null","","","","","","0","","","","","",""
"street view slide show","image-button-response","98","439309","0.0-98.0","","656776a7904ae00d6b91d1dd","6568adac8141dc6f6d24e0d8","2","","","","","","","","","","","","null","stimulus/SV_PolicingMSA/LA_55/IMG_8_55.jpg","null","","","","","","0","","","","","",""
"street view slide show","image-button-response","99","440311","0.0-99.0","","656776a7904ae00d6b91d1dd","6568adac8141dc6f6d24e0d8","2","","","","","","","","","","","","null","stimulus/SV_PolicingMSA/LA_55/IMG_10_55.jpg","null","","","","","","0","","","","","",""
"street view slide show","image-button-response","100","441318","0.0-100.0","","656776a7904ae00d6b91d1dd","6568adac8141dc6f6d24e0d8","2","","","","","","","","","","","","null","stimulus/SV_PolicingMSA/LA_55/IMG_9_55.jpg","null","","","","","","0","","","","","",""
"street view slide show","image-button-response","101","442320","0.0-101.0","","656776a7904ae00d6b91d1dd","6568adac8141dc6f6d24e0d8","2","","","","","","","","","","","","null","stimulus/SV_PolicingMSA/LA_55/IMG_4_55.jpg","null","","","","","","0","","","","","",""
"dot matrix survey1","survey","102","452207","0.0-102.0","","656776a7904ae00d6b91d1dd","6568adac8141dc6f6d24e0d8","2","","","","","","","","","","","","9869","","{""P0_Q0"":null,""P0_Q1"":{""wealthy"":1,""safe"":2,""walkable"":2,""traditional"":2,""diverse"":2}}","","","","","","0","[]","","","","",""
"dot matrix survey2","survey","103","464651","0.0-103.0","","656776a7904ae00d6b91d1dd","6568adac8141dc6f6d24e0d8","2","","","","","","","","","","","","12436","","{""P0_Q0"":null,""P0_Q1"":{""violence"":1,""crime"":1,""drug"":1,""schools"":1,""opportunities"":1}}","","","","","","0","[]","","","","",""
"dot matrix survey3","survey","104","472709","0.0-104.0","","656776a7904ae00d6b91d1dd","6568adac8141dc6f6d24e0d8","2","","","","","","","","","","","","8049","","{""P0_Q0"":null,""P0_Q1"":{""movein"":0,""moveout"":4,""shopping"":0,""walk"":0,""park"":0,""school"":0}}","","","","","","0","[]","","","","",""
"sliderTrial","html-slider-response","105","477043","0.0-105.0","","656776a7904ae00d6b91d1dd","6568adac8141dc6f6d24e0d8","2","","","","","","","","","","","","4331","[""SV_PolicingMSA/LA_55/IMG_2_55.jpg"",""SV_PolicingMSA/LA_55/IMG_0_55.jpg"",""SV_PolicingMSA/LA_55/IMG_14_55.jpg"",""SV_PolicingMSA/LA_55/IMG_3_55.jpg"",""SV_PolicingMSA/LA_55/IMG_8_55.jpg"",""SV_PolicingMSA/LA_55/IMG_10_55.jpg"",""SV_PolicingMSA/LA_55/IMG_9_55.jpg"",""SV_PolicingMSA/LA_55/IMG_4_55.jpg""]","1","","","","","","0","","4","[""./rc_img/cop_condGroup_12_SafeStreets_autoscaled.png"",""./rc_img/cop_condGroup_12_CommunitySafety_autoscaled.png""]","7","",""
"sliderTrial","html-slider-response","106","480490","0.0-106.0","","656776a7904ae00d6b91d1dd","6568adac8141dc6f6d24e0d8","2","","","","","","","","","","","","3444","[""SV_PolicingMSA/LA_55/IMG_2_55.jpg"",""SV_PolicingMSA/LA_55/IMG_0_55.jpg"",""SV_PolicingMSA/LA_55/IMG_14_55.jpg"",""SV_PolicingMSA/LA_55/IMG_3_55.jpg"",""SV_PolicingMSA/LA_55/IMG_8_55.jpg"",""SV_PolicingMSA/LA_55/IMG_10_55.jpg"",""SV_PolicingMSA/LA_55/IMG_9_55.jpg"",""SV_PolicingMSA/LA_55/IMG_4_55.jpg""]","1","","","","","","0","","4","[""./rc_img/cop_condGroup_4_SafeStreets_autoscaled.png"",""./rc_img/cop_condGroup_4_CommunitySafety_autoscaled.png""]","7","",""
"sliderTrial_attention","html-slider-response","107","490498","0.0-107.0","","656776a7904ae00d6b91d1dd","6568adac8141dc6f6d24e0d8","2","","","","","","","","","","","","null","[""SV_PolicingMSA/LA_55/IMG_2_55.jpg"",""SV_PolicingMSA/LA_55/IMG_0_55.jpg"",""SV_PolicingMSA/LA_55/IMG_14_55.jpg"",""SV_PolicingMSA/LA_55/IMG_3_55.jpg"",""SV_PolicingMSA/LA_55/IMG_8_55.jpg"",""SV_PolicingMSA/LA_55/IMG_10_55.jpg"",""SV_PolicingMSA/LA_55/IMG_9_55.jpg"",""SV_PolicingMSA/LA_55/IMG_4_55.jpg""]","null","","","","","","0","","4","[""./assets/img/attnchk.png"",""./assets/img/attnchk.png""]","","true",""
"sliderTrial","html-slider-response","108","494079","0.0-108.0","","656776a7904ae00d6b91d1dd","6568adac8141dc6f6d24e0d8","2","","","","","","","","","","","","3578","[""SV_PolicingMSA/LA_55/IMG_2_55.jpg"",""SV_PolicingMSA/LA_55/IMG_0_55.jpg"",""SV_PolicingMSA/LA_55/IMG_14_55.jpg"",""SV_PolicingMSA/LA_55/IMG_3_55.jpg"",""SV_PolicingMSA/LA_55/IMG_8_55.jpg"",""SV_PolicingMSA/LA_55/IMG_10_55.jpg"",""SV_PolicingMSA/LA_55/IMG_9_55.jpg"",""SV_PolicingMSA/LA_55/IMG_4_55.jpg""]","7","","","","","","0","","4","[""./rc_img/cop_condGroup_13_CommunitySafety_autoscaled.png"",""./rc_img/cop_condGroup_13_SafeStreets_autoscaled.png""]","7","",""
"sliderTrial","html-slider-response","109","497234","0.0-109.0","","656776a7904ae00d6b91d1dd","6568adac8141dc6f6d24e0d8","2","","","","","","","","","","","","3153","[""SV_PolicingMSA/LA_55/IMG_2_55.jpg"",""SV_PolicingMSA/LA_55/IMG_0_55.jpg"",""SV_PolicingMSA/LA_55/IMG_14_55.jpg"",""SV_PolicingMSA/LA_55/IMG_3_55.jpg"",""SV_PolicingMSA/LA_55/IMG_8_55.jpg"",""SV_PolicingMSA/LA_55/IMG_10_55.jpg"",""SV_PolicingMSA/LA_55/IMG_9_55.jpg"",""SV_PolicingMSA/LA_55/IMG_4_55.jpg""]","7","","","","","","0","","4","[""./rc_img/cop_condGroup_6_CommunitySafety_autoscaled.png"",""./rc_img/cop_condGroup_6_SafeStreets_autoscaled.png""]","7","",""
"sliderTrial","html-slider-response","110","500217","0.0-110.0","","656776a7904ae00d6b91d1dd","6568adac8141dc6f6d24e0d8","2","","","","","","","","","","","","2981","[""SV_PolicingMSA/LA_55/IMG_2_55.jpg"",""SV_PolicingMSA/LA_55/IMG_0_55.jpg"",""SV_PolicingMSA/LA_55/IMG_14_55.jpg"",""SV_PolicingMSA/LA_55/IMG_3_55.jpg"",""SV_PolicingMSA/LA_55/IMG_8_55.jpg"",""SV_PolicingMSA/LA_55/IMG_10_55.jpg"",""SV_PolicingMSA/LA_55/IMG_9_55.jpg"",""SV_PolicingMSA/LA_55/IMG_4_55.jpg""]","7","","","","","","0","","4","[""./rc_img/cop_condGroup_18_CommunitySafety_autoscaled.png"",""./rc_img/cop_condGroup_18_SafeStreets_autoscaled.png""]","7","",""
"before_SVSlide_prompt","html-button-response","111","501979","0.0-111.0","","656776a7904ae00d6b91d1dd","6568adac8141dc6f6d24e0d8","2","","","","","","","","","","","","1761","Click [Next] to see the next neighborhood!","0","","","","","","","","","","","",""
"street view slide show","image-button-response","112","502986","0.0-112.0","","656776a7904ae00d6b91d1dd","6568adac8141dc6f6d24e0d8","2","","","","","","","","","","","","null","stimulus/SV_PolicingMSA/LA_42/IMG_0_42.jpg","null","","","","","","2","","","","","",""
"street view slide show","image-button-response","113","503989","0.0-113.0","","656776a7904ae00d6b91d1dd","6568adac8141dc6f6d24e0d8","2","","","","","","","","","","","","null","stimulus/SV_PolicingMSA/LA_42/IMG_5_42.jpg","null","","","","","","2","","","","","",""
"street view slide show","image-button-response","114","504996","0.0-114.0","","656776a7904ae00d6b91d1dd","6568adac8141dc6f6d24e0d8","2","","","","","","","","","","","","null","stimulus/SV_PolicingMSA/LA_42/IMG_2_42.jpg","null","","","","","","2","","","","","",""
"street view slide show","image-button-response","115","505998","0.0-115.0","","656776a7904ae00d6b91d1dd","6568adac8141dc6f6d24e0d8","2","","","","","","","","","","","","null","stimulus/SV_PolicingMSA/LA_42/IMG_1_42.jpg","null","","","","","","2","","","","","",""
"street view slide show","image-button-response","116","507004","0.0-116.0","","656776a7904ae00d6b91d1dd","6568adac8141dc6f6d24e0d8","2","","","","","","","","","","","","null","stimulus/SV_PolicingMSA/LA_42/IMG_10_42.jpg","null","","","","","","2","","","","","",""
"street view slide show","image-button-response","117","508007","0.0-117.0","","656776a7904ae00d6b91d1dd","6568adac8141dc6f6d24e0d8","2","","","","","","","","","","","","null","stimulus/SV_PolicingMSA/LA_42/IMG_7_42.jpg","null","","","","","","2","","","","","",""
"street view slide show","image-button-response","118","509014","0.0-118.0","","656776a7904ae00d6b91d1dd","6568adac8141dc6f6d24e0d8","2","","","","","","","","","","","","null","stimulus/SV_PolicingMSA/LA_42/IMG_13_42.jpg","null","","","","","","2","","","","","",""
"street view slide show","image-button-response","119","510017","0.0-119.0","","656776a7904ae00d6b91d1dd","6568adac8141dc6f6d24e0d8","2","","","","","","","","","","","","null","stimulus/SV_PolicingMSA/LA_42/IMG_14_42.jpg","null","","","","","","2","","","","","",""
"dot matrix survey1","survey","120","523876","0.0-120.0","","656776a7904ae00d6b91d1dd","6568adac8141dc6f6d24e0d8","2","","","","","","","","","","","","13844","","{""P0_Q0"":null,""P0_Q1"":{""wealthy"":3,""safe"":4,""walkable"":4,""traditional"":4,""diverse"":0}}","","","","","","2","[]","","","","",""
"dot matrix survey2","survey","121","540519","0.0-121.0","","656776a7904ae00d6b91d1dd","6568adac8141dc6f6d24e0d8","2","","","","","","","","","","","","16633","","{""P0_Q0"":null,""P0_Q1"":{""violence"":0,""crime"":0,""drug"":0,""schools"":4,""opportunities"":4}}","","","","","","2","[]","","","","",""
"dot matrix survey3","survey","122","562004","0.0-122.0","","656776a7904ae00d6b91d1dd","6568adac8141dc6f6d24e0d8","2","","","","","","","","","","","","21476","","{""P0_Q0"":null,""P0_Q1"":{""movein"":4,""moveout"":0,""shopping"":3,""walk"":2,""park"":3,""school"":3}}","","","","","","2","[]","","","","",""
"sliderTrial","html-slider-response","123","566842","0.0-123.0","","656776a7904ae00d6b91d1dd","6568adac8141dc6f6d24e0d8","2","","","","","","","","","","","","4837","[""SV_PolicingMSA/LA_42/IMG_0_42.jpg"",""SV_PolicingMSA/LA_42/IMG_5_42.jpg"",""SV_PolicingMSA/LA_42/IMG_2_42.jpg"",""SV_PolicingMSA/LA_42/IMG_1_42.jpg"",""SV_PolicingMSA/LA_42/IMG_10_42.jpg"",""SV_PolicingMSA/LA_42/IMG_7_42.jpg"",""SV_PolicingMSA/LA_42/IMG_13_42.jpg"",""SV_PolicingMSA/LA_42/IMG_14_42.jpg""]","7","","","","","","2","","4","[""./rc_img/cop_condGroup_12_SafeStreets_autoscaled.png"",""./rc_img/cop_condGroup_12_CommunitySafety_autoscaled.png""]","1","",""
"sliderTrial","html-slider-response","124","570442","0.0-124.0","","656776a7904ae00d6b91d1dd","6568adac8141dc6f6d24e0d8","2","","","","","","","","","","","","3597","[""SV_PolicingMSA/LA_42/IMG_0_42.jpg"",""SV_PolicingMSA/LA_42/IMG_5_42.jpg"",""SV_PolicingMSA/LA_42/IMG_2_42.jpg"",""SV_PolicingMSA/LA_42/IMG_1_42.jpg"",""SV_PolicingMSA/LA_42/IMG_10_42.jpg"",""SV_PolicingMSA/LA_42/IMG_7_42.jpg"",""SV_PolicingMSA/LA_42/IMG_13_42.jpg"",""SV_PolicingMSA/LA_42/IMG_14_42.jpg""]","7","","","","","","2","","4","[""./rc_img/cop_condGroup_4_SafeStreets_autoscaled.png"",""./rc_img/cop_condGroup_4_CommunitySafety_autoscaled.png""]","1","",""
"sliderTrial","html-slider-response","125","573408","0.0-125.0","","656776a7904ae00d6b91d1dd","6568adac8141dc6f6d24e0d8","2","","","","","","","","","","","","2965","[""SV_PolicingMSA/LA_42/IMG_0_42.jpg"",""SV_PolicingMSA/LA_42/IMG_5_42.jpg"",""SV_PolicingMSA/LA_42/IMG_2_42.jpg"",""SV_PolicingMSA/LA_42/IMG_1_42.jpg"",""SV_PolicingMSA/LA_42/IMG_10_42.jpg"",""SV_PolicingMSA/LA_42/IMG_7_42.jpg"",""SV_PolicingMSA/LA_42/IMG_13_42.jpg"",""SV_PolicingMSA/LA_42/IMG_14_42.jpg""]","1","","","","","","2","","4","[""./rc_img/cop_condGroup_13_CommunitySafety_autoscaled.png"",""./rc_img/cop_condGroup_13_SafeStreets_autoscaled.png""]","1","",""
"sliderTrial","html-slider-response","126","576916","0.0-126.0","","656776a7904ae00d6b91d1dd","6568adac8141dc6f6d24e0d8","2","","","","","","","","","","","","3505","[""SV_PolicingMSA/LA_42/IMG_0_42.jpg"",""SV_PolicingMSA/LA_42/IMG_5_42.jpg"",""SV_PolicingMSA/LA_42/IMG_2_42.jpg"",""SV_PolicingMSA/LA_42/IMG_1_42.jpg"",""SV_PolicingMSA/LA_42/IMG_10_42.jpg"",""SV_PolicingMSA/LA_42/IMG_7_42.jpg"",""SV_PolicingMSA/LA_42/IMG_13_42.jpg"",""SV_PolicingMSA/LA_42/IMG_14_42.jpg""]","1","","","","","","2","","4","[""./rc_img/cop_condGroup_6_CommunitySafety_autoscaled.png"",""./rc_img/cop_condGroup_6_SafeStreets_autoscaled.png""]","1","",""
"sliderTrial","html-slider-response","127","582017","0.0-127.0","","656776a7904ae00d6b91d1dd","6568adac8141dc6f6d24e0d8","2","","","","","","","","","","","","5099","[""SV_PolicingMSA/LA_42/IMG_0_42.jpg"",""SV_PolicingMSA/LA_42/IMG_5_42.jpg"",""SV_PolicingMSA/LA_42/IMG_2_42.jpg"",""SV_PolicingMSA/LA_42/IMG_1_42.jpg"",""SV_PolicingMSA/LA_42/IMG_10_42.jpg"",""SV_PolicingMSA/LA_42/IMG_7_42.jpg"",""SV_PolicingMSA/LA_42/IMG_13_42.jpg"",""SV_PolicingMSA/LA_42/IMG_14_42.jpg""]","1","","","","","","2","","4","[""./rc_img/cop_condGroup_18_CommunitySafety_autoscaled.png"",""./rc_img/cop_condGroup_18_SafeStreets_autoscaled.png""]","1","",""
"before_SVSlide_prompt","html-button-response","128","583619","0.0-128.0","","656776a7904ae00d6b91d1dd","6568adac8141dc6f6d24e0d8","2","","","","","","","","","","","","1601","Click [Next] to see the next neighborhood!","0","","","","","","","","","","","",""
"street view slide show","image-button-response","129","584622","0.0-129.0","","656776a7904ae00d6b91d1dd","6568adac8141dc6f6d24e0d8","2","","","","","","","","","","","","null","stimulus/SV_PolicingMSA/LA_547/IMG_13_547.jpg","null","","","","","","2","","","","","",""
"street view slide show","image-button-response","130","585626","0.0-130.0","","656776a7904ae00d6b91d1dd","6568adac8141dc6f6d24e0d8","2","","","","","","","","","","","","null","stimulus/SV_PolicingMSA/LA_547/IMG_6_547.jpg","null","","","","","","2","","","","","",""
"street view slide show","image-button-response","131","586633","0.0-131.0","","656776a7904ae00d6b91d1dd","6568adac8141dc6f6d24e0d8","2","","","","","","","","","","","","null","stimulus/SV_PolicingMSA/LA_547/IMG_2_547.jpg","null","","","","","","2","","","","","",""
"street view slide show","image-button-response","132","587635","0.0-132.0","","656776a7904ae00d6b91d1dd","6568adac8141dc6f6d24e0d8","2","","","","","","","","","","","","null","stimulus/SV_PolicingMSA/LA_547/IMG_3_547.jpg","null","","","","","","2","","","","","",""
"street view slide show","image-button-response","133","588641","0.0-133.0","","656776a7904ae00d6b91d1dd","6568adac8141dc6f6d24e0d8","2","","","","","","","","","","","","null","stimulus/SV_PolicingMSA/LA_547/IMG_12_547.jpg","null","","","","","","2","","","","","",""
"street view slide show","image-button-response","134","589643","0.0-134.0","","656776a7904ae00d6b91d1dd","6568adac8141dc6f6d24e0d8","2","","","","","","","","","","","","null","stimulus/SV_PolicingMSA/LA_547/IMG_1_547.jpg","null","","","","","","2","","","","","",""
"street view slide show","image-button-response","135","590649","0.0-135.0","","656776a7904ae00d6b91d1dd","6568adac8141dc6f6d24e0d8","2","","","","","","","","","","","","null","stimulus/SV_PolicingMSA/LA_547/IMG_14_547.jpg","null","","","","","","2","","","","","",""
"street view slide show","image-button-response","136","591652","0.0-136.0","","656776a7904ae00d6b91d1dd","6568adac8141dc6f6d24e0d8","2","","","","","","","","","","","","null","stimulus/SV_PolicingMSA/LA_547/IMG_10_547.jpg","null","","","","","","2","","","","","",""
"dot matrix survey1","survey","137","615537","0.0-137.0","","656776a7904ae00d6b91d1dd","6568adac8141dc6f6d24e0d8","2","","","","","","","","","","","","23862","","{""P0_Q0"":null,""P0_Q1"":{""wealthy"":1,""safe"":2,""walkable"":1,""traditional"":2,""diverse"":2}}","","","","","","2","[]","","","","",""
"dot matrix survey2","survey","138","640392","0.0-138.0","","656776a7904ae00d6b91d1dd","6568adac8141dc6f6d24e0d8","2","","","","","","","","","","","","24844","","{""P0_Q0"":null,""P0_Q1"":{""violence"":2,""crime"":2,""drug"":2,""schools"":0,""opportunities"":0}}","","","","","","2","[]","","","","",""
"dot matrix survey3","survey","139","651149","0.0-139.0","","656776a7904ae00d6b91d1dd","6568adac8141dc6f6d24e0d8","2","","","","","","","","","","","","10749","","{""P0_Q0"":null,""P0_Q1"":{""movein"":0,""moveout"":4,""shopping"":0,""walk"":0,""park"":0,""school"":0}}","","","","","","2","[]","","","","",""
"sliderTrial","html-slider-response","140","655348","0.0-140.0","","656776a7904ae00d6b91d1dd","6568adac8141dc6f6d24e0d8","2","","","","","","","","","","","","4197","[""SV_PolicingMSA/LA_547/IMG_13_547.jpg"",""SV_PolicingMSA/LA_547/IMG_6_547.jpg"",""SV_PolicingMSA/LA_547/IMG_2_547.jpg"",""SV_PolicingMSA/LA_547/IMG_3_547.jpg"",""SV_PolicingMSA/LA_547/IMG_12_547.jpg"",""SV_PolicingMSA/LA_547/IMG_1_547.jpg"",""SV_PolicingMSA/LA_547/IMG_14_547.jpg"",""SV_PolicingMSA/LA_547/IMG_10_547.jpg""]","1","","","","","","2","","4","[""./rc_img/cop_condGroup_11_SafeStreets_autoscaled.png"",""./rc_img/cop_condGroup_11_CommunitySafety_autoscaled.png""]","7","",""
"sliderTrial","html-slider-response","141","659829","0.0-141.0","","656776a7904ae00d6b91d1dd","6568adac8141dc6f6d24e0d8","2","","","","","","","","","","","","4479","[""SV_PolicingMSA/LA_547/IMG_13_547.jpg"",""SV_PolicingMSA/LA_547/IMG_6_547.jpg"",""SV_PolicingMSA/LA_547/IMG_2_547.jpg"",""SV_PolicingMSA/LA_547/IMG_3_547.jpg"",""SV_PolicingMSA/LA_547/IMG_12_547.jpg"",""SV_PolicingMSA/LA_547/IMG_1_547.jpg"",""SV_PolicingMSA/LA_547/IMG_14_547.jpg"",""SV_PolicingMSA/LA_547/IMG_10_547.jpg""]","7","","","","","","2","","4","[""./rc_img/cop_condGroup_10_CommunitySafety_autoscaled.png"",""./rc_img/cop_condGroup_10_SafeStreets_autoscaled.png""]","7","",""
"sliderTrial","html-slider-response","142","664270","0.0-142.0","","656776a7904ae00d6b91d1dd","6568adac8141dc6f6d24e0d8","2","","","","","","","","","","","","4439","[""SV_PolicingMSA/LA_547/IMG_13_547.jpg"",""SV_PolicingMSA/LA_547/IMG_6_547.jpg"",""SV_PolicingMSA/LA_547/IMG_2_547.jpg"",""SV_PolicingMSA/LA_547/IMG_3_547.jpg"",""SV_PolicingMSA/LA_547/IMG_12_547.jpg"",""SV_PolicingMSA/LA_547/IMG_1_547.jpg"",""SV_PolicingMSA/LA_547/IMG_14_547.jpg"",""SV_PolicingMSA/LA_547/IMG_10_547.jpg""]","7","","","","","","2","","4","[""./rc_img/cop_condGroup_9_CommunitySafety_autoscaled.png"",""./rc_img/cop_condGroup_9_SafeStreets_autoscaled.png""]","7","",""
"sliderTrial","html-slider-response","143","667398","0.0-143.0","","656776a7904ae00d6b91d1dd","6568adac8141dc6f6d24e0d8","2","","","","","","","","","","","","3126","[""SV_PolicingMSA/LA_547/IMG_13_547.jpg"",""SV_PolicingMSA/LA_547/IMG_6_547.jpg"",""SV_PolicingMSA/LA_547/IMG_2_547.jpg"",""SV_PolicingMSA/LA_547/IMG_3_547.jpg"",""SV_PolicingMSA/LA_547/IMG_12_547.jpg"",""SV_PolicingMSA/LA_547/IMG_1_547.jpg"",""SV_PolicingMSA/LA_547/IMG_14_547.jpg"",""SV_PolicingMSA/LA_547/IMG_10_547.jpg""]","1","","","","","","2","","4","[""./rc_img/cop_condGroup_16_SafeStreets_autoscaled.png"",""./rc_img/cop_condGroup_16_CommunitySafety_autoscaled.png""]","7","",""
"sliderTrial","html-slider-response","144","670413","0.0-144.0","","656776a7904ae00d6b91d1dd","6568adac8141dc6f6d24e0d8","2","","","","","","","","","","","","3013","[""SV_PolicingMSA/LA_547/IMG_13_547.jpg"",""SV_PolicingMSA/LA_547/IMG_6_547.jpg"",""SV_PolicingMSA/LA_547/IMG_2_547.jpg"",""SV_PolicingMSA/LA_547/IMG_3_547.jpg"",""SV_PolicingMSA/LA_547/IMG_12_547.jpg"",""SV_PolicingMSA/LA_547/IMG_1_547.jpg"",""SV_PolicingMSA/LA_547/IMG_14_547.jpg"",""SV_PolicingMSA/LA_547/IMG_10_547.jpg""]","7","","","","","","2","","4","[""./rc_img/cop_condGroup_3_CommunitySafety_autoscaled.png"",""./rc_img/cop_condGroup_3_SafeStreets_autoscaled.png""]","7","",""
"demographics","survey-html-form","145","712605","0.0-145.0","","656776a7904ae00d6b91d1dd","6568adac8141dc6f6d24e0d8","2","","","","","","","","","","","","42188","","{""age"":""55"",""sex"":""female"",""gender"":""woman"",""gender-self-describe"":"""",""zipcode"":""28262""}","","","","","","","","","","","",""
"demographics-list","survey","146","736697","0.0-146.0","","656776a7904ae00d6b91d1dd","6568adac8141dc6f6d24e0d8","2","","","","","","","","","","","","24057","","{""P0_Q0"":null,""race-ethnicity"":[""South East Asian""],""education"":""Bachelor’s degree"",""P1_Q0"":null,""ideology"":""Moderate"",""P2_Q0"":null,""num-moves"":2,""P3_Q0"":null,""social-ladder"":3}","","","","","","","[]","","","","",""
"end-survey","survey-text","147","790108","0.0-147.0","","656776a7904ae00d6b91d1dd","6568adac8141dc6f6d24e0d8","2","","","","","","","","","","","","53405","","{""Q0"":""No""}","","","","","","","","","","","","2"
"end-survey","html-button-response","148","805711","0.0-148.0","","656776a7904ae00d6b91d1dd","6568adac8141dc6f6d24e0d8","2","","","","","","","","","","","","15600","
    You've reached the end of the survey. <br><br> 
    <b>Do not close or refresh this window.</b><br>
    On the next page, you will be automatically redirected to Prolific. <br><br>

    <div class=""alert alert-warning""><b>
    </div>
","0","","","","","","","","","","","",""
