"task","trial_type","trial_index","time_elapsed","internal_node_id","subject_id","study_id","session_id","section","width","height","webaudio","browser","browser_version","mobile","os","fullscreen","vsync_rate","webcam","microphone","rt","stimulus","response","success","timeout","failed_images","failed_audio","failed_video","block","accuracy","slider_start","choices","standardized_response","correct","num_attention_checks_correct"
"pavlovia-init","pavlovia","0","1887","0.0-0.0","","656776a7904ae00d6b91d1dd","6568aa3357a0ddeca59c067b","4","","","","","","","","","","","","","","","","","","","","","","","","","",""
"browser-check","browser-check","1","2890","0.0-1.0","","656776a7904ae00d6b91d1dd","6568aa3357a0ddeca59c067b","4","1366","599","true","chrome","119.0.0","false","Chrome OS","true","60.46","true","true","","","","","","","","","","","","","","",""
"consent","html-button-response","2","10670","0.0-2.0","","656776a7904ae00d6b91d1dd","6568aa3357a0ddeca59c067b","4","","","","","","","","","","","","7776","
        <div style=""font-size: 80%; max-width:700px"">
            <h2>CONSENT FORM</h2>
        
            <div style=""text-align: left"">
            <h4>DESCRIPTION</h4>
            <p>
            You will complete a short task where you give your impressions of various neighborhoods and assign individuals to those spaces, and answer some questions about your thoughts and opinions.<br>
            The University of Michigan Institutional Review Board Health Sciences and Behavioral Sciences has determined that this study is exempt from IRB oversight.
            </p>

            <h4>TIME INVOLVEMENT</h4>
            <p>Your participation will take approximately 15 minutes. You will receive $3.15 upon completion of the study.</p>
        
            <h4>RISKS AND BENEFITS</h4>
            <p>
            The risks associated with this study are minimal. The benefits which may reasonably be expected to result from this study are none. We cannot and do not guarantee or promise that you will receive any benefits from this study.
            </p>
          
            <h4>SUBJECT'S RIGHTS</h4>
            <p>
            If you have read this form and have decided to participate in this project, please understand your participation is voluntary and you have the right to withdraw your consent or discontinue participation at any time without penalty or loss of benefits to which you are otherwise entitled. The alternative is not to participate. You have the right to refuse to answer particular questions. Your individual privacy will be maintained in all published and written data resulting from the study.
            </p>

            <h4>HUMAN SUBJECT APPROVAL</h4>
            <p>
            This study is exempt from ongoing IRB review.
            </p>

            <h4>CONTACT INFORMATION</h4>
            If you have any questions, concerns or complaints about this research, its procedures, risks and benefits, contact the Protocol Director, Nicholas Camp, npcamp@umich.edu, (443) 851-6783. <br>

            If you have questions about your rights as a research participant, or wish to obtain information, ask questions or discuss any concerns about this study with someone other than the researcher(s), please contact the following:<br><br>
            University of Michigan<br>
            Health Sciences and Behavioral Sciences Institutional Review Board (IRB-HSBS)<br>
            2800 Plymouth Road<br>
            Building 520, Room 1169Ann Arbor, MI 48109-2800<br>
            Telephone: 734-936-0933 or toll free (866) 936-0933<br>
            Fax: 734-936-1852<br>
            E-mail: irbhsbs@umich.edu<br><br>

            You can also contact the University of Michigan Compliance Hotline at 1-866-990-0111. You may also print this consent form to keep.
            <br><br>
            <div class=""alert alert-warning""><b>
            Do you consent to participate in this study? If you consent to participate in this study, please click “Accept and Continue”. If you select ""Decline and Exit"", you will be exited from the survey. <br>
            </b></div>
            </div>
        </div>
    ","1","","","","","","","","","","","",""
"","preload","3","13006","0.0-3.0","","656776a7904ae00d6b91d1dd","6568aa3357a0ddeca59c067b","4","","","","","","","","","","","","","","","true","false","[]","[]","[]","","","","","","",""
"instructions","html-button-response","4","66905","0.0-4.0","","656776a7904ae00d6b91d1dd","6568aa3357a0ddeca59c067b","4","","","","","","","","","","","","53895","
        <div class=""text-container"">
        <h1>Welcome to the study!</h1>
        
        <div class=""text-left"">
            <p>
                In this study, we are interested in what people can tell about spaces from Google Street View images. <br> Google Street View takes pictures of streets used for Google Earth and Google Maps. <br>You’ll see Google Street View images of different places and answer some questions about each one.<br>
            </p>
        </div>
        <img src = ""assets/img/example.png"" width = 500px, height = auto>
        <br>
    <br>
    ","0","","","","","","","","","","","",""
"instructions","html-button-response","5","69481","0.0-5.0","","656776a7904ae00d6b91d1dd","6568aa3357a0ddeca59c067b","4","","","","","","","","","","","","2573","
    <div class=""text-container"">
        <div class=""text-center"">
            <p>Please remember that your answers are completely anonymous.<br>Go with your gut response- there are no right or wrong answers!</p>
        </div>
    <br>
","0","","","","","","","","","","","",""
"before_SVSlide_prompt","html-button-response","6","71015","0.0-6.0","","656776a7904ae00d6b91d1dd","6568aa3357a0ddeca59c067b","4","","","","","","","","","","","","1531","Click [Next] to see the next neighborhood!","0","","","","","","","","","","","",""
"street view slide show","image-button-response","7","72030","0.0-7.0","","656776a7904ae00d6b91d1dd","6568aa3357a0ddeca59c067b","4","","","","","","","","","","","","null","stimulus/SV_PolicingMSA/CO_572/IMG_3_572.jpg","null","","","","","","5","","","","","",""
"street view slide show","image-button-response","8","73032","0.0-8.0","","656776a7904ae00d6b91d1dd","6568aa3357a0ddeca59c067b","4","","","","","","","","","","","","null","stimulus/SV_PolicingMSA/CO_572/IMG_8_572.jpg","null","","","","","","5","","","","","",""
"street view slide show","image-button-response","9","74036","0.0-9.0","","656776a7904ae00d6b91d1dd","6568aa3357a0ddeca59c067b","4","","","","","","","","","","","","null","stimulus/SV_PolicingMSA/CO_572/IMG_14_572.jpg","null","","","","","","5","","","","","",""
"street view slide show","image-button-response","10","75039","0.0-10.0","","656776a7904ae00d6b91d1dd","6568aa3357a0ddeca59c067b","4","","","","","","","","","","","","null","stimulus/SV_PolicingMSA/CO_572/IMG_4_572.jpg","null","","","","","","5","","","","","",""
"street view slide show","image-button-response","11","76043","0.0-11.0","","656776a7904ae00d6b91d1dd","6568aa3357a0ddeca59c067b","4","","","","","","","","","","","","null","stimulus/SV_PolicingMSA/CO_572/IMG_11_572.jpg","null","","","","","","5","","","","","",""
"street view slide show","image-button-response","12","77046","0.0-12.0","","656776a7904ae00d6b91d1dd","6568aa3357a0ddeca59c067b","4","","","","","","","","","","","","null","stimulus/SV_PolicingMSA/CO_572/IMG_5_572.jpg","null","","","","","","5","","","","","",""
"street view slide show","image-button-response","13","78050","0.0-13.0","","656776a7904ae00d6b91d1dd","6568aa3357a0ddeca59c067b","4","","","","","","","","","","","","null","stimulus/SV_PolicingMSA/CO_572/IMG_1_572.jpg","null","","","","","","5","","","","","",""
"street view slide show","image-button-response","14","79054","0.0-14.0","","656776a7904ae00d6b91d1dd","6568aa3357a0ddeca59c067b","4","","","","","","","","","","","","null","stimulus/SV_PolicingMSA/CO_572/IMG_2_572.jpg","null","","","","","","5","","","","","",""
"dot matrix survey1","survey","15","117642","0.0-15.0","","656776a7904ae00d6b91d1dd","6568aa3357a0ddeca59c067b","4","","","","","","","","","","","","38483","","{""P0_Q0"":null,""P0_Q1"":{""wealthy"":2,""safe"":3,""walkable"":1,""traditional"":3,""diverse"":3}}","","","","","","5","[]","","","","",""
"dot matrix survey2","survey","16","147177","0.0-16.0","","656776a7904ae00d6b91d1dd","6568aa3357a0ddeca59c067b","4","","","","","","","","","","","","29521","","{""P0_Q0"":null,""P0_Q1"":{""violence"":1,""crime"":2,""drug"":1,""schools"":2,""opportunities"":2}}","","","","","","5","[]","","","","",""
"dot matrix survey3","survey","17","172699","0.0-17.0","","656776a7904ae00d6b91d1dd","6568aa3357a0ddeca59c067b","4","","","","","","","","","","","","25511","","{""P0_Q0"":null,""P0_Q1"":{""movein"":2,""moveout"":1,""shopping"":3,""walk"":2,""park"":3,""school"":1}}","","","","","","5","[]","","","","",""
"sliderTrial","html-slider-response","18","190993","0.0-18.0","","656776a7904ae00d6b91d1dd","6568aa3357a0ddeca59c067b","4","","","","","","","","","","","","18292","[""SV_PolicingMSA/CO_572/IMG_3_572.jpg"",""SV_PolicingMSA/CO_572/IMG_8_572.jpg"",""SV_PolicingMSA/CO_572/IMG_14_572.jpg"",""SV_PolicingMSA/CO_572/IMG_4_572.jpg"",""SV_PolicingMSA/CO_572/IMG_11_572.jpg"",""SV_PolicingMSA/CO_572/IMG_5_572.jpg"",""SV_PolicingMSA/CO_572/IMG_1_572.jpg"",""SV_PolicingMSA/CO_572/IMG_2_572.jpg""]","4","","","","","","5","","4","[""./rc_img/cop_condGroup_15_SafeStreets_autoscaled.png"",""./rc_img/cop_condGroup_15_CommunitySafety_autoscaled.png""]","4","",""
"sliderTrial","html-slider-response","19","200095","0.0-19.0","","656776a7904ae00d6b91d1dd","6568aa3357a0ddeca59c067b","4","","","","","","","","","","","","9099","[""SV_PolicingMSA/CO_572/IMG_3_572.jpg"",""SV_PolicingMSA/CO_572/IMG_8_572.jpg"",""SV_PolicingMSA/CO_572/IMG_14_572.jpg"",""SV_PolicingMSA/CO_572/IMG_4_572.jpg"",""SV_PolicingMSA/CO_572/IMG_11_572.jpg"",""SV_PolicingMSA/CO_572/IMG_5_572.jpg"",""SV_PolicingMSA/CO_572/IMG_1_572.jpg"",""SV_PolicingMSA/CO_572/IMG_2_572.jpg""]","4","","","","","","5","","4","[""./rc_img/cop_condGroup_20_CommunitySafety_autoscaled.png"",""./rc_img/cop_condGroup_20_SafeStreets_autoscaled.png""]","4","",""
"sliderTrial","html-slider-response","20","205031","0.0-20.0","","656776a7904ae00d6b91d1dd","6568aa3357a0ddeca59c067b","4","","","","","","","","","","","","4933","[""SV_PolicingMSA/CO_572/IMG_3_572.jpg"",""SV_PolicingMSA/CO_572/IMG_8_572.jpg"",""SV_PolicingMSA/CO_572/IMG_14_572.jpg"",""SV_PolicingMSA/CO_572/IMG_4_572.jpg"",""SV_PolicingMSA/CO_572/IMG_11_572.jpg"",""SV_PolicingMSA/CO_572/IMG_5_572.jpg"",""SV_PolicingMSA/CO_572/IMG_1_572.jpg"",""SV_PolicingMSA/CO_572/IMG_2_572.jpg""]","4","","","","","","5","","4","[""./rc_img/cop_condGroup_3_SafeStreets_autoscaled.png"",""./rc_img/cop_condGroup_3_CommunitySafety_autoscaled.png""]","4","",""
"sliderTrial","html-slider-response","21","208064","0.0-21.0","","656776a7904ae00d6b91d1dd","6568aa3357a0ddeca59c067b","4","","","","","","","","","","","","3027","[""SV_PolicingMSA/CO_572/IMG_3_572.jpg"",""SV_PolicingMSA/CO_572/IMG_8_572.jpg"",""SV_PolicingMSA/CO_572/IMG_14_572.jpg"",""SV_PolicingMSA/CO_572/IMG_4_572.jpg"",""SV_PolicingMSA/CO_572/IMG_11_572.jpg"",""SV_PolicingMSA/CO_572/IMG_5_572.jpg"",""SV_PolicingMSA/CO_572/IMG_1_572.jpg"",""SV_PolicingMSA/CO_572/IMG_2_572.jpg""]","4","","","","","","5","","4","[""./rc_img/cop_condGroup_17_SafeStreets_autoscaled.png"",""./rc_img/cop_condGroup_17_CommunitySafety_autoscaled.png""]","4","",""
"sliderTrial","html-slider-response","22","211506","0.0-22.0","","656776a7904ae00d6b91d1dd","6568aa3357a0ddeca59c067b","4","","","","","","","","","","","","3439","[""SV_PolicingMSA/CO_572/IMG_3_572.jpg"",""SV_PolicingMSA/CO_572/IMG_8_572.jpg"",""SV_PolicingMSA/CO_572/IMG_14_572.jpg"",""SV_PolicingMSA/CO_572/IMG_4_572.jpg"",""SV_PolicingMSA/CO_572/IMG_11_572.jpg"",""SV_PolicingMSA/CO_572/IMG_5_572.jpg"",""SV_PolicingMSA/CO_572/IMG_1_572.jpg"",""SV_PolicingMSA/CO_572/IMG_2_572.jpg""]","4","","","","","","5","","4","[""./rc_img/cop_condGroup_16_CommunitySafety_autoscaled.png"",""./rc_img/cop_condGroup_16_SafeStreets_autoscaled.png""]","4","",""
"before_SVSlide_prompt","html-button-response","23","213079","0.0-23.0","","656776a7904ae00d6b91d1dd","6568aa3357a0ddeca59c067b","4","","","","","","","","","","","","1568","Click [Next] to see the next neighborhood!","0","","","","","","","","","","","",""
"street view slide show","image-button-response","24","214085","0.0-24.0","","656776a7904ae00d6b91d1dd","6568aa3357a0ddeca59c067b","4","","","","","","","","","","","","null","stimulus/SV_PolicingMSA/CO_543/IMG_10_543.jpg","null","","","","","","2","","","","","",""
"street view slide show","image-button-response","25","215089","0.0-25.0","","656776a7904ae00d6b91d1dd","6568aa3357a0ddeca59c067b","4","","","","","","","","","","","","null","stimulus/SV_PolicingMSA/CO_543/IMG_6_543.jpg","null","","","","","","2","","","","","",""
"street view slide show","image-button-response","26","216092","0.0-26.0","","656776a7904ae00d6b91d1dd","6568aa3357a0ddeca59c067b","4","","","","","","","","","","","","null","stimulus/SV_PolicingMSA/CO_543/IMG_14_543.jpg","null","","","","","","2","","","","","",""
"street view slide show","image-button-response","27","217097","0.0-27.0","","656776a7904ae00d6b91d1dd","6568aa3357a0ddeca59c067b","4","","","","","","","","","","","","null","stimulus/SV_PolicingMSA/CO_543/IMG_0_543.jpg","null","","","","","","2","","","","","",""
"street view slide show","image-button-response","28","218100","0.0-28.0","","656776a7904ae00d6b91d1dd","6568aa3357a0ddeca59c067b","4","","","","","","","","","","","","null","stimulus/SV_PolicingMSA/CO_543/IMG_5_543.jpg","null","","","","","","2","","","","","",""
"street view slide show","image-button-response","29","219104","0.0-29.0","","656776a7904ae00d6b91d1dd","6568aa3357a0ddeca59c067b","4","","","","","","","","","","","","null","stimulus/SV_PolicingMSA/CO_543/IMG_9_543.jpg","null","","","","","","2","","","","","",""
"street view slide show","image-button-response","30","220107","0.0-30.0","","656776a7904ae00d6b91d1dd","6568aa3357a0ddeca59c067b","4","","","","","","","","","","","","null","stimulus/SV_PolicingMSA/CO_543/IMG_1_543.jpg","null","","","","","","2","","","","","",""
"street view slide show","image-button-response","31","221109","0.0-31.0","","656776a7904ae00d6b91d1dd","6568aa3357a0ddeca59c067b","4","","","","","","","","","","","","null","stimulus/SV_PolicingMSA/CO_543/IMG_13_543.jpg","null","","","","","","2","","","","","",""
"dot matrix survey1","survey","32","242340","0.0-32.0","","656776a7904ae00d6b91d1dd","6568aa3357a0ddeca59c067b","4","","","","","","","","","","","","21199","","{""P0_Q0"":null,""P0_Q1"":{""wealthy"":1,""safe"":2,""walkable"":1,""traditional"":3,""diverse"":3}}","","","","","","2","[]","","","","",""
"dot matrix survey2","survey","33","257133","0.0-33.0","","656776a7904ae00d6b91d1dd","6568aa3357a0ddeca59c067b","4","","","","","","","","","","","","14781","","{""P0_Q0"":null,""P0_Q1"":{""violence"":2,""crime"":2,""drug"":2,""schools"":2,""opportunities"":1}}","","","","","","2","[]","","","","",""
"dot matrix survey3","survey","34","285059","0.0-34.0","","656776a7904ae00d6b91d1dd","6568aa3357a0ddeca59c067b","4","","","","","","","","","","","","27916","","{""P0_Q0"":null,""P0_Q1"":{""movein"":1,""moveout"":2,""shopping"":2,""walk"":1,""park"":2,""school"":1}}","","","","","","2","[]","","","","",""
"sliderTrial","html-slider-response","35","288303","0.0-35.0","","656776a7904ae00d6b91d1dd","6568aa3357a0ddeca59c067b","4","","","","","","","","","","","","3241","[""SV_PolicingMSA/CO_543/IMG_10_543.jpg"",""SV_PolicingMSA/CO_543/IMG_6_543.jpg"",""SV_PolicingMSA/CO_543/IMG_14_543.jpg"",""SV_PolicingMSA/CO_543/IMG_0_543.jpg"",""SV_PolicingMSA/CO_543/IMG_5_543.jpg"",""SV_PolicingMSA/CO_543/IMG_9_543.jpg"",""SV_PolicingMSA/CO_543/IMG_1_543.jpg"",""SV_PolicingMSA/CO_543/IMG_13_543.jpg""]","4","","","","","","2","","4","[""./rc_img/cop_condGroup_14_SafeStreets_autoscaled.png"",""./rc_img/cop_condGroup_14_CommunitySafety_autoscaled.png""]","4","",""
"sliderTrial","html-slider-response","36","290418","0.0-36.0","","656776a7904ae00d6b91d1dd","6568aa3357a0ddeca59c067b","4","","","","","","","","","","","","2109","[""SV_PolicingMSA/CO_543/IMG_10_543.jpg"",""SV_PolicingMSA/CO_543/IMG_6_543.jpg"",""SV_PolicingMSA/CO_543/IMG_14_543.jpg"",""SV_PolicingMSA/CO_543/IMG_0_543.jpg"",""SV_PolicingMSA/CO_543/IMG_5_543.jpg"",""SV_PolicingMSA/CO_543/IMG_9_543.jpg"",""SV_PolicingMSA/CO_543/IMG_1_543.jpg"",""SV_PolicingMSA/CO_543/IMG_13_543.jpg""]","4","","","","","","2","","4","[""./rc_img/cop_condGroup_19_SafeStreets_autoscaled.png"",""./rc_img/cop_condGroup_19_CommunitySafety_autoscaled.png""]","4","",""
"sliderTrial","html-slider-response","37","291882","0.0-37.0","","656776a7904ae00d6b91d1dd","6568aa3357a0ddeca59c067b","4","","","","","","","","","","","","1461","[""SV_PolicingMSA/CO_543/IMG_10_543.jpg"",""SV_PolicingMSA/CO_543/IMG_6_543.jpg"",""SV_PolicingMSA/CO_543/IMG_14_543.jpg"",""SV_PolicingMSA/CO_543/IMG_0_543.jpg"",""SV_PolicingMSA/CO_543/IMG_5_543.jpg"",""SV_PolicingMSA/CO_543/IMG_9_543.jpg"",""SV_PolicingMSA/CO_543/IMG_1_543.jpg"",""SV_PolicingMSA/CO_543/IMG_13_543.jpg""]","4","","","","","","2","","4","[""./rc_img/cop_condGroup_4_SafeStreets_autoscaled.png"",""./rc_img/cop_condGroup_4_CommunitySafety_autoscaled.png""]","4","",""
"sliderTrial","html-slider-response","38","293588","0.0-38.0","","656776a7904ae00d6b91d1dd","6568aa3357a0ddeca59c067b","4","","","","","","","","","","","","1699","[""SV_PolicingMSA/CO_543/IMG_10_543.jpg"",""SV_PolicingMSA/CO_543/IMG_6_543.jpg"",""SV_PolicingMSA/CO_543/IMG_14_543.jpg"",""SV_PolicingMSA/CO_543/IMG_0_543.jpg"",""SV_PolicingMSA/CO_543/IMG_5_543.jpg"",""SV_PolicingMSA/CO_543/IMG_9_543.jpg"",""SV_PolicingMSA/CO_543/IMG_1_543.jpg"",""SV_PolicingMSA/CO_543/IMG_13_543.jpg""]","4","","","","","","2","","4","[""./rc_img/cop_condGroup_1_SafeStreets_autoscaled.png"",""./rc_img/cop_condGroup_1_CommunitySafety_autoscaled.png""]","4","",""
"sliderTrial","html-slider-response","39","294923","0.0-39.0","","656776a7904ae00d6b91d1dd","6568aa3357a0ddeca59c067b","4","","","","","","","","","","","","1333","[""SV_PolicingMSA/CO_543/IMG_10_543.jpg"",""SV_PolicingMSA/CO_543/IMG_6_543.jpg"",""SV_PolicingMSA/CO_543/IMG_14_543.jpg"",""SV_PolicingMSA/CO_543/IMG_0_543.jpg"",""SV_PolicingMSA/CO_543/IMG_5_543.jpg"",""SV_PolicingMSA/CO_543/IMG_9_543.jpg"",""SV_PolicingMSA/CO_543/IMG_1_543.jpg"",""SV_PolicingMSA/CO_543/IMG_13_543.jpg""]","4","","","","","","2","","4","[""./rc_img/cop_condGroup_2_CommunitySafety_autoscaled.png"",""./rc_img/cop_condGroup_2_SafeStreets_autoscaled.png""]","4","",""
"before_SVSlide_prompt","html-button-response","40","296202","0.0-40.0","","656776a7904ae00d6b91d1dd","6568aa3357a0ddeca59c067b","4","","","","","","","","","","","","1277","Click [Next] to see the next neighborhood!","0","","","","","","","","","","","",""
"street view slide show","image-button-response","41","297204","0.0-41.0","","656776a7904ae00d6b91d1dd","6568aa3357a0ddeca59c067b","4","","","","","","","","","","","","null","stimulus/SV_PolicingMSA/CO_1308/IMG_4_1308.jpg","null","","","","","","3","","","","","",""
"street view slide show","image-button-response","42","298208","0.0-42.0","","656776a7904ae00d6b91d1dd","6568aa3357a0ddeca59c067b","4","","","","","","","","","","","","null","stimulus/SV_PolicingMSA/CO_1308/IMG_3_1308.jpg","null","","","","","","3","","","","","",""
"street view slide show","image-button-response","43","299211","0.0-43.0","","656776a7904ae00d6b91d1dd","6568aa3357a0ddeca59c067b","4","","","","","","","","","","","","null","stimulus/SV_PolicingMSA/CO_1308/IMG_8_1308.jpg","null","","","","","","3","","","","","",""
"street view slide show","image-button-response","44","300214","0.0-44.0","","656776a7904ae00d6b91d1dd","6568aa3357a0ddeca59c067b","4","","","","","","","","","","","","null","stimulus/SV_PolicingMSA/CO_1308/IMG_14_1308.jpg","null","","","","","","3","","","","","",""
"street view slide show","image-button-response","45","301218","0.0-45.0","","656776a7904ae00d6b91d1dd","6568aa3357a0ddeca59c067b","4","","","","","","","","","","","","null","stimulus/SV_PolicingMSA/CO_1308/IMG_0_1308.jpg","null","","","","","","3","","","","","",""
"street view slide show","image-button-response","46","302221","0.0-46.0","","656776a7904ae00d6b91d1dd","6568aa3357a0ddeca59c067b","4","","","","","","","","","","","","null","stimulus/SV_PolicingMSA/CO_1308/IMG_2_1308.jpg","null","","","","","","3","","","","","",""
"street view slide show","image-button-response","47","303225","0.0-47.0","","656776a7904ae00d6b91d1dd","6568aa3357a0ddeca59c067b","4","","","","","","","","","","","","null","stimulus/SV_PolicingMSA/CO_1308/IMG_13_1308.jpg","null","","","","","","3","","","","","",""
"street view slide show","image-button-response","48","304228","0.0-48.0","","656776a7904ae00d6b91d1dd","6568aa3357a0ddeca59c067b","4","","","","","","","","","","","","null","stimulus/SV_PolicingMSA/CO_1308/IMG_11_1308.jpg","null","","","","","","3","","","","","",""
"dot matrix survey1","survey","49","322230","0.0-49.0","","656776a7904ae00d6b91d1dd","6568aa3357a0ddeca59c067b","4","","","","","","","","","","","","17980","","{""P0_Q0"":null,""P0_Q1"":{""wealthy"":2,""safe"":2,""walkable"":4,""traditional"":3,""diverse"":3}}","","","","","","3","[]","","","","",""
"dot matrix survey2","survey","50","341172","0.0-50.0","","656776a7904ae00d6b91d1dd","6568aa3357a0ddeca59c067b","4","","","","","","","","","","","","18934","","{""P0_Q0"":null,""P0_Q1"":{""violence"":2,""crime"":3,""drug"":2,""schools"":1,""opportunities"":3}}","","","","","","3","[]","","","","",""
"dot matrix survey3","survey","51","360240","0.0-51.0","","656776a7904ae00d6b91d1dd","6568aa3357a0ddeca59c067b","4","","","","","","","","","","","","19055","","{""P0_Q0"":null,""P0_Q1"":{""movein"":2,""moveout"":1,""shopping"":4,""walk"":2,""park"":3,""school"":1}}","","","","","","3","[]","","","","",""
"sliderTrial","html-slider-response","52","362448","0.0-52.0","","656776a7904ae00d6b91d1dd","6568aa3357a0ddeca59c067b","4","","","","","","","","","","","","2205","[""SV_PolicingMSA/CO_1308/IMG_4_1308.jpg"",""SV_PolicingMSA/CO_1308/IMG_3_1308.jpg"",""SV_PolicingMSA/CO_1308/IMG_8_1308.jpg"",""SV_PolicingMSA/CO_1308/IMG_14_1308.jpg"",""SV_PolicingMSA/CO_1308/IMG_0_1308.jpg"",""SV_PolicingMSA/CO_1308/IMG_2_1308.jpg"",""SV_PolicingMSA/CO_1308/IMG_13_1308.jpg"",""SV_PolicingMSA/CO_1308/IMG_11_1308.jpg""]","4","","","","","","3","","4","[""./rc_img/cop_condGroup_15_SafeStreets_autoscaled.png"",""./rc_img/cop_condGroup_15_CommunitySafety_autoscaled.png""]","4","",""
"sliderTrial","html-slider-response","53","363692","0.0-53.0","","656776a7904ae00d6b91d1dd","6568aa3357a0ddeca59c067b","4","","","","","","","","","","","","1242","[""SV_PolicingMSA/CO_1308/IMG_4_1308.jpg"",""SV_PolicingMSA/CO_1308/IMG_3_1308.jpg"",""SV_PolicingMSA/CO_1308/IMG_8_1308.jpg"",""SV_PolicingMSA/CO_1308/IMG_14_1308.jpg"",""SV_PolicingMSA/CO_1308/IMG_0_1308.jpg"",""SV_PolicingMSA/CO_1308/IMG_2_1308.jpg"",""SV_PolicingMSA/CO_1308/IMG_13_1308.jpg"",""SV_PolicingMSA/CO_1308/IMG_11_1308.jpg""]","4","","","","","","3","","4","[""./rc_img/cop_condGroup_20_CommunitySafety_autoscaled.png"",""./rc_img/cop_condGroup_20_SafeStreets_autoscaled.png""]","4","",""
"sliderTrial","html-slider-response","54","364887","0.0-54.0","","656776a7904ae00d6b91d1dd","6568aa3357a0ddeca59c067b","4","","","","","","","","","","","","1191","[""SV_PolicingMSA/CO_1308/IMG_4_1308.jpg"",""SV_PolicingMSA/CO_1308/IMG_3_1308.jpg"",""SV_PolicingMSA/CO_1308/IMG_8_1308.jpg"",""SV_PolicingMSA/CO_1308/IMG_14_1308.jpg"",""SV_PolicingMSA/CO_1308/IMG_0_1308.jpg"",""SV_PolicingMSA/CO_1308/IMG_2_1308.jpg"",""SV_PolicingMSA/CO_1308/IMG_13_1308.jpg"",""SV_PolicingMSA/CO_1308/IMG_11_1308.jpg""]","4","","","","","","3","","4","[""./rc_img/cop_condGroup_3_SafeStreets_autoscaled.png"",""./rc_img/cop_condGroup_3_CommunitySafety_autoscaled.png""]","4","",""
"sliderTrial","html-slider-response","55","366058","0.0-55.0","","656776a7904ae00d6b91d1dd","6568aa3357a0ddeca59c067b","4","","","","","","","","","","","","1166","[""SV_PolicingMSA/CO_1308/IMG_4_1308.jpg"",""SV_PolicingMSA/CO_1308/IMG_3_1308.jpg"",""SV_PolicingMSA/CO_1308/IMG_8_1308.jpg"",""SV_PolicingMSA/CO_1308/IMG_14_1308.jpg"",""SV_PolicingMSA/CO_1308/IMG_0_1308.jpg"",""SV_PolicingMSA/CO_1308/IMG_2_1308.jpg"",""SV_PolicingMSA/CO_1308/IMG_13_1308.jpg"",""SV_PolicingMSA/CO_1308/IMG_11_1308.jpg""]","4","","","","","","3","","4","[""./rc_img/cop_condGroup_17_SafeStreets_autoscaled.png"",""./rc_img/cop_condGroup_17_CommunitySafety_autoscaled.png""]","4","",""
"sliderTrial","html-slider-response","56","367347","0.0-56.0","","656776a7904ae00d6b91d1dd","6568aa3357a0ddeca59c067b","4","","","","","","","","","","","","1282","[""SV_PolicingMSA/CO_1308/IMG_4_1308.jpg"",""SV_PolicingMSA/CO_1308/IMG_3_1308.jpg"",""SV_PolicingMSA/CO_1308/IMG_8_1308.jpg"",""SV_PolicingMSA/CO_1308/IMG_14_1308.jpg"",""SV_PolicingMSA/CO_1308/IMG_0_1308.jpg"",""SV_PolicingMSA/CO_1308/IMG_2_1308.jpg"",""SV_PolicingMSA/CO_1308/IMG_13_1308.jpg"",""SV_PolicingMSA/CO_1308/IMG_11_1308.jpg""]","4","","","","","","3","","4","[""./rc_img/cop_condGroup_16_CommunitySafety_autoscaled.png"",""./rc_img/cop_condGroup_16_SafeStreets_autoscaled.png""]","4","",""
"before_SVSlide_prompt","html-button-response","57","368598","0.0-57.0","","656776a7904ae00d6b91d1dd","6568aa3357a0ddeca59c067b","4","","","","","","","","","","","","1250","Click [Next] to see the next neighborhood!","0","","","","","","","","","","","",""
"street view slide show","image-button-response","58","369601","0.0-58.0","","656776a7904ae00d6b91d1dd","6568aa3357a0ddeca59c067b","4","","","","","","","","","","","","null","stimulus/SV_PolicingMSA/CO_1325/IMG_13_1325.jpg","null","","","","","","3","","","","","",""
"street view slide show","image-button-response","59","370604","0.0-59.0","","656776a7904ae00d6b91d1dd","6568aa3357a0ddeca59c067b","4","","","","","","","","","","","","null","stimulus/SV_PolicingMSA/CO_1325/IMG_5_1325.jpg","null","","","","","","3","","","","","",""
"street view slide show","image-button-response","60","371608","0.0-60.0","","656776a7904ae00d6b91d1dd","6568aa3357a0ddeca59c067b","4","","","","","","","","","","","","null","stimulus/SV_PolicingMSA/CO_1325/IMG_3_1325.jpg","null","","","","","","3","","","","","",""
"street view slide show","image-button-response","61","372611","0.0-61.0","","656776a7904ae00d6b91d1dd","6568aa3357a0ddeca59c067b","4","","","","","","","","","","","","null","stimulus/SV_PolicingMSA/CO_1325/IMG_9_1325.jpg","null","","","","","","3","","","","","",""
"street view slide show","image-button-response","62","373615","0.0-62.0","","656776a7904ae00d6b91d1dd","6568aa3357a0ddeca59c067b","4","","","","","","","","","","","","null","stimulus/SV_PolicingMSA/CO_1325/IMG_14_1325.jpg","null","","","","","","3","","","","","",""
"street view slide show","image-button-response","63","374618","0.0-63.0","","656776a7904ae00d6b91d1dd","6568aa3357a0ddeca59c067b","4","","","","","","","","","","","","null","stimulus/SV_PolicingMSA/CO_1325/IMG_11_1325.jpg","null","","","","","","3","","","","","",""
"street view slide show","image-button-response","64","375622","0.0-64.0","","656776a7904ae00d6b91d1dd","6568aa3357a0ddeca59c067b","4","","","","","","","","","","","","null","stimulus/SV_PolicingMSA/CO_1325/IMG_1_1325.jpg","null","","","","","","3","","","","","",""
"street view slide show","image-button-response","65","376625","0.0-65.0","","656776a7904ae00d6b91d1dd","6568aa3357a0ddeca59c067b","4","","","","","","","","","","","","null","stimulus/SV_PolicingMSA/CO_1325/IMG_8_1325.jpg","null","","","","","","3","","","","","",""
"dot matrix survey1","survey","66","399220","0.0-66.0","","656776a7904ae00d6b91d1dd","6568aa3357a0ddeca59c067b","4","","","","","","","","","","","","22568","","{""P0_Q0"":null,""P0_Q1"":{""wealthy"":3,""safe"":3,""walkable"":1,""traditional"":3,""diverse"":3}}","","","","","","3","[]","","","","",""
"dot matrix survey2","survey","67","411131","0.0-67.0","","656776a7904ae00d6b91d1dd","6568aa3357a0ddeca59c067b","4","","","","","","","","","","","","11900","","{""P0_Q0"":null,""P0_Q1"":{""violence"":1,""crime"":1,""drug"":2,""schools"":2,""opportunities"":3}}","","","","","","3","[]","","","","",""
"dot matrix survey3","survey","68","424564","0.0-68.0","","656776a7904ae00d6b91d1dd","6568aa3357a0ddeca59c067b","4","","","","","","","","","","","","13423","","{""P0_Q0"":null,""P0_Q1"":{""movein"":3,""moveout"":1,""shopping"":3,""walk"":3,""park"":3,""school"":1}}","","","","","","3","[]","","","","",""
"sliderTrial","html-slider-response","69","426823","0.0-69.0","","656776a7904ae00d6b91d1dd","6568aa3357a0ddeca59c067b","4","","","","","","","","","","","","2256","[""SV_PolicingMSA/CO_1325/IMG_13_1325.jpg"",""SV_PolicingMSA/CO_1325/IMG_5_1325.jpg"",""SV_PolicingMSA/CO_1325/IMG_3_1325.jpg"",""SV_PolicingMSA/CO_1325/IMG_9_1325.jpg"",""SV_PolicingMSA/CO_1325/IMG_14_1325.jpg"",""SV_PolicingMSA/CO_1325/IMG_11_1325.jpg"",""SV_PolicingMSA/CO_1325/IMG_1_1325.jpg"",""SV_PolicingMSA/CO_1325/IMG_8_1325.jpg""]","4","","","","","","3","","4","[""./rc_img/cop_condGroup_6_SafeStreets_autoscaled.png"",""./rc_img/cop_condGroup_6_CommunitySafety_autoscaled.png""]","4","",""
"sliderTrial","html-slider-response","70","428044","0.0-70.0","","656776a7904ae00d6b91d1dd","6568aa3357a0ddeca59c067b","4","","","","","","","","","","","","1216","[""SV_PolicingMSA/CO_1325/IMG_13_1325.jpg"",""SV_PolicingMSA/CO_1325/IMG_5_1325.jpg"",""SV_PolicingMSA/CO_1325/IMG_3_1325.jpg"",""SV_PolicingMSA/CO_1325/IMG_9_1325.jpg"",""SV_PolicingMSA/CO_1325/IMG_14_1325.jpg"",""SV_PolicingMSA/CO_1325/IMG_11_1325.jpg"",""SV_PolicingMSA/CO_1325/IMG_1_1325.jpg"",""SV_PolicingMSA/CO_1325/IMG_8_1325.jpg""]","4","","","","","","3","","4","[""./rc_img/cop_condGroup_10_SafeStreets_autoscaled.png"",""./rc_img/cop_condGroup_10_CommunitySafety_autoscaled.png""]","4","",""
"sliderTrial","html-slider-response","71","429194","0.0-71.0","","656776a7904ae00d6b91d1dd","6568aa3357a0ddeca59c067b","4","","","","","","","","","","","","1145","[""SV_PolicingMSA/CO_1325/IMG_13_1325.jpg"",""SV_PolicingMSA/CO_1325/IMG_5_1325.jpg"",""SV_PolicingMSA/CO_1325/IMG_3_1325.jpg"",""SV_PolicingMSA/CO_1325/IMG_9_1325.jpg"",""SV_PolicingMSA/CO_1325/IMG_14_1325.jpg"",""SV_PolicingMSA/CO_1325/IMG_11_1325.jpg"",""SV_PolicingMSA/CO_1325/IMG_1_1325.jpg"",""SV_PolicingMSA/CO_1325/IMG_8_1325.jpg""]","4","","","","","","3","","4","[""./rc_img/cop_condGroup_5_CommunitySafety_autoscaled.png"",""./rc_img/cop_condGroup_5_SafeStreets_autoscaled.png""]","4","",""
"sliderTrial","html-slider-response","72","430446","0.0-72.0","","656776a7904ae00d6b91d1dd","6568aa3357a0ddeca59c067b","4","","","","","","","","","","","","1250","[""SV_PolicingMSA/CO_1325/IMG_13_1325.jpg"",""SV_PolicingMSA/CO_1325/IMG_5_1325.jpg"",""SV_PolicingMSA/CO_1325/IMG_3_1325.jpg"",""SV_PolicingMSA/CO_1325/IMG_9_1325.jpg"",""SV_PolicingMSA/CO_1325/IMG_14_1325.jpg"",""SV_PolicingMSA/CO_1325/IMG_11_1325.jpg"",""SV_PolicingMSA/CO_1325/IMG_1_1325.jpg"",""SV_PolicingMSA/CO_1325/IMG_8_1325.jpg""]","4","","","","","","3","","4","[""./rc_img/cop_condGroup_7_CommunitySafety_autoscaled.png"",""./rc_img/cop_condGroup_7_SafeStreets_autoscaled.png""]","4","",""
"sliderTrial","html-slider-response","73","431728","0.0-73.0","","656776a7904ae00d6b91d1dd","6568aa3357a0ddeca59c067b","4","","","","","","","","","","","","1280","[""SV_PolicingMSA/CO_1325/IMG_13_1325.jpg"",""SV_PolicingMSA/CO_1325/IMG_5_1325.jpg"",""SV_PolicingMSA/CO_1325/IMG_3_1325.jpg"",""SV_PolicingMSA/CO_1325/IMG_9_1325.jpg"",""SV_PolicingMSA/CO_1325/IMG_14_1325.jpg"",""SV_PolicingMSA/CO_1325/IMG_11_1325.jpg"",""SV_PolicingMSA/CO_1325/IMG_1_1325.jpg"",""SV_PolicingMSA/CO_1325/IMG_8_1325.jpg""]","4","","","","","","3","","4","[""./rc_img/cop_condGroup_18_CommunitySafety_autoscaled.png"",""./rc_img/cop_condGroup_18_SafeStreets_autoscaled.png""]","4","",""
"half-way","html-button-response","74","447481","0.0-74.0","","656776a7904ae00d6b91d1dd","6568aa3357a0ddeca59c067b","4","","","","","","","","","","","","null","
    <h3>You are now half way through the study.</h3>
    <p>Please take a quick, 15-second break before you continue.</p>
    <img src='assets/img/countdown-15.gif'>
    <p>The study will automatically advance forward after the countdown is complete. <br> However, you may click ""Next"" to advance forward now if you wish.</p>
    ","null","","","","","","","","","","","",""
"before_SVSlide_prompt","html-button-response","75","450554","0.0-75.0","","656776a7904ae00d6b91d1dd","6568aa3357a0ddeca59c067b","4","","","","","","","","","","","","3071","Click [Next] to see the next neighborhood!","0","","","","","","","","","","","",""
"street view slide show","image-button-response","76","451555","0.0-76.0","","656776a7904ae00d6b91d1dd","6568aa3357a0ddeca59c067b","4","","","","","","","","","","","","null","stimulus/SV_PolicingMSA/CO_649/IMG_11_649.jpg","null","","","","","","2","","","","","",""
"street view slide show","image-button-response","77","452556","0.0-77.0","","656776a7904ae00d6b91d1dd","6568aa3357a0ddeca59c067b","4","","","","","","","","","","","","null","stimulus/SV_PolicingMSA/CO_649/IMG_6_649.jpg","null","","","","","","2","","","","","",""
"street view slide show","image-button-response","78","453557","0.0-78.0","","656776a7904ae00d6b91d1dd","6568aa3357a0ddeca59c067b","4","","","","","","","","","","","","null","stimulus/SV_PolicingMSA/CO_649/IMG_14_649.jpg","null","","","","","","2","","","","","",""
"street view slide show","image-button-response","79","454558","0.0-79.0","","656776a7904ae00d6b91d1dd","6568aa3357a0ddeca59c067b","4","","","","","","","","","","","","null","stimulus/SV_PolicingMSA/CO_649/IMG_9_649.jpg","null","","","","","","2","","","","","",""
"street view slide show","image-button-response","80","455559","0.0-80.0","","656776a7904ae00d6b91d1dd","6568aa3357a0ddeca59c067b","4","","","","","","","","","","","","null","stimulus/SV_PolicingMSA/CO_649/IMG_12_649.jpg","null","","","","","","2","","","","","",""
"street view slide show","image-button-response","81","456560","0.0-81.0","","656776a7904ae00d6b91d1dd","6568aa3357a0ddeca59c067b","4","","","","","","","","","","","","null","stimulus/SV_PolicingMSA/CO_649/IMG_3_649.jpg","null","","","","","","2","","","","","",""
"street view slide show","image-button-response","82","457561","0.0-82.0","","656776a7904ae00d6b91d1dd","6568aa3357a0ddeca59c067b","4","","","","","","","","","","","","null","stimulus/SV_PolicingMSA/CO_649/IMG_4_649.jpg","null","","","","","","2","","","","","",""
"street view slide show","image-button-response","83","458562","0.0-83.0","","656776a7904ae00d6b91d1dd","6568aa3357a0ddeca59c067b","4","","","","","","","","","","","","null","stimulus/SV_PolicingMSA/CO_649/IMG_8_649.jpg","null","","","","","","2","","","","","",""
"dot matrix survey1","survey","84","470321","0.0-84.0","","656776a7904ae00d6b91d1dd","6568aa3357a0ddeca59c067b","4","","","","","","","","","","","","11746","","{""P0_Q0"":null,""P0_Q1"":{""wealthy"":2,""safe"":2,""walkable"":2,""traditional"":2,""diverse"":2}}","","","","","","2","[]","","","","",""
"dot matrix survey2","survey","85","482742","0.0-85.0","","656776a7904ae00d6b91d1dd","6568aa3357a0ddeca59c067b","4","","","","","","","","","","","","12411","","{""P0_Q0"":null,""P0_Q1"":{""violence"":2,""crime"":2,""drug"":2,""schools"":2,""opportunities"":2}}","","","","","","2","[]","","","","",""
"dot matrix survey3","survey","86","499231","0.0-86.0","","656776a7904ae00d6b91d1dd","6568aa3357a0ddeca59c067b","4","","","","","","","","","","","","16480","","{""P0_Q0"":null,""P0_Q1"":{""movein"":2,""moveout"":2,""shopping"":2,""walk"":1,""park"":2,""school"":1}}","","","","","","2","[]","","","","",""
"sliderTrial","html-slider-response","87","501631","0.0-87.0","","656776a7904ae00d6b91d1dd","6568aa3357a0ddeca59c067b","4","","","","","","","","","","","","2397","[""SV_PolicingMSA/CO_649/IMG_11_649.jpg"",""SV_PolicingMSA/CO_649/IMG_6_649.jpg"",""SV_PolicingMSA/CO_649/IMG_14_649.jpg"",""SV_PolicingMSA/CO_649/IMG_9_649.jpg"",""SV_PolicingMSA/CO_649/IMG_12_649.jpg"",""SV_PolicingMSA/CO_649/IMG_3_649.jpg"",""SV_PolicingMSA/CO_649/IMG_4_649.jpg"",""SV_PolicingMSA/CO_649/IMG_8_649.jpg""]","4","","","","","","2","","4","[""./rc_img/cop_condGroup_8_CommunitySafety_autoscaled.png"",""./rc_img/cop_condGroup_8_SafeStreets_autoscaled.png""]","4","",""
"sliderTrial","html-slider-response","88","502802","0.0-88.0","","656776a7904ae00d6b91d1dd","6568aa3357a0ddeca59c067b","4","","","","","","","","","","","","1166","[""SV_PolicingMSA/CO_649/IMG_11_649.jpg"",""SV_PolicingMSA/CO_649/IMG_6_649.jpg"",""SV_PolicingMSA/CO_649/IMG_14_649.jpg"",""SV_PolicingMSA/CO_649/IMG_9_649.jpg"",""SV_PolicingMSA/CO_649/IMG_12_649.jpg"",""SV_PolicingMSA/CO_649/IMG_3_649.jpg"",""SV_PolicingMSA/CO_649/IMG_4_649.jpg"",""SV_PolicingMSA/CO_649/IMG_8_649.jpg""]","4","","","","","","2","","4","[""./rc_img/cop_condGroup_11_SafeStreets_autoscaled.png"",""./rc_img/cop_condGroup_11_CommunitySafety_autoscaled.png""]","4","",""
"sliderTrial","html-slider-response","89","503916","0.0-89.0","","656776a7904ae00d6b91d1dd","6568aa3357a0ddeca59c067b","4","","","","","","","","","","","","1110","[""SV_PolicingMSA/CO_649/IMG_11_649.jpg"",""SV_PolicingMSA/CO_649/IMG_6_649.jpg"",""SV_PolicingMSA/CO_649/IMG_14_649.jpg"",""SV_PolicingMSA/CO_649/IMG_9_649.jpg"",""SV_PolicingMSA/CO_649/IMG_12_649.jpg"",""SV_PolicingMSA/CO_649/IMG_3_649.jpg"",""SV_PolicingMSA/CO_649/IMG_4_649.jpg"",""SV_PolicingMSA/CO_649/IMG_8_649.jpg""]","4","","","","","","2","","4","[""./rc_img/cop_condGroup_13_SafeStreets_autoscaled.png"",""./rc_img/cop_condGroup_13_CommunitySafety_autoscaled.png""]","4","",""
"sliderTrial","html-slider-response","90","505018","0.0-90.0","","656776a7904ae00d6b91d1dd","6568aa3357a0ddeca59c067b","4","","","","","","","","","","","","1097","[""SV_PolicingMSA/CO_649/IMG_11_649.jpg"",""SV_PolicingMSA/CO_649/IMG_6_649.jpg"",""SV_PolicingMSA/CO_649/IMG_14_649.jpg"",""SV_PolicingMSA/CO_649/IMG_9_649.jpg"",""SV_PolicingMSA/CO_649/IMG_12_649.jpg"",""SV_PolicingMSA/CO_649/IMG_3_649.jpg"",""SV_PolicingMSA/CO_649/IMG_4_649.jpg"",""SV_PolicingMSA/CO_649/IMG_8_649.jpg""]","4","","","","","","2","","4","[""./rc_img/cop_condGroup_9_CommunitySafety_autoscaled.png"",""./rc_img/cop_condGroup_9_SafeStreets_autoscaled.png""]","4","",""
"sliderTrial","html-slider-response","91","506140","0.0-91.0","","656776a7904ae00d6b91d1dd","6568aa3357a0ddeca59c067b","4","","","","","","","","","","","","1118","[""SV_PolicingMSA/CO_649/IMG_11_649.jpg"",""SV_PolicingMSA/CO_649/IMG_6_649.jpg"",""SV_PolicingMSA/CO_649/IMG_14_649.jpg"",""SV_PolicingMSA/CO_649/IMG_9_649.jpg"",""SV_PolicingMSA/CO_649/IMG_12_649.jpg"",""SV_PolicingMSA/CO_649/IMG_3_649.jpg"",""SV_PolicingMSA/CO_649/IMG_4_649.jpg"",""SV_PolicingMSA/CO_649/IMG_8_649.jpg""]","4","","","","","","2","","4","[""./rc_img/cop_condGroup_12_SafeStreets_autoscaled.png"",""./rc_img/cop_condGroup_12_CommunitySafety_autoscaled.png""]","4","",""
"before_SVSlide_prompt","html-button-response","92","507501","0.0-92.0","","656776a7904ae00d6b91d1dd","6568aa3357a0ddeca59c067b","4","","","","","","","","","","","","1359","Click [Next] to see the next neighborhood!","0","","","","","","","","","","","",""
"street view slide show","image-button-response","93","508504","0.0-93.0","","656776a7904ae00d6b91d1dd","6568aa3357a0ddeca59c067b","4","","","","","","","","","","","","null","stimulus/SV_PolicingMSA/CO_674/IMG_8_674.jpg","null","","","","","","4","","","","","",""
"street view slide show","image-button-response","94","509506","0.0-94.0","","656776a7904ae00d6b91d1dd","6568aa3357a0ddeca59c067b","4","","","","","","","","","","","","null","stimulus/SV_PolicingMSA/CO_674/IMG_4_674.jpg","null","","","","","","4","","","","","",""
"street view slide show","image-button-response","95","510508","0.0-95.0","","656776a7904ae00d6b91d1dd","6568aa3357a0ddeca59c067b","4","","","","","","","","","","","","null","stimulus/SV_PolicingMSA/CO_674/IMG_13_674.jpg","null","","","","","","4","","","","","",""
"street view slide show","image-button-response","96","511510","0.0-96.0","","656776a7904ae00d6b91d1dd","6568aa3357a0ddeca59c067b","4","","","","","","","","","","","","null","stimulus/SV_PolicingMSA/CO_674/IMG_7_674.jpg","null","","","","","","4","","","","","",""
"street view slide show","image-button-response","97","512511","0.0-97.0","","656776a7904ae00d6b91d1dd","6568aa3357a0ddeca59c067b","4","","","","","","","","","","","","null","stimulus/SV_PolicingMSA/CO_674/IMG_0_674.jpg","null","","","","","","4","","","","","",""
"street view slide show","image-button-response","98","513512","0.0-98.0","","656776a7904ae00d6b91d1dd","6568aa3357a0ddeca59c067b","4","","","","","","","","","","","","null","stimulus/SV_PolicingMSA/CO_674/IMG_2_674.jpg","null","","","","","","4","","","","","",""
"street view slide show","image-button-response","99","514514","0.0-99.0","","656776a7904ae00d6b91d1dd","6568aa3357a0ddeca59c067b","4","","","","","","","","","","","","null","stimulus/SV_PolicingMSA/CO_674/IMG_10_674.jpg","null","","","","","","4","","","","","",""
"street view slide show","image-button-response","100","515516","0.0-100.0","","656776a7904ae00d6b91d1dd","6568aa3357a0ddeca59c067b","4","","","","","","","","","","","","null","stimulus/SV_PolicingMSA/CO_674/IMG_14_674.jpg","null","","","","","","4","","","","","",""
"dot matrix survey1","survey","101","528836","0.0-101.0","","656776a7904ae00d6b91d1dd","6568aa3357a0ddeca59c067b","4","","","","","","","","","","","","13305","","{""P0_Q0"":null,""P0_Q1"":{""wealthy"":2,""safe"":3,""walkable"":2,""traditional"":2,""diverse"":2}}","","","","","","4","[]","","","","",""
"dot matrix survey2","survey","102","542449","0.0-102.0","","656776a7904ae00d6b91d1dd","6568aa3357a0ddeca59c067b","4","","","","","","","","","","","","13605","","{""P0_Q0"":null,""P0_Q1"":{""violence"":1,""crime"":1,""drug"":2,""schools"":1,""opportunities"":3}}","","","","","","4","[]","","","","",""
"dot matrix survey3","survey","103","556994","0.0-103.0","","656776a7904ae00d6b91d1dd","6568aa3357a0ddeca59c067b","4","","","","","","","","","","","","14536","","{""P0_Q0"":null,""P0_Q1"":{""movein"":2,""moveout"":1,""shopping"":3,""walk"":3,""park"":3,""school"":1}}","","","","","","4","[]","","","","",""
"sliderTrial","html-slider-response","104","559062","0.0-104.0","","656776a7904ae00d6b91d1dd","6568aa3357a0ddeca59c067b","4","","","","","","","","","","","","2066","[""SV_PolicingMSA/CO_674/IMG_8_674.jpg"",""SV_PolicingMSA/CO_674/IMG_4_674.jpg"",""SV_PolicingMSA/CO_674/IMG_13_674.jpg"",""SV_PolicingMSA/CO_674/IMG_7_674.jpg"",""SV_PolicingMSA/CO_674/IMG_0_674.jpg"",""SV_PolicingMSA/CO_674/IMG_2_674.jpg"",""SV_PolicingMSA/CO_674/IMG_10_674.jpg"",""SV_PolicingMSA/CO_674/IMG_14_674.jpg""]","4","","","","","","4","","4","[""./rc_img/cop_condGroup_8_CommunitySafety_autoscaled.png"",""./rc_img/cop_condGroup_8_SafeStreets_autoscaled.png""]","4","",""
"sliderTrial","html-slider-response","105","560419","0.0-105.0","","656776a7904ae00d6b91d1dd","6568aa3357a0ddeca59c067b","4","","","","","","","","","","","","1352","[""SV_PolicingMSA/CO_674/IMG_8_674.jpg"",""SV_PolicingMSA/CO_674/IMG_4_674.jpg"",""SV_PolicingMSA/CO_674/IMG_13_674.jpg"",""SV_PolicingMSA/CO_674/IMG_7_674.jpg"",""SV_PolicingMSA/CO_674/IMG_0_674.jpg"",""SV_PolicingMSA/CO_674/IMG_2_674.jpg"",""SV_PolicingMSA/CO_674/IMG_10_674.jpg"",""SV_PolicingMSA/CO_674/IMG_14_674.jpg""]","4","","","","","","4","","4","[""./rc_img/cop_condGroup_11_SafeStreets_autoscaled.png"",""./rc_img/cop_condGroup_11_CommunitySafety_autoscaled.png""]","4","",""
"sliderTrial","html-slider-response","106","561647","0.0-106.0","","656776a7904ae00d6b91d1dd","6568aa3357a0ddeca59c067b","4","","","","","","","","","","","","1225","[""SV_PolicingMSA/CO_674/IMG_8_674.jpg"",""SV_PolicingMSA/CO_674/IMG_4_674.jpg"",""SV_PolicingMSA/CO_674/IMG_13_674.jpg"",""SV_PolicingMSA/CO_674/IMG_7_674.jpg"",""SV_PolicingMSA/CO_674/IMG_0_674.jpg"",""SV_PolicingMSA/CO_674/IMG_2_674.jpg"",""SV_PolicingMSA/CO_674/IMG_10_674.jpg"",""SV_PolicingMSA/CO_674/IMG_14_674.jpg""]","4","","","","","","4","","4","[""./rc_img/cop_condGroup_13_SafeStreets_autoscaled.png"",""./rc_img/cop_condGroup_13_CommunitySafety_autoscaled.png""]","4","",""
"sliderTrial","html-slider-response","107","562912","0.0-107.0","","656776a7904ae00d6b91d1dd","6568aa3357a0ddeca59c067b","4","","","","","","","","","","","","1260","[""SV_PolicingMSA/CO_674/IMG_8_674.jpg"",""SV_PolicingMSA/CO_674/IMG_4_674.jpg"",""SV_PolicingMSA/CO_674/IMG_13_674.jpg"",""SV_PolicingMSA/CO_674/IMG_7_674.jpg"",""SV_PolicingMSA/CO_674/IMG_0_674.jpg"",""SV_PolicingMSA/CO_674/IMG_2_674.jpg"",""SV_PolicingMSA/CO_674/IMG_10_674.jpg"",""SV_PolicingMSA/CO_674/IMG_14_674.jpg""]","4","","","","","","4","","4","[""./rc_img/cop_condGroup_9_CommunitySafety_autoscaled.png"",""./rc_img/cop_condGroup_9_SafeStreets_autoscaled.png""]","4","",""
"sliderTrial","html-slider-response","108","564266","0.0-108.0","","656776a7904ae00d6b91d1dd","6568aa3357a0ddeca59c067b","4","","","","","","","","","","","","1351","[""SV_PolicingMSA/CO_674/IMG_8_674.jpg"",""SV_PolicingMSA/CO_674/IMG_4_674.jpg"",""SV_PolicingMSA/CO_674/IMG_13_674.jpg"",""SV_PolicingMSA/CO_674/IMG_7_674.jpg"",""SV_PolicingMSA/CO_674/IMG_0_674.jpg"",""SV_PolicingMSA/CO_674/IMG_2_674.jpg"",""SV_PolicingMSA/CO_674/IMG_10_674.jpg"",""SV_PolicingMSA/CO_674/IMG_14_674.jpg""]","4","","","","","","4","","4","[""./rc_img/cop_condGroup_12_SafeStreets_autoscaled.png"",""./rc_img/cop_condGroup_12_CommunitySafety_autoscaled.png""]","4","",""
"before_SVSlide_prompt","html-button-response","109","565428","0.0-109.0","","656776a7904ae00d6b91d1dd","6568aa3357a0ddeca59c067b","4","","","","","","","","","","","","1159","Click [Next] to see the next neighborhood!","0","","","","","","","","","","","",""
"street view slide show","image-button-response","110","566430","0.0-110.0","","656776a7904ae00d6b91d1dd","6568aa3357a0ddeca59c067b","4","","","","","","","","","","","","null","stimulus/SV_PolicingMSA/CO_368/IMG_4_368.jpg","null","","","","","","1","","","","","",""
"street view slide show","image-button-response","111","567432","0.0-111.0","","656776a7904ae00d6b91d1dd","6568aa3357a0ddeca59c067b","4","","","","","","","","","","","","null","stimulus/SV_PolicingMSA/CO_368/IMG_7_368.jpg","null","","","","","","1","","","","","",""
"street view slide show","image-button-response","112","568433","0.0-112.0","","656776a7904ae00d6b91d1dd","6568aa3357a0ddeca59c067b","4","","","","","","","","","","","","null","stimulus/SV_PolicingMSA/CO_368/IMG_6_368.jpg","null","","","","","","1","","","","","",""
"street view slide show","image-button-response","113","569434","0.0-113.0","","656776a7904ae00d6b91d1dd","6568aa3357a0ddeca59c067b","4","","","","","","","","","","","","null","stimulus/SV_PolicingMSA/CO_368/IMG_1_368.jpg","null","","","","","","1","","","","","",""
"street view slide show","image-button-response","114","570435","0.0-114.0","","656776a7904ae00d6b91d1dd","6568aa3357a0ddeca59c067b","4","","","","","","","","","","","","null","stimulus/SV_PolicingMSA/CO_368/IMG_10_368.jpg","null","","","","","","1","","","","","",""
"street view slide show","image-button-response","115","571436","0.0-115.0","","656776a7904ae00d6b91d1dd","6568aa3357a0ddeca59c067b","4","","","","","","","","","","","","null","stimulus/SV_PolicingMSA/CO_368/IMG_9_368.jpg","null","","","","","","1","","","","","",""
"street view slide show","image-button-response","116","572437","0.0-116.0","","656776a7904ae00d6b91d1dd","6568aa3357a0ddeca59c067b","4","","","","","","","","","","","","null","stimulus/SV_PolicingMSA/CO_368/IMG_2_368.jpg","null","","","","","","1","","","","","",""
"street view slide show","image-button-response","117","573438","0.0-117.0","","656776a7904ae00d6b91d1dd","6568aa3357a0ddeca59c067b","4","","","","","","","","","","","","null","stimulus/SV_PolicingMSA/CO_368/IMG_11_368.jpg","null","","","","","","1","","","","","",""
"dot matrix survey1","survey","118","589500","0.0-118.0","","656776a7904ae00d6b91d1dd","6568aa3357a0ddeca59c067b","4","","","","","","","","","","","","16049","","{""P0_Q0"":null,""P0_Q1"":{""wealthy"":1,""safe"":2,""walkable"":0,""traditional"":1,""diverse"":3}}","","","","","","1","[]","","","","",""
"dot matrix survey2","survey","119","604438","0.0-119.0","","656776a7904ae00d6b91d1dd","6568aa3357a0ddeca59c067b","4","","","","","","","","","","","","14927","","{""P0_Q0"":null,""P0_Q1"":{""violence"":2,""crime"":3,""drug"":3,""schools"":1,""opportunities"":1}}","","","","","","1","[]","","","","",""
"dot matrix survey3","survey","120","619684","0.0-120.0","","656776a7904ae00d6b91d1dd","6568aa3357a0ddeca59c067b","4","","","","","","","","","","","","15237","","{""P0_Q0"":null,""P0_Q1"":{""movein"":1,""moveout"":3,""shopping"":1,""walk"":0,""park"":1,""school"":1}}","","","","","","1","[]","","","","",""
"sliderTrial","html-slider-response","121","621843","0.0-121.0","","656776a7904ae00d6b91d1dd","6568aa3357a0ddeca59c067b","4","","","","","","","","","","","","2156","[""SV_PolicingMSA/CO_368/IMG_4_368.jpg"",""SV_PolicingMSA/CO_368/IMG_7_368.jpg"",""SV_PolicingMSA/CO_368/IMG_6_368.jpg"",""SV_PolicingMSA/CO_368/IMG_1_368.jpg"",""SV_PolicingMSA/CO_368/IMG_10_368.jpg"",""SV_PolicingMSA/CO_368/IMG_9_368.jpg"",""SV_PolicingMSA/CO_368/IMG_2_368.jpg"",""SV_PolicingMSA/CO_368/IMG_11_368.jpg""]","4","","","","","","1","","4","[""./rc_img/cop_condGroup_6_SafeStreets_autoscaled.png"",""./rc_img/cop_condGroup_6_CommunitySafety_autoscaled.png""]","4","",""
"sliderTrial","html-slider-response","122","623033","0.0-122.0","","656776a7904ae00d6b91d1dd","6568aa3357a0ddeca59c067b","4","","","","","","","","","","","","1186","[""SV_PolicingMSA/CO_368/IMG_4_368.jpg"",""SV_PolicingMSA/CO_368/IMG_7_368.jpg"",""SV_PolicingMSA/CO_368/IMG_6_368.jpg"",""SV_PolicingMSA/CO_368/IMG_1_368.jpg"",""SV_PolicingMSA/CO_368/IMG_10_368.jpg"",""SV_PolicingMSA/CO_368/IMG_9_368.jpg"",""SV_PolicingMSA/CO_368/IMG_2_368.jpg"",""SV_PolicingMSA/CO_368/IMG_11_368.jpg""]","4","","","","","","1","","4","[""./rc_img/cop_condGroup_10_SafeStreets_autoscaled.png"",""./rc_img/cop_condGroup_10_CommunitySafety_autoscaled.png""]","4","",""
"sliderTrial","html-slider-response","123","624108","0.0-123.0","","656776a7904ae00d6b91d1dd","6568aa3357a0ddeca59c067b","4","","","","","","","","","","","","1072","[""SV_PolicingMSA/CO_368/IMG_4_368.jpg"",""SV_PolicingMSA/CO_368/IMG_7_368.jpg"",""SV_PolicingMSA/CO_368/IMG_6_368.jpg"",""SV_PolicingMSA/CO_368/IMG_1_368.jpg"",""SV_PolicingMSA/CO_368/IMG_10_368.jpg"",""SV_PolicingMSA/CO_368/IMG_9_368.jpg"",""SV_PolicingMSA/CO_368/IMG_2_368.jpg"",""SV_PolicingMSA/CO_368/IMG_11_368.jpg""]","4","","","","","","1","","4","[""./rc_img/cop_condGroup_5_CommunitySafety_autoscaled.png"",""./rc_img/cop_condGroup_5_SafeStreets_autoscaled.png""]","4","",""
"sliderTrial_attention","html-slider-response","124","634115","0.0-124.0","","656776a7904ae00d6b91d1dd","6568aa3357a0ddeca59c067b","4","","","","","","","","","","","","null","[""SV_PolicingMSA/CO_368/IMG_4_368.jpg"",""SV_PolicingMSA/CO_368/IMG_7_368.jpg"",""SV_PolicingMSA/CO_368/IMG_6_368.jpg"",""SV_PolicingMSA/CO_368/IMG_1_368.jpg"",""SV_PolicingMSA/CO_368/IMG_10_368.jpg"",""SV_PolicingMSA/CO_368/IMG_9_368.jpg"",""SV_PolicingMSA/CO_368/IMG_2_368.jpg"",""SV_PolicingMSA/CO_368/IMG_11_368.jpg""]","null","","","","","","1","","4","[""./assets/img/attnchk.png"",""./assets/img/attnchk.png""]","","true",""
"sliderTrial","html-slider-response","125","636655","0.0-125.0","","656776a7904ae00d6b91d1dd","6568aa3357a0ddeca59c067b","4","","","","","","","","","","","","2533","[""SV_PolicingMSA/CO_368/IMG_4_368.jpg"",""SV_PolicingMSA/CO_368/IMG_7_368.jpg"",""SV_PolicingMSA/CO_368/IMG_6_368.jpg"",""SV_PolicingMSA/CO_368/IMG_1_368.jpg"",""SV_PolicingMSA/CO_368/IMG_10_368.jpg"",""SV_PolicingMSA/CO_368/IMG_9_368.jpg"",""SV_PolicingMSA/CO_368/IMG_2_368.jpg"",""SV_PolicingMSA/CO_368/IMG_11_368.jpg""]","4","","","","","","1","","4","[""./rc_img/cop_condGroup_7_CommunitySafety_autoscaled.png"",""./rc_img/cop_condGroup_7_SafeStreets_autoscaled.png""]","4","",""
"sliderTrial","html-slider-response","126","638576","0.0-126.0","","656776a7904ae00d6b91d1dd","6568aa3357a0ddeca59c067b","4","","","","","","","","","","","","1916","[""SV_PolicingMSA/CO_368/IMG_4_368.jpg"",""SV_PolicingMSA/CO_368/IMG_7_368.jpg"",""SV_PolicingMSA/CO_368/IMG_6_368.jpg"",""SV_PolicingMSA/CO_368/IMG_1_368.jpg"",""SV_PolicingMSA/CO_368/IMG_10_368.jpg"",""SV_PolicingMSA/CO_368/IMG_9_368.jpg"",""SV_PolicingMSA/CO_368/IMG_2_368.jpg"",""SV_PolicingMSA/CO_368/IMG_11_368.jpg""]","4","","","","","","1","","4","[""./rc_img/cop_condGroup_18_CommunitySafety_autoscaled.png"",""./rc_img/cop_condGroup_18_SafeStreets_autoscaled.png""]","4","",""
"before_SVSlide_prompt","html-button-response","127","639788","0.0-127.0","","656776a7904ae00d6b91d1dd","6568aa3357a0ddeca59c067b","4","","","","","","","","","","","","1211","Click [Next] to see the next neighborhood!","0","","","","","","","","","","","",""
"street view slide show","image-button-response","128","640789","0.0-128.0","","656776a7904ae00d6b91d1dd","6568aa3357a0ddeca59c067b","4","","","","","","","","","","","","null","stimulus/SV_PolicingMSA/CO_252/IMG_14_252.jpg","null","","","","","","0","","","","","",""
"street view slide show","image-button-response","129","641790","0.0-129.0","","656776a7904ae00d6b91d1dd","6568aa3357a0ddeca59c067b","4","","","","","","","","","","","","null","stimulus/SV_PolicingMSA/CO_252/IMG_3_252.jpg","null","","","","","","0","","","","","",""
"street view slide show","image-button-response","130","642791","0.0-130.0","","656776a7904ae00d6b91d1dd","6568aa3357a0ddeca59c067b","4","","","","","","","","","","","","null","stimulus/SV_PolicingMSA/CO_252/IMG_11_252.jpg","null","","","","","","0","","","","","",""
"street view slide show","image-button-response","131","643792","0.0-131.0","","656776a7904ae00d6b91d1dd","6568aa3357a0ddeca59c067b","4","","","","","","","","","","","","null","stimulus/SV_PolicingMSA/CO_252/IMG_6_252.jpg","null","","","","","","0","","","","","",""
"street view slide show","image-button-response","132","644794","0.0-132.0","","656776a7904ae00d6b91d1dd","6568aa3357a0ddeca59c067b","4","","","","","","","","","","","","null","stimulus/SV_PolicingMSA/CO_252/IMG_0_252.jpg","null","","","","","","0","","","","","",""
"street view slide show","image-button-response","133","645796","0.0-133.0","","656776a7904ae00d6b91d1dd","6568aa3357a0ddeca59c067b","4","","","","","","","","","","","","null","stimulus/SV_PolicingMSA/CO_252/IMG_8_252.jpg","null","","","","","","0","","","","","",""
"street view slide show","image-button-response","134","646797","0.0-134.0","","656776a7904ae00d6b91d1dd","6568aa3357a0ddeca59c067b","4","","","","","","","","","","","","null","stimulus/SV_PolicingMSA/CO_252/IMG_7_252.jpg","null","","","","","","0","","","","","",""
"street view slide show","image-button-response","135","647798","0.0-135.0","","656776a7904ae00d6b91d1dd","6568aa3357a0ddeca59c067b","4","","","","","","","","","","","","null","stimulus/SV_PolicingMSA/CO_252/IMG_12_252.jpg","null","","","","","","0","","","","","",""
"dot matrix survey1","survey","136","659998","0.0-136.0","","656776a7904ae00d6b91d1dd","6568aa3357a0ddeca59c067b","4","","","","","","","","","","","","12183","","{""P0_Q0"":null,""P0_Q1"":{""wealthy"":1,""safe"":2,""walkable"":1,""traditional"":2,""diverse"":2}}","","","","","","0","[]","","","","",""
"dot matrix survey2","survey","137","670740","0.0-137.0","","656776a7904ae00d6b91d1dd","6568aa3357a0ddeca59c067b","4","","","","","","","","","","","","10733","","{""P0_Q0"":null,""P0_Q1"":{""violence"":2,""crime"":2,""drug"":2,""schools"":1,""opportunities"":1}}","","","","","","0","[]","","","","",""
"dot matrix survey3","survey","138","687020","0.0-138.0","","656776a7904ae00d6b91d1dd","6568aa3357a0ddeca59c067b","4","","","","","","","","","","","","16270","","{""P0_Q0"":null,""P0_Q1"":{""movein"":1,""moveout"":3,""shopping"":2,""walk"":1,""park"":1,""school"":1}}","","","","","","0","[]","","","","",""
"sliderTrial","html-slider-response","139","689144","0.0-139.0","","656776a7904ae00d6b91d1dd","6568aa3357a0ddeca59c067b","4","","","","","","","","","","","","2122","[""SV_PolicingMSA/CO_252/IMG_14_252.jpg"",""SV_PolicingMSA/CO_252/IMG_3_252.jpg"",""SV_PolicingMSA/CO_252/IMG_11_252.jpg"",""SV_PolicingMSA/CO_252/IMG_6_252.jpg"",""SV_PolicingMSA/CO_252/IMG_0_252.jpg"",""SV_PolicingMSA/CO_252/IMG_8_252.jpg"",""SV_PolicingMSA/CO_252/IMG_7_252.jpg"",""SV_PolicingMSA/CO_252/IMG_12_252.jpg""]","4","","","","","","0","","4","[""./rc_img/cop_condGroup_14_SafeStreets_autoscaled.png"",""./rc_img/cop_condGroup_14_CommunitySafety_autoscaled.png""]","4","",""
"sliderTrial_attention","html-slider-response","140","699146","0.0-140.0","","656776a7904ae00d6b91d1dd","6568aa3357a0ddeca59c067b","4","","","","","","","","","","","","null","[""SV_PolicingMSA/CO_252/IMG_14_252.jpg"",""SV_PolicingMSA/CO_252/IMG_3_252.jpg"",""SV_PolicingMSA/CO_252/IMG_11_252.jpg"",""SV_PolicingMSA/CO_252/IMG_6_252.jpg"",""SV_PolicingMSA/CO_252/IMG_0_252.jpg"",""SV_PolicingMSA/CO_252/IMG_8_252.jpg"",""SV_PolicingMSA/CO_252/IMG_7_252.jpg"",""SV_PolicingMSA/CO_252/IMG_12_252.jpg""]","null","","","","","","0","","4","[""./assets/img/attnchk.png"",""./assets/img/attnchk.png""]","","true",""
"sliderTrial","html-slider-response","141","701325","0.0-141.0","","656776a7904ae00d6b91d1dd","6568aa3357a0ddeca59c067b","4","","","","","","","","","","","","2176","[""SV_PolicingMSA/CO_252/IMG_14_252.jpg"",""SV_PolicingMSA/CO_252/IMG_3_252.jpg"",""SV_PolicingMSA/CO_252/IMG_11_252.jpg"",""SV_PolicingMSA/CO_252/IMG_6_252.jpg"",""SV_PolicingMSA/CO_252/IMG_0_252.jpg"",""SV_PolicingMSA/CO_252/IMG_8_252.jpg"",""SV_PolicingMSA/CO_252/IMG_7_252.jpg"",""SV_PolicingMSA/CO_252/IMG_12_252.jpg""]","4","","","","","","0","","4","[""./rc_img/cop_condGroup_19_SafeStreets_autoscaled.png"",""./rc_img/cop_condGroup_19_CommunitySafety_autoscaled.png""]","4","",""
"sliderTrial","html-slider-response","142","702970","0.0-142.0","","656776a7904ae00d6b91d1dd","6568aa3357a0ddeca59c067b","4","","","","","","","","","","","","1639","[""SV_PolicingMSA/CO_252/IMG_14_252.jpg"",""SV_PolicingMSA/CO_252/IMG_3_252.jpg"",""SV_PolicingMSA/CO_252/IMG_11_252.jpg"",""SV_PolicingMSA/CO_252/IMG_6_252.jpg"",""SV_PolicingMSA/CO_252/IMG_0_252.jpg"",""SV_PolicingMSA/CO_252/IMG_8_252.jpg"",""SV_PolicingMSA/CO_252/IMG_7_252.jpg"",""SV_PolicingMSA/CO_252/IMG_12_252.jpg""]","4","","","","","","0","","4","[""./rc_img/cop_condGroup_4_SafeStreets_autoscaled.png"",""./rc_img/cop_condGroup_4_CommunitySafety_autoscaled.png""]","4","",""
"sliderTrial","html-slider-response","143","704690","0.0-143.0","","656776a7904ae00d6b91d1dd","6568aa3357a0ddeca59c067b","4","","","","","","","","","","","","1718","[""SV_PolicingMSA/CO_252/IMG_14_252.jpg"",""SV_PolicingMSA/CO_252/IMG_3_252.jpg"",""SV_PolicingMSA/CO_252/IMG_11_252.jpg"",""SV_PolicingMSA/CO_252/IMG_6_252.jpg"",""SV_PolicingMSA/CO_252/IMG_0_252.jpg"",""SV_PolicingMSA/CO_252/IMG_8_252.jpg"",""SV_PolicingMSA/CO_252/IMG_7_252.jpg"",""SV_PolicingMSA/CO_252/IMG_12_252.jpg""]","4","","","","","","0","","4","[""./rc_img/cop_condGroup_1_SafeStreets_autoscaled.png"",""./rc_img/cop_condGroup_1_CommunitySafety_autoscaled.png""]","4","",""
"sliderTrial","html-slider-response","144","706356","0.0-144.0","","656776a7904ae00d6b91d1dd","6568aa3357a0ddeca59c067b","4","","","","","","","","","","","","1664","[""SV_PolicingMSA/CO_252/IMG_14_252.jpg"",""SV_PolicingMSA/CO_252/IMG_3_252.jpg"",""SV_PolicingMSA/CO_252/IMG_11_252.jpg"",""SV_PolicingMSA/CO_252/IMG_6_252.jpg"",""SV_PolicingMSA/CO_252/IMG_0_252.jpg"",""SV_PolicingMSA/CO_252/IMG_8_252.jpg"",""SV_PolicingMSA/CO_252/IMG_7_252.jpg"",""SV_PolicingMSA/CO_252/IMG_12_252.jpg""]","4","","","","","","0","","4","[""./rc_img/cop_condGroup_2_CommunitySafety_autoscaled.png"",""./rc_img/cop_condGroup_2_SafeStreets_autoscaled.png""]","4","",""
"demographics","survey-html-form","145","721970","0.0-145.0","","656776a7904ae00d6b91d1dd","6568aa3357a0ddeca59c067b","4","","","","","","","","","","","","15612","","{""age"":""45"",""sex"":""female"",""gender"":""woman"",""gender-self-describe"":"""",""zipcode"":""31419""}","","","","","","","","","","","",""
"demographics-list","survey","146","743085","0.0-146.0","","656776a7904ae00d6b91d1dd","6568aa3357a0ddeca59c067b","4","","","","","","","","","","","","21078","","{""P0_Q0"":null,""race-ethnicity"":[""White or of European ancestry""],""education"":""Graduate & professional degrees"",""P1_Q0"":null,""ideology"":""Conservative"",""P2_Q0"":null,""num-moves"":0,""P3_Q0"":null,""social-ladder"":6}","","","","","","","[]","","","","",""
"end-survey","survey-text","147","745151","0.0-147.0","","656776a7904ae00d6b91d1dd","6568aa3357a0ddeca59c067b","4","","","","","","","","","","","","2052","","{""Q0"":""""}","","","","","","","","","","","","2"
"end-survey","html-button-response","148","748069","0.0-148.0","","656776a7904ae00d6b91d1dd","6568aa3357a0ddeca59c067b","4","","","","","","","","","","","","2916","
    You've reached the end of the survey. <br><br> 
    <b>Do not close or refresh this window.</b><br>
    On the next page, you will be automatically redirected to Prolific. <br><br>

    <div class=""alert alert-warning""><b>
    </div>
","0","","","","","","","","","","","",""
