"task","trial_type","trial_index","time_elapsed","internal_node_id","subject_id","study_id","session_id","section","width","height","webaudio","browser","browser_version","mobile","os","fullscreen","vsync_rate","webcam","microphone","rt","stimulus","response","success","timeout","failed_images","failed_audio","failed_video","block","accuracy","slider_start","choices","standardized_response","correct","num_attention_checks_correct"
"pavlovia-init","pavlovia","0","1172","0.0-0.0","","656776a7904ae00d6b91d1dd","6568aad618edfbe0d2ef553f","14","","","","","","","","","","","","","","","","","","","","","","","","","",""
"browser-check","browser-check","1","2171","0.0-1.0","","656776a7904ae00d6b91d1dd","6568aad618edfbe0d2ef553f","14","1912","954","true","edge-chromium","119.0.0","false","Windows 10","true","60.36","true","true","","","","","","","","","","","","","","",""
"consent","html-button-response","2","207193","0.0-2.0","","656776a7904ae00d6b91d1dd","6568aad618edfbe0d2ef553f","14","","","","","","","","","","","","205019","
        <div style=""font-size: 80%; max-width:700px"">
            <h2>CONSENT FORM</h2>
        
            <div style=""text-align: left"">
            <h4>DESCRIPTION</h4>
            <p>
            You will complete a short task where you give your impressions of various neighborhoods and assign individuals to those spaces, and answer some questions about your thoughts and opinions.<br>
            The University of Michigan Institutional Review Board Health Sciences and Behavioral Sciences has determined that this study is exempt from IRB oversight.
            </p>

            <h4>TIME INVOLVEMENT</h4>
            <p>Your participation will take approximately 15 minutes. You will receive $3.15 upon completion of the study.</p>
        
            <h4>RISKS AND BENEFITS</h4>
            <p>
            The risks associated with this study are minimal. The benefits which may reasonably be expected to result from this study are none. We cannot and do not guarantee or promise that you will receive any benefits from this study.
            </p>
          
            <h4>SUBJECT'S RIGHTS</h4>
            <p>
            If you have read this form and have decided to participate in this project, please understand your participation is voluntary and you have the right to withdraw your consent or discontinue participation at any time without penalty or loss of benefits to which you are otherwise entitled. The alternative is not to participate. You have the right to refuse to answer particular questions. Your individual privacy will be maintained in all published and written data resulting from the study.
            </p>

            <h4>HUMAN SUBJECT APPROVAL</h4>
            <p>
            This study is exempt from ongoing IRB review.
            </p>

            <h4>CONTACT INFORMATION</h4>
            If you have any questions, concerns or complaints about this research, its procedures, risks and benefits, contact the Protocol Director, Nicholas Camp, npcamp@umich.edu, (443) 851-6783. <br>

            If you have questions about your rights as a research participant, or wish to obtain information, ask questions or discuss any concerns about this study with someone other than the researcher(s), please contact the following:<br><br>
            University of Michigan<br>
            Health Sciences and Behavioral Sciences Institutional Review Board (IRB-HSBS)<br>
            2800 Plymouth Road<br>
            Building 520, Room 1169Ann Arbor, MI 48109-2800<br>
            Telephone: 734-936-0933 or toll free (866) 936-0933<br>
            Fax: 734-936-1852<br>
            E-mail: irbhsbs@umich.edu<br><br>

            You can also contact the University of Michigan Compliance Hotline at 1-866-990-0111. You may also print this consent form to keep.
            <br><br>
            <div class=""alert alert-warning""><b>
            Do you consent to participate in this study? If you consent to participate in this study, please click “Accept and Continue”. If you select ""Decline and Exit"", you will be exited from the survey. <br>
            </b></div>
            </div>
        </div>
    ","1","","","","","","","","","","","",""
"","preload","3","229110","0.0-3.0","","656776a7904ae00d6b91d1dd","6568aad618edfbe0d2ef553f","14","","","","","","","","","","","","","","","true","false","[]","[]","[]","","","","","","",""
"instructions","html-button-response","4","234686","0.0-4.0","","656776a7904ae00d6b91d1dd","6568aad618edfbe0d2ef553f","14","","","","","","","","","","","","5575","
        <div class=""text-container"">
        <h1>Welcome to the study!</h1>
        
        <div class=""text-left"">
            <p>
                In this study, we are interested in what people can tell about spaces from Google Street View images. <br> Google Street View takes pictures of streets used for Google Earth and Google Maps. <br>You’ll see Google Street View images of different places and answer some questions about each one.<br>
            </p>
        </div>
        <img src = ""assets/img/example.png"" width = 500px, height = auto>
        <br>
    <br>
    ","0","","","","","","","","","","","",""
"instructions","html-button-response","5","238721","0.0-5.0","","656776a7904ae00d6b91d1dd","6568aad618edfbe0d2ef553f","14","","","","","","","","","","","","4034","
    <div class=""text-container"">
        <div class=""text-center"">
            <p>Please remember that your answers are completely anonymous.<br>Go with your gut response- there are no right or wrong answers!</p>
        </div>
    <br>
","0","","","","","","","","","","","",""
"before_SVSlide_prompt","html-button-response","6","241216","0.0-6.0","","656776a7904ae00d6b91d1dd","6568aad618edfbe0d2ef553f","14","","","","","","","","","","","","2494","Click [Next] to see the next neighborhood!","0","","","","","","","","","","","",""
"street view slide show","image-button-response","7","242225","0.0-7.0","","656776a7904ae00d6b91d1dd","6568aad618edfbe0d2ef553f","14","","","","","","","","","","","","null","stimulus/SV_PolicingMSA/GA_1832/IMG_10_1832.jpg","null","","","","","","2","","","","","",""
"street view slide show","image-button-response","8","243236","0.0-8.0","","656776a7904ae00d6b91d1dd","6568aad618edfbe0d2ef553f","14","","","","","","","","","","","","null","stimulus/SV_PolicingMSA/GA_1832/IMG_9_1832.jpg","null","","","","","","2","","","","","",""
"street view slide show","image-button-response","9","244242","0.0-9.0","","656776a7904ae00d6b91d1dd","6568aad618edfbe0d2ef553f","14","","","","","","","","","","","","null","stimulus/SV_PolicingMSA/GA_1832/IMG_1_1832.jpg","null","","","","","","2","","","","","",""
"street view slide show","image-button-response","10","245246","0.0-10.0","","656776a7904ae00d6b91d1dd","6568aad618edfbe0d2ef553f","14","","","","","","","","","","","","null","stimulus/SV_PolicingMSA/GA_1832/IMG_8_1832.jpg","null","","","","","","2","","","","","",""
"street view slide show","image-button-response","11","246250","0.0-11.0","","656776a7904ae00d6b91d1dd","6568aad618edfbe0d2ef553f","14","","","","","","","","","","","","null","stimulus/SV_PolicingMSA/GA_1832/IMG_11_1832.jpg","null","","","","","","2","","","","","",""
"street view slide show","image-button-response","12","247256","0.0-12.0","","656776a7904ae00d6b91d1dd","6568aad618edfbe0d2ef553f","14","","","","","","","","","","","","null","stimulus/SV_PolicingMSA/GA_1832/IMG_2_1832.jpg","null","","","","","","2","","","","","",""
"street view slide show","image-button-response","13","248270","0.0-13.0","","656776a7904ae00d6b91d1dd","6568aad618edfbe0d2ef553f","14","","","","","","","","","","","","null","stimulus/SV_PolicingMSA/GA_1832/IMG_12_1832.jpg","null","","","","","","2","","","","","",""
"street view slide show","image-button-response","14","249287","0.0-14.0","","656776a7904ae00d6b91d1dd","6568aad618edfbe0d2ef553f","14","","","","","","","","","","","","null","stimulus/SV_PolicingMSA/GA_1832/IMG_7_1832.jpg","null","","","","","","2","","","","","",""
"dot matrix survey1","survey","15","265194","0.0-15.0","","656776a7904ae00d6b91d1dd","6568aad618edfbe0d2ef553f","14","","","","","","","","","","","","15868","","{""P0_Q0"":null,""P0_Q1"":{""wealthy"":1,""safe"":2,""walkable"":2,""traditional"":2,""diverse"":2}}","","","","","","2","[]","","","","",""
"dot matrix survey2","survey","16","284624","0.0-16.0","","656776a7904ae00d6b91d1dd","6568aad618edfbe0d2ef553f","14","","","","","","","","","","","","19422","","{""P0_Q0"":null,""P0_Q1"":{""violence"":2,""crime"":2,""drug"":2,""schools"":1,""opportunities"":2}}","","","","","","2","[]","","","","",""
"dot matrix survey3","survey","17","380918","0.0-17.0","","656776a7904ae00d6b91d1dd","6568aad618edfbe0d2ef553f","14","","","","","","","","","","","","96288","","{""P0_Q0"":null,""P0_Q1"":{""movein"":2,""moveout"":2,""shopping"":3,""walk"":2,""park"":2,""school"":2}}","","","","","","2","[]","","","","",""
"sliderTrial","html-slider-response","18","392883","0.0-18.0","","656776a7904ae00d6b91d1dd","6568aad618edfbe0d2ef553f","14","","","","","","","","","","","","11963","[""SV_PolicingMSA/GA_1832/IMG_10_1832.jpg"",""SV_PolicingMSA/GA_1832/IMG_9_1832.jpg"",""SV_PolicingMSA/GA_1832/IMG_1_1832.jpg"",""SV_PolicingMSA/GA_1832/IMG_8_1832.jpg"",""SV_PolicingMSA/GA_1832/IMG_11_1832.jpg"",""SV_PolicingMSA/GA_1832/IMG_2_1832.jpg"",""SV_PolicingMSA/GA_1832/IMG_12_1832.jpg"",""SV_PolicingMSA/GA_1832/IMG_7_1832.jpg""]","4","","","","","","2","","4","[""./rc_img/cop_condGroup_18_CommunitySafety_autoscaled.png"",""./rc_img/cop_condGroup_18_SafeStreets_autoscaled.png""]","4","",""
"sliderTrial","html-slider-response","19","394937","0.0-19.0","","656776a7904ae00d6b91d1dd","6568aad618edfbe0d2ef553f","14","","","","","","","","","","","","2052","[""SV_PolicingMSA/GA_1832/IMG_10_1832.jpg"",""SV_PolicingMSA/GA_1832/IMG_9_1832.jpg"",""SV_PolicingMSA/GA_1832/IMG_1_1832.jpg"",""SV_PolicingMSA/GA_1832/IMG_8_1832.jpg"",""SV_PolicingMSA/GA_1832/IMG_11_1832.jpg"",""SV_PolicingMSA/GA_1832/IMG_2_1832.jpg"",""SV_PolicingMSA/GA_1832/IMG_12_1832.jpg"",""SV_PolicingMSA/GA_1832/IMG_7_1832.jpg""]","4","","","","","","2","","4","[""./rc_img/cop_condGroup_1_SafeStreets_autoscaled.png"",""./rc_img/cop_condGroup_1_CommunitySafety_autoscaled.png""]","4","",""
"sliderTrial","html-slider-response","20","395526","0.0-20.0","","656776a7904ae00d6b91d1dd","6568aad618edfbe0d2ef553f","14","","","","","","","","","","","","588","[""SV_PolicingMSA/GA_1832/IMG_10_1832.jpg"",""SV_PolicingMSA/GA_1832/IMG_9_1832.jpg"",""SV_PolicingMSA/GA_1832/IMG_1_1832.jpg"",""SV_PolicingMSA/GA_1832/IMG_8_1832.jpg"",""SV_PolicingMSA/GA_1832/IMG_11_1832.jpg"",""SV_PolicingMSA/GA_1832/IMG_2_1832.jpg"",""SV_PolicingMSA/GA_1832/IMG_12_1832.jpg"",""SV_PolicingMSA/GA_1832/IMG_7_1832.jpg""]","4","","","","","","2","","4","[""./rc_img/cop_condGroup_7_SafeStreets_autoscaled.png"",""./rc_img/cop_condGroup_7_CommunitySafety_autoscaled.png""]","4","",""
"sliderTrial","html-slider-response","21","396583","0.0-21.0","","656776a7904ae00d6b91d1dd","6568aad618edfbe0d2ef553f","14","","","","","","","","","","","","1056","[""SV_PolicingMSA/GA_1832/IMG_10_1832.jpg"",""SV_PolicingMSA/GA_1832/IMG_9_1832.jpg"",""SV_PolicingMSA/GA_1832/IMG_1_1832.jpg"",""SV_PolicingMSA/GA_1832/IMG_8_1832.jpg"",""SV_PolicingMSA/GA_1832/IMG_11_1832.jpg"",""SV_PolicingMSA/GA_1832/IMG_2_1832.jpg"",""SV_PolicingMSA/GA_1832/IMG_12_1832.jpg"",""SV_PolicingMSA/GA_1832/IMG_7_1832.jpg""]","4","","","","","","2","","4","[""./rc_img/cop_condGroup_11_SafeStreets_autoscaled.png"",""./rc_img/cop_condGroup_11_CommunitySafety_autoscaled.png""]","4","",""
"sliderTrial","html-slider-response","22","399668","0.0-22.0","","656776a7904ae00d6b91d1dd","6568aad618edfbe0d2ef553f","14","","","","","","","","","","","","3084","[""SV_PolicingMSA/GA_1832/IMG_10_1832.jpg"",""SV_PolicingMSA/GA_1832/IMG_9_1832.jpg"",""SV_PolicingMSA/GA_1832/IMG_1_1832.jpg"",""SV_PolicingMSA/GA_1832/IMG_8_1832.jpg"",""SV_PolicingMSA/GA_1832/IMG_11_1832.jpg"",""SV_PolicingMSA/GA_1832/IMG_2_1832.jpg"",""SV_PolicingMSA/GA_1832/IMG_12_1832.jpg"",""SV_PolicingMSA/GA_1832/IMG_7_1832.jpg""]","4","","","","","","2","","4","[""./rc_img/cop_condGroup_15_CommunitySafety_autoscaled.png"",""./rc_img/cop_condGroup_15_SafeStreets_autoscaled.png""]","4","",""
"before_SVSlide_prompt","html-button-response","23","401861","0.0-23.0","","656776a7904ae00d6b91d1dd","6568aad618edfbe0d2ef553f","14","","","","","","","","","","","","2193","Click [Next] to see the next neighborhood!","0","","","","","","","","","","","",""
"street view slide show","image-button-response","24","402867","0.0-24.0","","656776a7904ae00d6b91d1dd","6568aad618edfbe0d2ef553f","14","","","","","","","","","","","","null","stimulus/SV_PolicingMSA/GA_1400/IMG_4_1400.jpg","null","","","","","","3","","","","","",""
"street view slide show","image-button-response","25","403880","0.0-25.0","","656776a7904ae00d6b91d1dd","6568aad618edfbe0d2ef553f","14","","","","","","","","","","","","null","stimulus/SV_PolicingMSA/GA_1400/IMG_2_1400.jpg","null","","","","","","3","","","","","",""
"street view slide show","image-button-response","26","404883","0.0-26.0","","656776a7904ae00d6b91d1dd","6568aad618edfbe0d2ef553f","14","","","","","","","","","","","","null","stimulus/SV_PolicingMSA/GA_1400/IMG_0_1400.jpg","null","","","","","","3","","","","","",""
"street view slide show","image-button-response","27","405888","0.0-27.0","","656776a7904ae00d6b91d1dd","6568aad618edfbe0d2ef553f","14","","","","","","","","","","","","null","stimulus/SV_PolicingMSA/GA_1400/IMG_3_1400.jpg","null","","","","","","3","","","","","",""
"street view slide show","image-button-response","28","406892","0.0-28.0","","656776a7904ae00d6b91d1dd","6568aad618edfbe0d2ef553f","14","","","","","","","","","","","","null","stimulus/SV_PolicingMSA/GA_1400/IMG_9_1400.jpg","null","","","","","","3","","","","","",""
"street view slide show","image-button-response","29","407903","0.0-29.0","","656776a7904ae00d6b91d1dd","6568aad618edfbe0d2ef553f","14","","","","","","","","","","","","null","stimulus/SV_PolicingMSA/GA_1400/IMG_8_1400.jpg","null","","","","","","3","","","","","",""
"street view slide show","image-button-response","30","408905","0.0-30.0","","656776a7904ae00d6b91d1dd","6568aad618edfbe0d2ef553f","14","","","","","","","","","","","","null","stimulus/SV_PolicingMSA/GA_1400/IMG_1_1400.jpg","null","","","","","","3","","","","","",""
"street view slide show","image-button-response","31","409920","0.0-31.0","","656776a7904ae00d6b91d1dd","6568aad618edfbe0d2ef553f","14","","","","","","","","","","","","null","stimulus/SV_PolicingMSA/GA_1400/IMG_12_1400.jpg","null","","","","","","3","","","","","",""
"dot matrix survey1","survey","32","435159","0.0-32.0","","656776a7904ae00d6b91d1dd","6568aad618edfbe0d2ef553f","14","","","","","","","","","","","","25232","","{""P0_Q0"":null,""P0_Q1"":{""wealthy"":1,""safe"":1,""walkable"":2,""traditional"":2,""diverse"":2}}","","","","","","3","[]","","","","",""
"dot matrix survey2","survey","33","449029","0.0-33.0","","656776a7904ae00d6b91d1dd","6568aad618edfbe0d2ef553f","14","","","","","","","","","","","","13862","","{""P0_Q0"":null,""P0_Q1"":{""violence"":3,""crime"":3,""drug"":3,""schools"":1,""opportunities"":1}}","","","","","","3","[]","","","","",""
"dot matrix survey3","survey","34","466702","0.0-34.0","","656776a7904ae00d6b91d1dd","6568aad618edfbe0d2ef553f","14","","","","","","","","","","","","17668","","{""P0_Q0"":null,""P0_Q1"":{""movein"":1,""moveout"":3,""shopping"":1,""walk"":1,""park"":1,""school"":1}}","","","","","","3","[]","","","","",""
"sliderTrial","html-slider-response","35","471170","0.0-35.0","","656776a7904ae00d6b91d1dd","6568aad618edfbe0d2ef553f","14","","","","","","","","","","","","4467","[""SV_PolicingMSA/GA_1400/IMG_4_1400.jpg"",""SV_PolicingMSA/GA_1400/IMG_2_1400.jpg"",""SV_PolicingMSA/GA_1400/IMG_0_1400.jpg"",""SV_PolicingMSA/GA_1400/IMG_3_1400.jpg"",""SV_PolicingMSA/GA_1400/IMG_9_1400.jpg"",""SV_PolicingMSA/GA_1400/IMG_8_1400.jpg"",""SV_PolicingMSA/GA_1400/IMG_1_1400.jpg"",""SV_PolicingMSA/GA_1400/IMG_12_1400.jpg""]","4","","","","","","3","","4","[""./rc_img/cop_condGroup_8_SafeStreets_autoscaled.png"",""./rc_img/cop_condGroup_8_CommunitySafety_autoscaled.png""]","4","",""
"sliderTrial","html-slider-response","36","472185","0.0-36.0","","656776a7904ae00d6b91d1dd","6568aad618edfbe0d2ef553f","14","","","","","","","","","","","","1014","[""SV_PolicingMSA/GA_1400/IMG_4_1400.jpg"",""SV_PolicingMSA/GA_1400/IMG_2_1400.jpg"",""SV_PolicingMSA/GA_1400/IMG_0_1400.jpg"",""SV_PolicingMSA/GA_1400/IMG_3_1400.jpg"",""SV_PolicingMSA/GA_1400/IMG_9_1400.jpg"",""SV_PolicingMSA/GA_1400/IMG_8_1400.jpg"",""SV_PolicingMSA/GA_1400/IMG_1_1400.jpg"",""SV_PolicingMSA/GA_1400/IMG_12_1400.jpg""]","4","","","","","","3","","4","[""./rc_img/cop_condGroup_16_SafeStreets_autoscaled.png"",""./rc_img/cop_condGroup_16_CommunitySafety_autoscaled.png""]","4","",""
"sliderTrial","html-slider-response","37","473142","0.0-37.0","","656776a7904ae00d6b91d1dd","6568aad618edfbe0d2ef553f","14","","","","","","","","","","","","955","[""SV_PolicingMSA/GA_1400/IMG_4_1400.jpg"",""SV_PolicingMSA/GA_1400/IMG_2_1400.jpg"",""SV_PolicingMSA/GA_1400/IMG_0_1400.jpg"",""SV_PolicingMSA/GA_1400/IMG_3_1400.jpg"",""SV_PolicingMSA/GA_1400/IMG_9_1400.jpg"",""SV_PolicingMSA/GA_1400/IMG_8_1400.jpg"",""SV_PolicingMSA/GA_1400/IMG_1_1400.jpg"",""SV_PolicingMSA/GA_1400/IMG_12_1400.jpg""]","4","","","","","","3","","4","[""./rc_img/cop_condGroup_13_SafeStreets_autoscaled.png"",""./rc_img/cop_condGroup_13_CommunitySafety_autoscaled.png""]","4","",""
"sliderTrial","html-slider-response","38","474091","0.0-38.0","","656776a7904ae00d6b91d1dd","6568aad618edfbe0d2ef553f","14","","","","","","","","","","","","947","[""SV_PolicingMSA/GA_1400/IMG_4_1400.jpg"",""SV_PolicingMSA/GA_1400/IMG_2_1400.jpg"",""SV_PolicingMSA/GA_1400/IMG_0_1400.jpg"",""SV_PolicingMSA/GA_1400/IMG_3_1400.jpg"",""SV_PolicingMSA/GA_1400/IMG_9_1400.jpg"",""SV_PolicingMSA/GA_1400/IMG_8_1400.jpg"",""SV_PolicingMSA/GA_1400/IMG_1_1400.jpg"",""SV_PolicingMSA/GA_1400/IMG_12_1400.jpg""]","4","","","","","","3","","4","[""./rc_img/cop_condGroup_20_SafeStreets_autoscaled.png"",""./rc_img/cop_condGroup_20_CommunitySafety_autoscaled.png""]","4","",""
"sliderTrial","html-slider-response","39","475278","0.0-39.0","","656776a7904ae00d6b91d1dd","6568aad618edfbe0d2ef553f","14","","","","","","","","","","","","1186","[""SV_PolicingMSA/GA_1400/IMG_4_1400.jpg"",""SV_PolicingMSA/GA_1400/IMG_2_1400.jpg"",""SV_PolicingMSA/GA_1400/IMG_0_1400.jpg"",""SV_PolicingMSA/GA_1400/IMG_3_1400.jpg"",""SV_PolicingMSA/GA_1400/IMG_9_1400.jpg"",""SV_PolicingMSA/GA_1400/IMG_8_1400.jpg"",""SV_PolicingMSA/GA_1400/IMG_1_1400.jpg"",""SV_PolicingMSA/GA_1400/IMG_12_1400.jpg""]","4","","","","","","3","","4","[""./rc_img/cop_condGroup_14_CommunitySafety_autoscaled.png"",""./rc_img/cop_condGroup_14_SafeStreets_autoscaled.png""]","4","",""
"before_SVSlide_prompt","html-button-response","40","478177","0.0-40.0","","656776a7904ae00d6b91d1dd","6568aad618edfbe0d2ef553f","14","","","","","","","","","","","","2897","Click [Next] to see the next neighborhood!","0","","","","","","","","","","","",""
"street view slide show","image-button-response","41","479181","0.0-41.0","","656776a7904ae00d6b91d1dd","6568aad618edfbe0d2ef553f","14","","","","","","","","","","","","null","stimulus/SV_PolicingMSA/GA_2654/IMG_5_2654.jpg","null","","","","","","3","","","","","",""
"street view slide show","image-button-response","42","480187","0.0-42.0","","656776a7904ae00d6b91d1dd","6568aad618edfbe0d2ef553f","14","","","","","","","","","","","","null","stimulus/SV_PolicingMSA/GA_2654/IMG_8_2654.jpg","null","","","","","","3","","","","","",""
"street view slide show","image-button-response","43","481188","0.0-43.0","","656776a7904ae00d6b91d1dd","6568aad618edfbe0d2ef553f","14","","","","","","","","","","","","null","stimulus/SV_PolicingMSA/GA_2654/IMG_6_2654.jpg","null","","","","","","3","","","","","",""
"street view slide show","image-button-response","44","482199","0.0-44.0","","656776a7904ae00d6b91d1dd","6568aad618edfbe0d2ef553f","14","","","","","","","","","","","","null","stimulus/SV_PolicingMSA/GA_2654/IMG_1_2654.jpg","null","","","","","","3","","","","","",""
"street view slide show","image-button-response","45","483205","0.0-45.0","","656776a7904ae00d6b91d1dd","6568aad618edfbe0d2ef553f","14","","","","","","","","","","","","null","stimulus/SV_PolicingMSA/GA_2654/IMG_0_2654.jpg","null","","","","","","3","","","","","",""
"street view slide show","image-button-response","46","484206","0.0-46.0","","656776a7904ae00d6b91d1dd","6568aad618edfbe0d2ef553f","14","","","","","","","","","","","","null","stimulus/SV_PolicingMSA/GA_2654/IMG_7_2654.jpg","null","","","","","","3","","","","","",""
"street view slide show","image-button-response","47","485209","0.0-47.0","","656776a7904ae00d6b91d1dd","6568aad618edfbe0d2ef553f","14","","","","","","","","","","","","null","stimulus/SV_PolicingMSA/GA_2654/IMG_3_2654.jpg","null","","","","","","3","","","","","",""
"street view slide show","image-button-response","48","486216","0.0-48.0","","656776a7904ae00d6b91d1dd","6568aad618edfbe0d2ef553f","14","","","","","","","","","","","","null","stimulus/SV_PolicingMSA/GA_2654/IMG_12_2654.jpg","null","","","","","","3","","","","","",""
"dot matrix survey1","survey","49","500227","0.0-49.0","","656776a7904ae00d6b91d1dd","6568aad618edfbe0d2ef553f","14","","","","","","","","","","","","14006","","{""P0_Q0"":null,""P0_Q1"":{""wealthy"":1,""safe"":2,""walkable"":0,""traditional"":1,""diverse"":1}}","","","","","","3","[]","","","","",""
"dot matrix survey2","survey","50","529036","0.0-50.0","","656776a7904ae00d6b91d1dd","6568aad618edfbe0d2ef553f","14","","","","","","","","","","","","28804","","{""P0_Q0"":null,""P0_Q1"":{""violence"":1,""crime"":2,""drug"":2,""schools"":2,""opportunities"":3}}","","","","","","3","[]","","","","",""
"dot matrix survey3","survey","51","546363","0.0-51.0","","656776a7904ae00d6b91d1dd","6568aad618edfbe0d2ef553f","14","","","","","","","","","","","","17322","","{""P0_Q0"":null,""P0_Q1"":{""movein"":1,""moveout"":2,""shopping"":2,""walk"":2,""park"":2,""school"":1}}","","","","","","3","[]","","","","",""
"sliderTrial","html-slider-response","52","555108","0.0-52.0","","656776a7904ae00d6b91d1dd","6568aad618edfbe0d2ef553f","14","","","","","","","","","","","","8744","[""SV_PolicingMSA/GA_2654/IMG_5_2654.jpg"",""SV_PolicingMSA/GA_2654/IMG_8_2654.jpg"",""SV_PolicingMSA/GA_2654/IMG_6_2654.jpg"",""SV_PolicingMSA/GA_2654/IMG_1_2654.jpg"",""SV_PolicingMSA/GA_2654/IMG_0_2654.jpg"",""SV_PolicingMSA/GA_2654/IMG_7_2654.jpg"",""SV_PolicingMSA/GA_2654/IMG_3_2654.jpg"",""SV_PolicingMSA/GA_2654/IMG_12_2654.jpg""]","4","","","","","","3","","4","[""./rc_img/cop_condGroup_2_CommunitySafety_autoscaled.png"",""./rc_img/cop_condGroup_2_SafeStreets_autoscaled.png""]","4","",""
"sliderTrial","html-slider-response","53","556683","0.0-53.0","","656776a7904ae00d6b91d1dd","6568aad618edfbe0d2ef553f","14","","","","","","","","","","","","1573","[""SV_PolicingMSA/GA_2654/IMG_5_2654.jpg"",""SV_PolicingMSA/GA_2654/IMG_8_2654.jpg"",""SV_PolicingMSA/GA_2654/IMG_6_2654.jpg"",""SV_PolicingMSA/GA_2654/IMG_1_2654.jpg"",""SV_PolicingMSA/GA_2654/IMG_0_2654.jpg"",""SV_PolicingMSA/GA_2654/IMG_7_2654.jpg"",""SV_PolicingMSA/GA_2654/IMG_3_2654.jpg"",""SV_PolicingMSA/GA_2654/IMG_12_2654.jpg""]","4","","","","","","3","","4","[""./rc_img/cop_condGroup_10_CommunitySafety_autoscaled.png"",""./rc_img/cop_condGroup_10_SafeStreets_autoscaled.png""]","4","",""
"sliderTrial","html-slider-response","54","557884","0.0-54.0","","656776a7904ae00d6b91d1dd","6568aad618edfbe0d2ef553f","14","","","","","","","","","","","","1198","[""SV_PolicingMSA/GA_2654/IMG_5_2654.jpg"",""SV_PolicingMSA/GA_2654/IMG_8_2654.jpg"",""SV_PolicingMSA/GA_2654/IMG_6_2654.jpg"",""SV_PolicingMSA/GA_2654/IMG_1_2654.jpg"",""SV_PolicingMSA/GA_2654/IMG_0_2654.jpg"",""SV_PolicingMSA/GA_2654/IMG_7_2654.jpg"",""SV_PolicingMSA/GA_2654/IMG_3_2654.jpg"",""SV_PolicingMSA/GA_2654/IMG_12_2654.jpg""]","4","","","","","","3","","4","[""./rc_img/cop_condGroup_3_SafeStreets_autoscaled.png"",""./rc_img/cop_condGroup_3_CommunitySafety_autoscaled.png""]","4","",""
"sliderTrial","html-slider-response","55","559336","0.0-55.0","","656776a7904ae00d6b91d1dd","6568aad618edfbe0d2ef553f","14","","","","","","","","","","","","1450","[""SV_PolicingMSA/GA_2654/IMG_5_2654.jpg"",""SV_PolicingMSA/GA_2654/IMG_8_2654.jpg"",""SV_PolicingMSA/GA_2654/IMG_6_2654.jpg"",""SV_PolicingMSA/GA_2654/IMG_1_2654.jpg"",""SV_PolicingMSA/GA_2654/IMG_0_2654.jpg"",""SV_PolicingMSA/GA_2654/IMG_7_2654.jpg"",""SV_PolicingMSA/GA_2654/IMG_3_2654.jpg"",""SV_PolicingMSA/GA_2654/IMG_12_2654.jpg""]","4","","","","","","3","","4","[""./rc_img/cop_condGroup_6_SafeStreets_autoscaled.png"",""./rc_img/cop_condGroup_6_CommunitySafety_autoscaled.png""]","4","",""
"sliderTrial","html-slider-response","56","560860","0.0-56.0","","656776a7904ae00d6b91d1dd","6568aad618edfbe0d2ef553f","14","","","","","","","","","","","","1523","[""SV_PolicingMSA/GA_2654/IMG_5_2654.jpg"",""SV_PolicingMSA/GA_2654/IMG_8_2654.jpg"",""SV_PolicingMSA/GA_2654/IMG_6_2654.jpg"",""SV_PolicingMSA/GA_2654/IMG_1_2654.jpg"",""SV_PolicingMSA/GA_2654/IMG_0_2654.jpg"",""SV_PolicingMSA/GA_2654/IMG_7_2654.jpg"",""SV_PolicingMSA/GA_2654/IMG_3_2654.jpg"",""SV_PolicingMSA/GA_2654/IMG_12_2654.jpg""]","4","","","","","","3","","4","[""./rc_img/cop_condGroup_19_SafeStreets_autoscaled.png"",""./rc_img/cop_condGroup_19_CommunitySafety_autoscaled.png""]","4","",""
"before_SVSlide_prompt","html-button-response","57","563153","0.0-57.0","","656776a7904ae00d6b91d1dd","6568aad618edfbe0d2ef553f","14","","","","","","","","","","","","2292","Click [Next] to see the next neighborhood!","0","","","","","","","","","","","",""
"street view slide show","image-button-response","58","564156","0.0-58.0","","656776a7904ae00d6b91d1dd","6568aad618edfbe0d2ef553f","14","","","","","","","","","","","","null","stimulus/SV_PolicingMSA/GA_1789/IMG_3_1789.jpg","null","","","","","","1","","","","","",""
"street view slide show","image-button-response","59","565168","0.0-59.0","","656776a7904ae00d6b91d1dd","6568aad618edfbe0d2ef553f","14","","","","","","","","","","","","null","stimulus/SV_PolicingMSA/GA_1789/IMG_8_1789.jpg","null","","","","","","1","","","","","",""
"street view slide show","image-button-response","60","566177","0.0-60.0","","656776a7904ae00d6b91d1dd","6568aad618edfbe0d2ef553f","14","","","","","","","","","","","","null","stimulus/SV_PolicingMSA/GA_1789/IMG_14_1789.jpg","null","","","","","","1","","","","","",""
"street view slide show","image-button-response","61","567179","0.0-61.0","","656776a7904ae00d6b91d1dd","6568aad618edfbe0d2ef553f","14","","","","","","","","","","","","null","stimulus/SV_PolicingMSA/GA_1789/IMG_13_1789.jpg","null","","","","","","1","","","","","",""
"street view slide show","image-button-response","62","568194","0.0-62.0","","656776a7904ae00d6b91d1dd","6568aad618edfbe0d2ef553f","14","","","","","","","","","","","","null","stimulus/SV_PolicingMSA/GA_1789/IMG_11_1789.jpg","null","","","","","","1","","","","","",""
"street view slide show","image-button-response","63","569212","0.0-63.0","","656776a7904ae00d6b91d1dd","6568aad618edfbe0d2ef553f","14","","","","","","","","","","","","null","stimulus/SV_PolicingMSA/GA_1789/IMG_7_1789.jpg","null","","","","","","1","","","","","",""
"street view slide show","image-button-response","64","570217","0.0-64.0","","656776a7904ae00d6b91d1dd","6568aad618edfbe0d2ef553f","14","","","","","","","","","","","","null","stimulus/SV_PolicingMSA/GA_1789/IMG_9_1789.jpg","null","","","","","","1","","","","","",""
"street view slide show","image-button-response","65","571223","0.0-65.0","","656776a7904ae00d6b91d1dd","6568aad618edfbe0d2ef553f","14","","","","","","","","","","","","null","stimulus/SV_PolicingMSA/GA_1789/IMG_2_1789.jpg","null","","","","","","1","","","","","",""
"dot matrix survey1","survey","66","586454","0.0-66.0","","656776a7904ae00d6b91d1dd","6568aad618edfbe0d2ef553f","14","","","","","","","","","","","","15222","","{""P0_Q0"":null,""P0_Q1"":{""wealthy"":1,""safe"":2,""walkable"":2,""traditional"":2,""diverse"":2}}","","","","","","1","[]","","","","",""
"dot matrix survey2","survey","67","599394","0.0-67.0","","656776a7904ae00d6b91d1dd","6568aad618edfbe0d2ef553f","14","","","","","","","","","","","","12936","","{""P0_Q0"":null,""P0_Q1"":{""violence"":2,""crime"":2,""drug"":2,""schools"":2,""opportunities"":1}}","","","","","","1","[]","","","","",""
"dot matrix survey3","survey","68","629247","0.0-68.0","","656776a7904ae00d6b91d1dd","6568aad618edfbe0d2ef553f","14","","","","","","","","","","","","29849","","{""P0_Q0"":null,""P0_Q1"":{""movein"":2,""moveout"":1,""shopping"":2,""walk"":2,""park"":2,""school"":1}}","","","","","","1","[]","","","","",""
"sliderTrial","html-slider-response","69","631807","0.0-69.0","","656776a7904ae00d6b91d1dd","6568aad618edfbe0d2ef553f","14","","","","","","","","","","","","2558","[""SV_PolicingMSA/GA_1789/IMG_3_1789.jpg"",""SV_PolicingMSA/GA_1789/IMG_8_1789.jpg"",""SV_PolicingMSA/GA_1789/IMG_14_1789.jpg"",""SV_PolicingMSA/GA_1789/IMG_13_1789.jpg"",""SV_PolicingMSA/GA_1789/IMG_11_1789.jpg"",""SV_PolicingMSA/GA_1789/IMG_7_1789.jpg"",""SV_PolicingMSA/GA_1789/IMG_9_1789.jpg"",""SV_PolicingMSA/GA_1789/IMG_2_1789.jpg""]","4","","","","","","1","","4","[""./rc_img/cop_condGroup_2_CommunitySafety_autoscaled.png"",""./rc_img/cop_condGroup_2_SafeStreets_autoscaled.png""]","4","",""
"sliderTrial_attention","html-slider-response","70","632365","0.0-70.0","","656776a7904ae00d6b91d1dd","6568aad618edfbe0d2ef553f","14","","","","","","","","","","","","556","[""SV_PolicingMSA/GA_1789/IMG_3_1789.jpg"",""SV_PolicingMSA/GA_1789/IMG_8_1789.jpg"",""SV_PolicingMSA/GA_1789/IMG_14_1789.jpg"",""SV_PolicingMSA/GA_1789/IMG_13_1789.jpg"",""SV_PolicingMSA/GA_1789/IMG_11_1789.jpg"",""SV_PolicingMSA/GA_1789/IMG_7_1789.jpg"",""SV_PolicingMSA/GA_1789/IMG_9_1789.jpg"",""SV_PolicingMSA/GA_1789/IMG_2_1789.jpg""]","4","","","","","","1","","4","[""./assets/img/attnchk.png"",""./assets/img/attnchk.png""]","","",""
"sliderTrial","html-slider-response","71","633923","0.0-71.0","","656776a7904ae00d6b91d1dd","6568aad618edfbe0d2ef553f","14","","","","","","","","","","","","1555","[""SV_PolicingMSA/GA_1789/IMG_3_1789.jpg"",""SV_PolicingMSA/GA_1789/IMG_8_1789.jpg"",""SV_PolicingMSA/GA_1789/IMG_14_1789.jpg"",""SV_PolicingMSA/GA_1789/IMG_13_1789.jpg"",""SV_PolicingMSA/GA_1789/IMG_11_1789.jpg"",""SV_PolicingMSA/GA_1789/IMG_7_1789.jpg"",""SV_PolicingMSA/GA_1789/IMG_9_1789.jpg"",""SV_PolicingMSA/GA_1789/IMG_2_1789.jpg""]","4","","","","","","1","","4","[""./rc_img/cop_condGroup_10_CommunitySafety_autoscaled.png"",""./rc_img/cop_condGroup_10_SafeStreets_autoscaled.png""]","4","",""
"sliderTrial","html-slider-response","72","635138","0.0-72.0","","656776a7904ae00d6b91d1dd","6568aad618edfbe0d2ef553f","14","","","","","","","","","","","","1213","[""SV_PolicingMSA/GA_1789/IMG_3_1789.jpg"",""SV_PolicingMSA/GA_1789/IMG_8_1789.jpg"",""SV_PolicingMSA/GA_1789/IMG_14_1789.jpg"",""SV_PolicingMSA/GA_1789/IMG_13_1789.jpg"",""SV_PolicingMSA/GA_1789/IMG_11_1789.jpg"",""SV_PolicingMSA/GA_1789/IMG_7_1789.jpg"",""SV_PolicingMSA/GA_1789/IMG_9_1789.jpg"",""SV_PolicingMSA/GA_1789/IMG_2_1789.jpg""]","4","","","","","","1","","4","[""./rc_img/cop_condGroup_3_SafeStreets_autoscaled.png"",""./rc_img/cop_condGroup_3_CommunitySafety_autoscaled.png""]","4","",""
"sliderTrial","html-slider-response","73","636139","0.0-73.0","","656776a7904ae00d6b91d1dd","6568aad618edfbe0d2ef553f","14","","","","","","","","","","","","1000","[""SV_PolicingMSA/GA_1789/IMG_3_1789.jpg"",""SV_PolicingMSA/GA_1789/IMG_8_1789.jpg"",""SV_PolicingMSA/GA_1789/IMG_14_1789.jpg"",""SV_PolicingMSA/GA_1789/IMG_13_1789.jpg"",""SV_PolicingMSA/GA_1789/IMG_11_1789.jpg"",""SV_PolicingMSA/GA_1789/IMG_7_1789.jpg"",""SV_PolicingMSA/GA_1789/IMG_9_1789.jpg"",""SV_PolicingMSA/GA_1789/IMG_2_1789.jpg""]","4","","","","","","1","","4","[""./rc_img/cop_condGroup_6_SafeStreets_autoscaled.png"",""./rc_img/cop_condGroup_6_CommunitySafety_autoscaled.png""]","4","",""
"sliderTrial","html-slider-response","74","637306","0.0-74.0","","656776a7904ae00d6b91d1dd","6568aad618edfbe0d2ef553f","14","","","","","","","","","","","","1165","[""SV_PolicingMSA/GA_1789/IMG_3_1789.jpg"",""SV_PolicingMSA/GA_1789/IMG_8_1789.jpg"",""SV_PolicingMSA/GA_1789/IMG_14_1789.jpg"",""SV_PolicingMSA/GA_1789/IMG_13_1789.jpg"",""SV_PolicingMSA/GA_1789/IMG_11_1789.jpg"",""SV_PolicingMSA/GA_1789/IMG_7_1789.jpg"",""SV_PolicingMSA/GA_1789/IMG_9_1789.jpg"",""SV_PolicingMSA/GA_1789/IMG_2_1789.jpg""]","4","","","","","","1","","4","[""./rc_img/cop_condGroup_19_SafeStreets_autoscaled.png"",""./rc_img/cop_condGroup_19_CommunitySafety_autoscaled.png""]","4","",""
"half-way","html-button-response","75","653058","0.0-75.0","","656776a7904ae00d6b91d1dd","6568aad618edfbe0d2ef553f","14","","","","","","","","","","","","null","
    <h3>You are now half way through the study.</h3>
    <p>Please take a quick, 15-second break before you continue.</p>
    <img src='assets/img/countdown-15.gif'>
    <p>The study will automatically advance forward after the countdown is complete. <br> However, you may click ""Next"" to advance forward now if you wish.</p>
    ","null","","","","","","","","","","","",""
"before_SVSlide_prompt","html-button-response","76","691429","0.0-76.0","","656776a7904ae00d6b91d1dd","6568aad618edfbe0d2ef553f","14","","","","","","","","","","","","38371","Click [Next] to see the next neighborhood!","0","","","","","","","","","","","",""
"street view slide show","image-button-response","77","692442","0.0-77.0","","656776a7904ae00d6b91d1dd","6568aad618edfbe0d2ef553f","14","","","","","","","","","","","","null","stimulus/SV_PolicingMSA/GA_2658/IMG_13_2658.jpg","null","","","","","","4","","","","","",""
"street view slide show","image-button-response","78","693465","0.0-78.0","","656776a7904ae00d6b91d1dd","6568aad618edfbe0d2ef553f","14","","","","","","","","","","","","null","stimulus/SV_PolicingMSA/GA_2658/IMG_1_2658.jpg","null","","","","","","4","","","","","",""
"street view slide show","image-button-response","79","694482","0.0-79.0","","656776a7904ae00d6b91d1dd","6568aad618edfbe0d2ef553f","14","","","","","","","","","","","","null","stimulus/SV_PolicingMSA/GA_2658/IMG_12_2658.jpg","null","","","","","","4","","","","","",""
"street view slide show","image-button-response","80","695488","0.0-80.0","","656776a7904ae00d6b91d1dd","6568aad618edfbe0d2ef553f","14","","","","","","","","","","","","null","stimulus/SV_PolicingMSA/GA_2658/IMG_5_2658.jpg","null","","","","","","4","","","","","",""
"street view slide show","image-button-response","81","696496","0.0-81.0","","656776a7904ae00d6b91d1dd","6568aad618edfbe0d2ef553f","14","","","","","","","","","","","","null","stimulus/SV_PolicingMSA/GA_2658/IMG_7_2658.jpg","null","","","","","","4","","","","","",""
"street view slide show","image-button-response","82","697511","0.0-82.0","","656776a7904ae00d6b91d1dd","6568aad618edfbe0d2ef553f","14","","","","","","","","","","","","null","stimulus/SV_PolicingMSA/GA_2658/IMG_0_2658.jpg","null","","","","","","4","","","","","",""
"street view slide show","image-button-response","83","698519","0.0-83.0","","656776a7904ae00d6b91d1dd","6568aad618edfbe0d2ef553f","14","","","","","","","","","","","","null","stimulus/SV_PolicingMSA/GA_2658/IMG_14_2658.jpg","null","","","","","","4","","","","","",""
"street view slide show","image-button-response","84","699523","0.0-84.0","","656776a7904ae00d6b91d1dd","6568aad618edfbe0d2ef553f","14","","","","","","","","","","","","null","stimulus/SV_PolicingMSA/GA_2658/IMG_3_2658.jpg","null","","","","","","4","","","","","",""
"dot matrix survey1","survey","85","711564","0.0-85.0","","656776a7904ae00d6b91d1dd","6568aad618edfbe0d2ef553f","14","","","","","","","","","","","","12036","","{""P0_Q0"":null,""P0_Q1"":{""wealthy"":2,""safe"":2,""walkable"":1,""traditional"":2,""diverse"":1}}","","","","","","4","[]","","","","",""
"dot matrix survey2","survey","86","723597","0.0-86.0","","656776a7904ae00d6b91d1dd","6568aad618edfbe0d2ef553f","14","","","","","","","","","","","","12027","","{""P0_Q0"":null,""P0_Q1"":{""violence"":2,""crime"":2,""drug"":3,""schools"":3,""opportunities"":3}}","","","","","","4","[]","","","","",""
"dot matrix survey3","survey","87","742012","0.0-87.0","","656776a7904ae00d6b91d1dd","6568aad618edfbe0d2ef553f","14","","","","","","","","","","","","18411","","{""P0_Q0"":null,""P0_Q1"":{""movein"":2,""moveout"":1,""shopping"":2,""walk"":2,""park"":2,""school"":2}}","","","","","","4","[]","","","","",""
"sliderTrial","html-slider-response","88","745274","0.0-88.0","","656776a7904ae00d6b91d1dd","6568aad618edfbe0d2ef553f","14","","","","","","","","","","","","3261","[""SV_PolicingMSA/GA_2658/IMG_13_2658.jpg"",""SV_PolicingMSA/GA_2658/IMG_1_2658.jpg"",""SV_PolicingMSA/GA_2658/IMG_12_2658.jpg"",""SV_PolicingMSA/GA_2658/IMG_5_2658.jpg"",""SV_PolicingMSA/GA_2658/IMG_7_2658.jpg"",""SV_PolicingMSA/GA_2658/IMG_0_2658.jpg"",""SV_PolicingMSA/GA_2658/IMG_14_2658.jpg"",""SV_PolicingMSA/GA_2658/IMG_3_2658.jpg""]","4","","","","","","4","","4","[""./rc_img/cop_condGroup_18_CommunitySafety_autoscaled.png"",""./rc_img/cop_condGroup_18_SafeStreets_autoscaled.png""]","4","",""
"sliderTrial","html-slider-response","89","746374","0.0-89.0","","656776a7904ae00d6b91d1dd","6568aad618edfbe0d2ef553f","14","","","","","","","","","","","","1098","[""SV_PolicingMSA/GA_2658/IMG_13_2658.jpg"",""SV_PolicingMSA/GA_2658/IMG_1_2658.jpg"",""SV_PolicingMSA/GA_2658/IMG_12_2658.jpg"",""SV_PolicingMSA/GA_2658/IMG_5_2658.jpg"",""SV_PolicingMSA/GA_2658/IMG_7_2658.jpg"",""SV_PolicingMSA/GA_2658/IMG_0_2658.jpg"",""SV_PolicingMSA/GA_2658/IMG_14_2658.jpg"",""SV_PolicingMSA/GA_2658/IMG_3_2658.jpg""]","4","","","","","","4","","4","[""./rc_img/cop_condGroup_1_SafeStreets_autoscaled.png"",""./rc_img/cop_condGroup_1_CommunitySafety_autoscaled.png""]","4","",""
"sliderTrial","html-slider-response","90","747525","0.0-90.0","","656776a7904ae00d6b91d1dd","6568aad618edfbe0d2ef553f","14","","","","","","","","","","","","1150","[""SV_PolicingMSA/GA_2658/IMG_13_2658.jpg"",""SV_PolicingMSA/GA_2658/IMG_1_2658.jpg"",""SV_PolicingMSA/GA_2658/IMG_12_2658.jpg"",""SV_PolicingMSA/GA_2658/IMG_5_2658.jpg"",""SV_PolicingMSA/GA_2658/IMG_7_2658.jpg"",""SV_PolicingMSA/GA_2658/IMG_0_2658.jpg"",""SV_PolicingMSA/GA_2658/IMG_14_2658.jpg"",""SV_PolicingMSA/GA_2658/IMG_3_2658.jpg""]","4","","","","","","4","","4","[""./rc_img/cop_condGroup_7_SafeStreets_autoscaled.png"",""./rc_img/cop_condGroup_7_CommunitySafety_autoscaled.png""]","4","",""
"sliderTrial","html-slider-response","91","748692","0.0-91.0","","656776a7904ae00d6b91d1dd","6568aad618edfbe0d2ef553f","14","","","","","","","","","","","","1165","[""SV_PolicingMSA/GA_2658/IMG_13_2658.jpg"",""SV_PolicingMSA/GA_2658/IMG_1_2658.jpg"",""SV_PolicingMSA/GA_2658/IMG_12_2658.jpg"",""SV_PolicingMSA/GA_2658/IMG_5_2658.jpg"",""SV_PolicingMSA/GA_2658/IMG_7_2658.jpg"",""SV_PolicingMSA/GA_2658/IMG_0_2658.jpg"",""SV_PolicingMSA/GA_2658/IMG_14_2658.jpg"",""SV_PolicingMSA/GA_2658/IMG_3_2658.jpg""]","4","","","","","","4","","4","[""./rc_img/cop_condGroup_11_SafeStreets_autoscaled.png"",""./rc_img/cop_condGroup_11_CommunitySafety_autoscaled.png""]","4","",""
"sliderTrial","html-slider-response","92","749885","0.0-92.0","","656776a7904ae00d6b91d1dd","6568aad618edfbe0d2ef553f","14","","","","","","","","","","","","1191","[""SV_PolicingMSA/GA_2658/IMG_13_2658.jpg"",""SV_PolicingMSA/GA_2658/IMG_1_2658.jpg"",""SV_PolicingMSA/GA_2658/IMG_12_2658.jpg"",""SV_PolicingMSA/GA_2658/IMG_5_2658.jpg"",""SV_PolicingMSA/GA_2658/IMG_7_2658.jpg"",""SV_PolicingMSA/GA_2658/IMG_0_2658.jpg"",""SV_PolicingMSA/GA_2658/IMG_14_2658.jpg"",""SV_PolicingMSA/GA_2658/IMG_3_2658.jpg""]","4","","","","","","4","","4","[""./rc_img/cop_condGroup_15_CommunitySafety_autoscaled.png"",""./rc_img/cop_condGroup_15_SafeStreets_autoscaled.png""]","4","",""
"before_SVSlide_prompt","html-button-response","93","752209","0.0-93.0","","656776a7904ae00d6b91d1dd","6568aad618edfbe0d2ef553f","14","","","","","","","","","","","","2323","Click [Next] to see the next neighborhood!","0","","","","","","","","","","","",""
"street view slide show","image-button-response","94","753210","0.0-94.0","","656776a7904ae00d6b91d1dd","6568aad618edfbe0d2ef553f","14","","","","","","","","","","","","null","stimulus/SV_PolicingMSA/GA_1756/IMG_10_1756.jpg","null","","","","","","0","","","","","",""
"street view slide show","image-button-response","95","754218","0.0-95.0","","656776a7904ae00d6b91d1dd","6568aad618edfbe0d2ef553f","14","","","","","","","","","","","","null","stimulus/SV_PolicingMSA/GA_1756/IMG_13_1756.jpg","null","","","","","","0","","","","","",""
"street view slide show","image-button-response","96","755219","0.0-96.0","","656776a7904ae00d6b91d1dd","6568aad618edfbe0d2ef553f","14","","","","","","","","","","","","null","stimulus/SV_PolicingMSA/GA_1756/IMG_3_1756.jpg","null","","","","","","0","","","","","",""
"street view slide show","image-button-response","97","756232","0.0-97.0","","656776a7904ae00d6b91d1dd","6568aad618edfbe0d2ef553f","14","","","","","","","","","","","","null","stimulus/SV_PolicingMSA/GA_1756/IMG_2_1756.jpg","null","","","","","","0","","","","","",""
"street view slide show","image-button-response","98","757245","0.0-98.0","","656776a7904ae00d6b91d1dd","6568aad618edfbe0d2ef553f","14","","","","","","","","","","","","null","stimulus/SV_PolicingMSA/GA_1756/IMG_14_1756.jpg","null","","","","","","0","","","","","",""
"street view slide show","image-button-response","99","758266","0.0-99.0","","656776a7904ae00d6b91d1dd","6568aad618edfbe0d2ef553f","14","","","","","","","","","","","","null","stimulus/SV_PolicingMSA/GA_1756/IMG_7_1756.jpg","null","","","","","","0","","","","","",""
"street view slide show","image-button-response","100","759282","0.0-100.0","","656776a7904ae00d6b91d1dd","6568aad618edfbe0d2ef553f","14","","","","","","","","","","","","null","stimulus/SV_PolicingMSA/GA_1756/IMG_1_1756.jpg","null","","","","","","0","","","","","",""
"street view slide show","image-button-response","101","760297","0.0-101.0","","656776a7904ae00d6b91d1dd","6568aad618edfbe0d2ef553f","14","","","","","","","","","","","","null","stimulus/SV_PolicingMSA/GA_1756/IMG_4_1756.jpg","null","","","","","","0","","","","","",""
"dot matrix survey1","survey","102","775402","0.0-102.0","","656776a7904ae00d6b91d1dd","6568aad618edfbe0d2ef553f","14","","","","","","","","","","","","15098","","{""P0_Q0"":null,""P0_Q1"":{""wealthy"":1,""safe"":1,""walkable"":2,""traditional"":2,""diverse"":2}}","","","","","","0","[]","","","","",""
"dot matrix survey2","survey","103","786619","0.0-103.0","","656776a7904ae00d6b91d1dd","6568aad618edfbe0d2ef553f","14","","","","","","","","","","","","11213","","{""P0_Q0"":null,""P0_Q1"":{""violence"":2,""crime"":2,""drug"":1,""schools"":1,""opportunities"":1}}","","","","","","0","[]","","","","",""
"dot matrix survey3","survey","104","803974","0.0-104.0","","656776a7904ae00d6b91d1dd","6568aad618edfbe0d2ef553f","14","","","","","","","","","","","","17352","","{""P0_Q0"":null,""P0_Q1"":{""movein"":1,""moveout"":3,""shopping"":1,""walk"":1,""park"":1,""school"":1}}","","","","","","0","[]","","","","",""
"sliderTrial","html-slider-response","105","807883","0.0-105.0","","656776a7904ae00d6b91d1dd","6568aad618edfbe0d2ef553f","14","","","","","","","","","","","","3907","[""SV_PolicingMSA/GA_1756/IMG_10_1756.jpg"",""SV_PolicingMSA/GA_1756/IMG_13_1756.jpg"",""SV_PolicingMSA/GA_1756/IMG_3_1756.jpg"",""SV_PolicingMSA/GA_1756/IMG_2_1756.jpg"",""SV_PolicingMSA/GA_1756/IMG_14_1756.jpg"",""SV_PolicingMSA/GA_1756/IMG_7_1756.jpg"",""SV_PolicingMSA/GA_1756/IMG_1_1756.jpg"",""SV_PolicingMSA/GA_1756/IMG_4_1756.jpg""]","4","","","","","","0","","4","[""./rc_img/cop_condGroup_17_CommunitySafety_autoscaled.png"",""./rc_img/cop_condGroup_17_SafeStreets_autoscaled.png""]","4","",""
"sliderTrial_attention","html-slider-response","106","817895","0.0-106.0","","656776a7904ae00d6b91d1dd","6568aad618edfbe0d2ef553f","14","","","","","","","","","","","","null","[""SV_PolicingMSA/GA_1756/IMG_10_1756.jpg"",""SV_PolicingMSA/GA_1756/IMG_13_1756.jpg"",""SV_PolicingMSA/GA_1756/IMG_3_1756.jpg"",""SV_PolicingMSA/GA_1756/IMG_2_1756.jpg"",""SV_PolicingMSA/GA_1756/IMG_14_1756.jpg"",""SV_PolicingMSA/GA_1756/IMG_7_1756.jpg"",""SV_PolicingMSA/GA_1756/IMG_1_1756.jpg"",""SV_PolicingMSA/GA_1756/IMG_4_1756.jpg""]","null","","","","","","0","","4","[""./assets/img/attnchk.png"",""./assets/img/attnchk.png""]","","true",""
"sliderTrial","html-slider-response","107","821370","0.0-107.0","","656776a7904ae00d6b91d1dd","6568aad618edfbe0d2ef553f","14","","","","","","","","","","","","3473","[""SV_PolicingMSA/GA_1756/IMG_10_1756.jpg"",""SV_PolicingMSA/GA_1756/IMG_13_1756.jpg"",""SV_PolicingMSA/GA_1756/IMG_3_1756.jpg"",""SV_PolicingMSA/GA_1756/IMG_2_1756.jpg"",""SV_PolicingMSA/GA_1756/IMG_14_1756.jpg"",""SV_PolicingMSA/GA_1756/IMG_7_1756.jpg"",""SV_PolicingMSA/GA_1756/IMG_1_1756.jpg"",""SV_PolicingMSA/GA_1756/IMG_4_1756.jpg""]","4","","","","","","0","","4","[""./rc_img/cop_condGroup_12_SafeStreets_autoscaled.png"",""./rc_img/cop_condGroup_12_CommunitySafety_autoscaled.png""]","4","",""
"sliderTrial","html-slider-response","108","824417","0.0-108.0","","656776a7904ae00d6b91d1dd","6568aad618edfbe0d2ef553f","14","","","","","","","","","","","","3046","[""SV_PolicingMSA/GA_1756/IMG_10_1756.jpg"",""SV_PolicingMSA/GA_1756/IMG_13_1756.jpg"",""SV_PolicingMSA/GA_1756/IMG_3_1756.jpg"",""SV_PolicingMSA/GA_1756/IMG_2_1756.jpg"",""SV_PolicingMSA/GA_1756/IMG_14_1756.jpg"",""SV_PolicingMSA/GA_1756/IMG_7_1756.jpg"",""SV_PolicingMSA/GA_1756/IMG_1_1756.jpg"",""SV_PolicingMSA/GA_1756/IMG_4_1756.jpg""]","4","","","","","","0","","4","[""./rc_img/cop_condGroup_9_SafeStreets_autoscaled.png"",""./rc_img/cop_condGroup_9_CommunitySafety_autoscaled.png""]","4","",""
"sliderTrial","html-slider-response","109","825790","0.0-109.0","","656776a7904ae00d6b91d1dd","6568aad618edfbe0d2ef553f","14","","","","","","","","","","","","1371","[""SV_PolicingMSA/GA_1756/IMG_10_1756.jpg"",""SV_PolicingMSA/GA_1756/IMG_13_1756.jpg"",""SV_PolicingMSA/GA_1756/IMG_3_1756.jpg"",""SV_PolicingMSA/GA_1756/IMG_2_1756.jpg"",""SV_PolicingMSA/GA_1756/IMG_14_1756.jpg"",""SV_PolicingMSA/GA_1756/IMG_7_1756.jpg"",""SV_PolicingMSA/GA_1756/IMG_1_1756.jpg"",""SV_PolicingMSA/GA_1756/IMG_4_1756.jpg""]","4","","","","","","0","","4","[""./rc_img/cop_condGroup_4_SafeStreets_autoscaled.png"",""./rc_img/cop_condGroup_4_CommunitySafety_autoscaled.png""]","4","",""
"sliderTrial","html-slider-response","110","826856","0.0-110.0","","656776a7904ae00d6b91d1dd","6568aad618edfbe0d2ef553f","14","","","","","","","","","","","","1063","[""SV_PolicingMSA/GA_1756/IMG_10_1756.jpg"",""SV_PolicingMSA/GA_1756/IMG_13_1756.jpg"",""SV_PolicingMSA/GA_1756/IMG_3_1756.jpg"",""SV_PolicingMSA/GA_1756/IMG_2_1756.jpg"",""SV_PolicingMSA/GA_1756/IMG_14_1756.jpg"",""SV_PolicingMSA/GA_1756/IMG_7_1756.jpg"",""SV_PolicingMSA/GA_1756/IMG_1_1756.jpg"",""SV_PolicingMSA/GA_1756/IMG_4_1756.jpg""]","4","","","","","","0","","4","[""./rc_img/cop_condGroup_5_SafeStreets_autoscaled.png"",""./rc_img/cop_condGroup_5_CommunitySafety_autoscaled.png""]","4","",""
"before_SVSlide_prompt","html-button-response","111","830366","0.0-111.0","","656776a7904ae00d6b91d1dd","6568aad618edfbe0d2ef553f","14","","","","","","","","","","","","3509","Click [Next] to see the next neighborhood!","0","","","","","","","","","","","",""
"street view slide show","image-button-response","112","831368","0.0-112.0","","656776a7904ae00d6b91d1dd","6568aad618edfbe0d2ef553f","14","","","","","","","","","","","","null","stimulus/SV_PolicingMSA/GA_1094/IMG_3_1094.jpg","null","","","","","","2","","","","","",""
"street view slide show","image-button-response","113","832391","0.0-113.0","","656776a7904ae00d6b91d1dd","6568aad618edfbe0d2ef553f","14","","","","","","","","","","","","null","stimulus/SV_PolicingMSA/GA_1094/IMG_11_1094.jpg","null","","","","","","2","","","","","",""
"street view slide show","image-button-response","114","833395","0.0-114.0","","656776a7904ae00d6b91d1dd","6568aad618edfbe0d2ef553f","14","","","","","","","","","","","","null","stimulus/SV_PolicingMSA/GA_1094/IMG_4_1094.jpg","null","","","","","","2","","","","","",""
"street view slide show","image-button-response","115","834406","0.0-115.0","","656776a7904ae00d6b91d1dd","6568aad618edfbe0d2ef553f","14","","","","","","","","","","","","null","stimulus/SV_PolicingMSA/GA_1094/IMG_9_1094.jpg","null","","","","","","2","","","","","",""
"street view slide show","image-button-response","116","835423","0.0-116.0","","656776a7904ae00d6b91d1dd","6568aad618edfbe0d2ef553f","14","","","","","","","","","","","","null","stimulus/SV_PolicingMSA/GA_1094/IMG_12_1094.jpg","null","","","","","","2","","","","","",""
"street view slide show","image-button-response","117","836426","0.0-117.0","","656776a7904ae00d6b91d1dd","6568aad618edfbe0d2ef553f","14","","","","","","","","","","","","null","stimulus/SV_PolicingMSA/GA_1094/IMG_8_1094.jpg","null","","","","","","2","","","","","",""
"street view slide show","image-button-response","118","837439","0.0-118.0","","656776a7904ae00d6b91d1dd","6568aad618edfbe0d2ef553f","14","","","","","","","","","","","","null","stimulus/SV_PolicingMSA/GA_1094/IMG_13_1094.jpg","null","","","","","","2","","","","","",""
"street view slide show","image-button-response","119","838452","0.0-119.0","","656776a7904ae00d6b91d1dd","6568aad618edfbe0d2ef553f","14","","","","","","","","","","","","null","stimulus/SV_PolicingMSA/GA_1094/IMG_7_1094.jpg","null","","","","","","2","","","","","",""
"dot matrix survey1","survey","120","865562","0.0-120.0","","656776a7904ae00d6b91d1dd","6568aad618edfbe0d2ef553f","14","","","","","","","","","","","","27101","","{""P0_Q0"":null,""P0_Q1"":{""wealthy"":1,""safe"":2,""walkable"":1,""traditional"":1,""diverse"":1}}","","","","","","2","[]","","","","",""
"dot matrix survey2","survey","121","876337","0.0-121.0","","656776a7904ae00d6b91d1dd","6568aad618edfbe0d2ef553f","14","","","","","","","","","","","","10772","","{""P0_Q0"":null,""P0_Q1"":{""violence"":2,""crime"":2,""drug"":3,""schools"":2,""opportunities"":2}}","","","","","","2","[]","","","","",""
"dot matrix survey3","survey","122","894515","0.0-122.0","","656776a7904ae00d6b91d1dd","6568aad618edfbe0d2ef553f","14","","","","","","","","","","","","18173","","{""P0_Q0"":null,""P0_Q1"":{""movein"":2,""moveout"":2,""shopping"":1,""walk"":1,""park"":2,""school"":1}}","","","","","","2","[]","","","","",""
"sliderTrial","html-slider-response","123","896847","0.0-123.0","","656776a7904ae00d6b91d1dd","6568aad618edfbe0d2ef553f","14","","","","","","","","","","","","2330","[""SV_PolicingMSA/GA_1094/IMG_3_1094.jpg"",""SV_PolicingMSA/GA_1094/IMG_11_1094.jpg"",""SV_PolicingMSA/GA_1094/IMG_4_1094.jpg"",""SV_PolicingMSA/GA_1094/IMG_9_1094.jpg"",""SV_PolicingMSA/GA_1094/IMG_12_1094.jpg"",""SV_PolicingMSA/GA_1094/IMG_8_1094.jpg"",""SV_PolicingMSA/GA_1094/IMG_13_1094.jpg"",""SV_PolicingMSA/GA_1094/IMG_7_1094.jpg""]","4","","","","","","2","","4","[""./rc_img/cop_condGroup_17_CommunitySafety_autoscaled.png"",""./rc_img/cop_condGroup_17_SafeStreets_autoscaled.png""]","4","",""
"sliderTrial","html-slider-response","124","897962","0.0-124.0","","656776a7904ae00d6b91d1dd","6568aad618edfbe0d2ef553f","14","","","","","","","","","","","","1113","[""SV_PolicingMSA/GA_1094/IMG_3_1094.jpg"",""SV_PolicingMSA/GA_1094/IMG_11_1094.jpg"",""SV_PolicingMSA/GA_1094/IMG_4_1094.jpg"",""SV_PolicingMSA/GA_1094/IMG_9_1094.jpg"",""SV_PolicingMSA/GA_1094/IMG_12_1094.jpg"",""SV_PolicingMSA/GA_1094/IMG_8_1094.jpg"",""SV_PolicingMSA/GA_1094/IMG_13_1094.jpg"",""SV_PolicingMSA/GA_1094/IMG_7_1094.jpg""]","4","","","","","","2","","4","[""./rc_img/cop_condGroup_12_SafeStreets_autoscaled.png"",""./rc_img/cop_condGroup_12_CommunitySafety_autoscaled.png""]","4","",""
"sliderTrial","html-slider-response","125","898827","0.0-125.0","","656776a7904ae00d6b91d1dd","6568aad618edfbe0d2ef553f","14","","","","","","","","","","","","863","[""SV_PolicingMSA/GA_1094/IMG_3_1094.jpg"",""SV_PolicingMSA/GA_1094/IMG_11_1094.jpg"",""SV_PolicingMSA/GA_1094/IMG_4_1094.jpg"",""SV_PolicingMSA/GA_1094/IMG_9_1094.jpg"",""SV_PolicingMSA/GA_1094/IMG_12_1094.jpg"",""SV_PolicingMSA/GA_1094/IMG_8_1094.jpg"",""SV_PolicingMSA/GA_1094/IMG_13_1094.jpg"",""SV_PolicingMSA/GA_1094/IMG_7_1094.jpg""]","4","","","","","","2","","4","[""./rc_img/cop_condGroup_9_SafeStreets_autoscaled.png"",""./rc_img/cop_condGroup_9_CommunitySafety_autoscaled.png""]","4","",""
"sliderTrial","html-slider-response","126","899887","0.0-126.0","","656776a7904ae00d6b91d1dd","6568aad618edfbe0d2ef553f","14","","","","","","","","","","","","1058","[""SV_PolicingMSA/GA_1094/IMG_3_1094.jpg"",""SV_PolicingMSA/GA_1094/IMG_11_1094.jpg"",""SV_PolicingMSA/GA_1094/IMG_4_1094.jpg"",""SV_PolicingMSA/GA_1094/IMG_9_1094.jpg"",""SV_PolicingMSA/GA_1094/IMG_12_1094.jpg"",""SV_PolicingMSA/GA_1094/IMG_8_1094.jpg"",""SV_PolicingMSA/GA_1094/IMG_13_1094.jpg"",""SV_PolicingMSA/GA_1094/IMG_7_1094.jpg""]","4","","","","","","2","","4","[""./rc_img/cop_condGroup_4_SafeStreets_autoscaled.png"",""./rc_img/cop_condGroup_4_CommunitySafety_autoscaled.png""]","4","",""
"sliderTrial","html-slider-response","127","900801","0.0-127.0","","656776a7904ae00d6b91d1dd","6568aad618edfbe0d2ef553f","14","","","","","","","","","","","","911","[""SV_PolicingMSA/GA_1094/IMG_3_1094.jpg"",""SV_PolicingMSA/GA_1094/IMG_11_1094.jpg"",""SV_PolicingMSA/GA_1094/IMG_4_1094.jpg"",""SV_PolicingMSA/GA_1094/IMG_9_1094.jpg"",""SV_PolicingMSA/GA_1094/IMG_12_1094.jpg"",""SV_PolicingMSA/GA_1094/IMG_8_1094.jpg"",""SV_PolicingMSA/GA_1094/IMG_13_1094.jpg"",""SV_PolicingMSA/GA_1094/IMG_7_1094.jpg""]","4","","","","","","2","","4","[""./rc_img/cop_condGroup_5_SafeStreets_autoscaled.png"",""./rc_img/cop_condGroup_5_CommunitySafety_autoscaled.png""]","4","",""
"before_SVSlide_prompt","html-button-response","128","903089","0.0-128.0","","656776a7904ae00d6b91d1dd","6568aad618edfbe0d2ef553f","14","","","","","","","","","","","","2287","Click [Next] to see the next neighborhood!","0","","","","","","","","","","","",""
"street view slide show","image-button-response","129","904091","0.0-129.0","","656776a7904ae00d6b91d1dd","6568aad618edfbe0d2ef553f","14","","","","","","","","","","","","null","stimulus/SV_PolicingMSA/GA_2659/IMG_13_2659.jpg","null","","","","","","5","","","","","",""
"street view slide show","image-button-response","130","905105","0.0-130.0","","656776a7904ae00d6b91d1dd","6568aad618edfbe0d2ef553f","14","","","","","","","","","","","","null","stimulus/SV_PolicingMSA/GA_2659/IMG_1_2659.jpg","null","","","","","","5","","","","","",""
"street view slide show","image-button-response","131","906121","0.0-131.0","","656776a7904ae00d6b91d1dd","6568aad618edfbe0d2ef553f","14","","","","","","","","","","","","null","stimulus/SV_PolicingMSA/GA_2659/IMG_11_2659.jpg","null","","","","","","5","","","","","",""
"street view slide show","image-button-response","132","907130","0.0-132.0","","656776a7904ae00d6b91d1dd","6568aad618edfbe0d2ef553f","14","","","","","","","","","","","","null","stimulus/SV_PolicingMSA/GA_2659/IMG_5_2659.jpg","null","","","","","","5","","","","","",""
"street view slide show","image-button-response","133","908134","0.0-133.0","","656776a7904ae00d6b91d1dd","6568aad618edfbe0d2ef553f","14","","","","","","","","","","","","null","stimulus/SV_PolicingMSA/GA_2659/IMG_2_2659.jpg","null","","","","","","5","","","","","",""
"street view slide show","image-button-response","134","909137","0.0-134.0","","656776a7904ae00d6b91d1dd","6568aad618edfbe0d2ef553f","14","","","","","","","","","","","","null","stimulus/SV_PolicingMSA/GA_2659/IMG_14_2659.jpg","null","","","","","","5","","","","","",""
"street view slide show","image-button-response","135","910140","0.0-135.0","","656776a7904ae00d6b91d1dd","6568aad618edfbe0d2ef553f","14","","","","","","","","","","","","null","stimulus/SV_PolicingMSA/GA_2659/IMG_7_2659.jpg","null","","","","","","5","","","","","",""
"street view slide show","image-button-response","136","911155","0.0-136.0","","656776a7904ae00d6b91d1dd","6568aad618edfbe0d2ef553f","14","","","","","","","","","","","","null","stimulus/SV_PolicingMSA/GA_2659/IMG_8_2659.jpg","null","","","","","","5","","","","","",""
"dot matrix survey1","survey","137","925143","0.0-137.0","","656776a7904ae00d6b91d1dd","6568aad618edfbe0d2ef553f","14","","","","","","","","","","","","13980","","{""P0_Q0"":null,""P0_Q1"":{""wealthy"":2,""safe"":2,""walkable"":0,""traditional"":1,""diverse"":1}}","","","","","","5","[]","","","","",""
"dot matrix survey2","survey","138","941226","0.0-138.0","","656776a7904ae00d6b91d1dd","6568aad618edfbe0d2ef553f","14","","","","","","","","","","","","16078","","{""P0_Q0"":null,""P0_Q1"":{""violence"":2,""crime"":2,""drug"":3,""schools"":3,""opportunities"":2}}","","","","","","5","[]","","","","",""
"dot matrix survey3","survey","139","962639","0.0-139.0","","656776a7904ae00d6b91d1dd","6568aad618edfbe0d2ef553f","14","","","","","","","","","","","","21410","","{""P0_Q0"":null,""P0_Q1"":{""movein"":2,""moveout"":2,""shopping"":2,""walk"":1,""park"":1,""school"":1}}","","","","","","5","[]","","","","",""
"sliderTrial","html-slider-response","140","965231","0.0-140.0","","656776a7904ae00d6b91d1dd","6568aad618edfbe0d2ef553f","14","","","","","","","","","","","","2591","[""SV_PolicingMSA/GA_2659/IMG_13_2659.jpg"",""SV_PolicingMSA/GA_2659/IMG_1_2659.jpg"",""SV_PolicingMSA/GA_2659/IMG_11_2659.jpg"",""SV_PolicingMSA/GA_2659/IMG_5_2659.jpg"",""SV_PolicingMSA/GA_2659/IMG_2_2659.jpg"",""SV_PolicingMSA/GA_2659/IMG_14_2659.jpg"",""SV_PolicingMSA/GA_2659/IMG_7_2659.jpg"",""SV_PolicingMSA/GA_2659/IMG_8_2659.jpg""]","4","","","","","","5","","4","[""./rc_img/cop_condGroup_8_SafeStreets_autoscaled.png"",""./rc_img/cop_condGroup_8_CommunitySafety_autoscaled.png""]","4","",""
"sliderTrial","html-slider-response","141","966126","0.0-141.0","","656776a7904ae00d6b91d1dd","6568aad618edfbe0d2ef553f","14","","","","","","","","","","","","893","[""SV_PolicingMSA/GA_2659/IMG_13_2659.jpg"",""SV_PolicingMSA/GA_2659/IMG_1_2659.jpg"",""SV_PolicingMSA/GA_2659/IMG_11_2659.jpg"",""SV_PolicingMSA/GA_2659/IMG_5_2659.jpg"",""SV_PolicingMSA/GA_2659/IMG_2_2659.jpg"",""SV_PolicingMSA/GA_2659/IMG_14_2659.jpg"",""SV_PolicingMSA/GA_2659/IMG_7_2659.jpg"",""SV_PolicingMSA/GA_2659/IMG_8_2659.jpg""]","4","","","","","","5","","4","[""./rc_img/cop_condGroup_16_SafeStreets_autoscaled.png"",""./rc_img/cop_condGroup_16_CommunitySafety_autoscaled.png""]","4","",""
"sliderTrial","html-slider-response","142","967297","0.0-142.0","","656776a7904ae00d6b91d1dd","6568aad618edfbe0d2ef553f","14","","","","","","","","","","","","1170","[""SV_PolicingMSA/GA_2659/IMG_13_2659.jpg"",""SV_PolicingMSA/GA_2659/IMG_1_2659.jpg"",""SV_PolicingMSA/GA_2659/IMG_11_2659.jpg"",""SV_PolicingMSA/GA_2659/IMG_5_2659.jpg"",""SV_PolicingMSA/GA_2659/IMG_2_2659.jpg"",""SV_PolicingMSA/GA_2659/IMG_14_2659.jpg"",""SV_PolicingMSA/GA_2659/IMG_7_2659.jpg"",""SV_PolicingMSA/GA_2659/IMG_8_2659.jpg""]","4","","","","","","5","","4","[""./rc_img/cop_condGroup_13_SafeStreets_autoscaled.png"",""./rc_img/cop_condGroup_13_CommunitySafety_autoscaled.png""]","4","",""
"sliderTrial","html-slider-response","143","968414","0.0-143.0","","656776a7904ae00d6b91d1dd","6568aad618edfbe0d2ef553f","14","","","","","","","","","","","","1115","[""SV_PolicingMSA/GA_2659/IMG_13_2659.jpg"",""SV_PolicingMSA/GA_2659/IMG_1_2659.jpg"",""SV_PolicingMSA/GA_2659/IMG_11_2659.jpg"",""SV_PolicingMSA/GA_2659/IMG_5_2659.jpg"",""SV_PolicingMSA/GA_2659/IMG_2_2659.jpg"",""SV_PolicingMSA/GA_2659/IMG_14_2659.jpg"",""SV_PolicingMSA/GA_2659/IMG_7_2659.jpg"",""SV_PolicingMSA/GA_2659/IMG_8_2659.jpg""]","4","","","","","","5","","4","[""./rc_img/cop_condGroup_20_SafeStreets_autoscaled.png"",""./rc_img/cop_condGroup_20_CommunitySafety_autoscaled.png""]","4","",""
"sliderTrial","html-slider-response","144","969506","0.0-144.0","","656776a7904ae00d6b91d1dd","6568aad618edfbe0d2ef553f","14","","","","","","","","","","","","1089","[""SV_PolicingMSA/GA_2659/IMG_13_2659.jpg"",""SV_PolicingMSA/GA_2659/IMG_1_2659.jpg"",""SV_PolicingMSA/GA_2659/IMG_11_2659.jpg"",""SV_PolicingMSA/GA_2659/IMG_5_2659.jpg"",""SV_PolicingMSA/GA_2659/IMG_2_2659.jpg"",""SV_PolicingMSA/GA_2659/IMG_14_2659.jpg"",""SV_PolicingMSA/GA_2659/IMG_7_2659.jpg"",""SV_PolicingMSA/GA_2659/IMG_8_2659.jpg""]","4","","","","","","5","","4","[""./rc_img/cop_condGroup_14_CommunitySafety_autoscaled.png"",""./rc_img/cop_condGroup_14_SafeStreets_autoscaled.png""]","4","",""
"demographics","survey-html-form","145","987977","0.0-145.0","","656776a7904ae00d6b91d1dd","6568aad618edfbe0d2ef553f","14","","","","","","","","","","","","18470","","{""age"":""52"",""sex"":""male"",""gender"":""man"",""gender-self-describe"":"""",""zipcode"":""92656""}","","","","","","","","","","","",""
"demographics-list","survey","146","1010034","0.0-146.0","","656776a7904ae00d6b91d1dd","6568aad618edfbe0d2ef553f","14","","","","","","","","","","","","22036","","{""P0_Q0"":null,""race-ethnicity"":[""Hispanic or Latinx""],""education"":""Bachelor’s degree"",""P1_Q0"":null,""ideology"":""Liberal"",""P2_Q0"":null,""num-moves"":3,""P3_Q0"":null,""social-ladder"":3}","","","","","","","[]","","","","",""
"end-survey","survey-text","147","1101735","0.0-147.0","","656776a7904ae00d6b91d1dd","6568aad618edfbe0d2ef553f","14","","","","","","","","","","","","91695","","{""Q0"":""I messed up on the first attention check. I clicked next as I was reading the text on the pictures.\n\nI honestly had no preference at all on the police officer choices.""}","","","","","","","","","","","","1"
"end-survey","html-button-response","148","1104437","0.0-148.0","","656776a7904ae00d6b91d1dd","6568aad618edfbe0d2ef553f","14","","","","","","","","","","","","2700","
    You've reached the end of the survey. <br><br> 
    <b>Do not close or refresh this window.</b><br>
    On the next page, you will be automatically redirected to Prolific. <br><br>

    <div class=""alert alert-warning""><b>
    </div>
","0","","","","","","","","","","","",""
