"task","trial_type","trial_index","time_elapsed","internal_node_id","subject_id","study_id","session_id","section","width","height","webaudio","browser","browser_version","mobile","os","fullscreen","vsync_rate","webcam","microphone","rt","stimulus","response","success","timeout","failed_images","failed_audio","failed_video","block","accuracy","slider_start","choices","standardized_response","correct","num_attention_checks_correct"
"pavlovia-init","pavlovia","0","1602","0.0-0.0","","656776a7904ae00d6b91d1dd","6568ae2f2909018e0e20ca33","11","","","","","","","","","","","","","","","","","","","","","","","","","",""
"browser-check","browser-check","1","2610","0.0-1.0","","656776a7904ae00d6b91d1dd","6568ae2f2909018e0e20ca33","11","1920","944","true","chrome","118.0.0","false","Mac OS","true","59.84","false","true","","","","","","","","","","","","","","",""
"consent","html-button-response","2","8599","0.0-2.0","","656776a7904ae00d6b91d1dd","6568ae2f2909018e0e20ca33","11","","","","","","","","","","","","5987","
        <div style=""font-size: 80%; max-width:700px"">
            <h2>CONSENT FORM</h2>
        
            <div style=""text-align: left"">
            <h4>DESCRIPTION</h4>
            <p>
            You will complete a short task where you give your impressions of various neighborhoods and assign individuals to those spaces, and answer some questions about your thoughts and opinions.<br>
            The University of Michigan Institutional Review Board Health Sciences and Behavioral Sciences has determined that this study is exempt from IRB oversight.
            </p>

            <h4>TIME INVOLVEMENT</h4>
            <p>Your participation will take approximately 15 minutes. You will receive $3.15 upon completion of the study.</p>
        
            <h4>RISKS AND BENEFITS</h4>
            <p>
            The risks associated with this study are minimal. The benefits which may reasonably be expected to result from this study are none. We cannot and do not guarantee or promise that you will receive any benefits from this study.
            </p>
          
            <h4>SUBJECT'S RIGHTS</h4>
            <p>
            If you have read this form and have decided to participate in this project, please understand your participation is voluntary and you have the right to withdraw your consent or discontinue participation at any time without penalty or loss of benefits to which you are otherwise entitled. The alternative is not to participate. You have the right to refuse to answer particular questions. Your individual privacy will be maintained in all published and written data resulting from the study.
            </p>

            <h4>HUMAN SUBJECT APPROVAL</h4>
            <p>
            This study is exempt from ongoing IRB review.
            </p>

            <h4>CONTACT INFORMATION</h4>
            If you have any questions, concerns or complaints about this research, its procedures, risks and benefits, contact the Protocol Director, Nicholas Camp, npcamp@umich.edu, (443) 851-6783. <br>

            If you have questions about your rights as a research participant, or wish to obtain information, ask questions or discuss any concerns about this study with someone other than the researcher(s), please contact the following:<br><br>
            University of Michigan<br>
            Health Sciences and Behavioral Sciences Institutional Review Board (IRB-HSBS)<br>
            2800 Plymouth Road<br>
            Building 520, Room 1169Ann Arbor, MI 48109-2800<br>
            Telephone: 734-936-0933 or toll free (866) 936-0933<br>
            Fax: 734-936-1852<br>
            E-mail: irbhsbs@umich.edu<br><br>

            You can also contact the University of Michigan Compliance Hotline at 1-866-990-0111. You may also print this consent form to keep.
            <br><br>
            <div class=""alert alert-warning""><b>
            Do you consent to participate in this study? If you consent to participate in this study, please click “Accept and Continue”. If you select ""Decline and Exit"", you will be exited from the survey. <br>
            </b></div>
            </div>
        </div>
    ","1","","","","","","","","","","","",""
"","preload","3","10300","0.0-3.0","","656776a7904ae00d6b91d1dd","6568ae2f2909018e0e20ca33","11","","","","","","","","","","","","","","","true","false","[]","[]","[]","","","","","","",""
"instructions","html-button-response","4","16599","0.0-4.0","","656776a7904ae00d6b91d1dd","6568ae2f2909018e0e20ca33","11","","","","","","","","","","","","6297","
        <div class=""text-container"">
        <h1>Welcome to the study!</h1>
        
        <div class=""text-left"">
            <p>
                In this study, we are interested in what people can tell about spaces from Google Street View images. <br> Google Street View takes pictures of streets used for Google Earth and Google Maps. <br>You’ll see Google Street View images of different places and answer some questions about each one.<br>
            </p>
        </div>
        <img src = ""assets/img/example.png"" width = 500px, height = auto>
        <br>
    <br>
    ","0","","","","","","","","","","","",""
"instructions","html-button-response","5","18711","0.0-5.0","","656776a7904ae00d6b91d1dd","6568ae2f2909018e0e20ca33","11","","","","","","","","","","","","2111","
    <div class=""text-container"">
        <div class=""text-center"">
            <p>Please remember that your answers are completely anonymous.<br>Go with your gut response- there are no right or wrong answers!</p>
        </div>
    <br>
","0","","","","","","","","","","","",""
"before_SVSlide_prompt","html-button-response","6","20032","0.0-6.0","","656776a7904ae00d6b91d1dd","6568ae2f2909018e0e20ca33","11","","","","","","","","","","","","1319","Click [Next] to see the next neighborhood!","0","","","","","","","","","","","",""
"street view slide show","image-button-response","7","21037","0.0-7.0","","656776a7904ae00d6b91d1dd","6568ae2f2909018e0e20ca33","11","","","","","","","","","","","","null","stimulus/SV_PolicingMSA/NY_2726/IMG_11_2726.jpg","null","","","","","","2","","","","","",""
"street view slide show","image-button-response","8","22045","0.0-8.0","","656776a7904ae00d6b91d1dd","6568ae2f2909018e0e20ca33","11","","","","","","","","","","","","null","stimulus/SV_PolicingMSA/NY_2726/IMG_14_2726.jpg","null","","","","","","2","","","","","",""
"street view slide show","image-button-response","9","23054","0.0-9.0","","656776a7904ae00d6b91d1dd","6568ae2f2909018e0e20ca33","11","","","","","","","","","","","","null","stimulus/SV_PolicingMSA/NY_2726/IMG_3_2726.jpg","null","","","","","","2","","","","","",""
"street view slide show","image-button-response","10","24059","0.0-10.0","","656776a7904ae00d6b91d1dd","6568ae2f2909018e0e20ca33","11","","","","","","","","","","","","null","stimulus/SV_PolicingMSA/NY_2726/IMG_1_2726.jpg","null","","","","","","2","","","","","",""
"street view slide show","image-button-response","11","25066","0.0-11.0","","656776a7904ae00d6b91d1dd","6568ae2f2909018e0e20ca33","11","","","","","","","","","","","","null","stimulus/SV_PolicingMSA/NY_2726/IMG_10_2726.jpg","null","","","","","","2","","","","","",""
"street view slide show","image-button-response","12","26073","0.0-12.0","","656776a7904ae00d6b91d1dd","6568ae2f2909018e0e20ca33","11","","","","","","","","","","","","null","stimulus/SV_PolicingMSA/NY_2726/IMG_12_2726.jpg","null","","","","","","2","","","","","",""
"street view slide show","image-button-response","13","27078","0.0-13.0","","656776a7904ae00d6b91d1dd","6568ae2f2909018e0e20ca33","11","","","","","","","","","","","","null","stimulus/SV_PolicingMSA/NY_2726/IMG_7_2726.jpg","null","","","","","","2","","","","","",""
"street view slide show","image-button-response","14","28086","0.0-14.0","","656776a7904ae00d6b91d1dd","6568ae2f2909018e0e20ca33","11","","","","","","","","","","","","null","stimulus/SV_PolicingMSA/NY_2726/IMG_2_2726.jpg","null","","","","","","2","","","","","",""
"dot matrix survey1","survey","15","46279","0.0-15.0","","656776a7904ae00d6b91d1dd","6568ae2f2909018e0e20ca33","11","","","","","","","","","","","","18153","","{""P0_Q0"":null,""P0_Q1"":{""wealthy"":1,""safe"":4,""walkable"":3,""traditional"":3,""diverse"":2}}","","","","","","2","[]","","","","",""
"dot matrix survey2","survey","16","59762","0.0-16.0","","656776a7904ae00d6b91d1dd","6568ae2f2909018e0e20ca33","11","","","","","","","","","","","","13474","","{""P0_Q0"":null,""P0_Q1"":{""violence"":1,""crime"":1,""drug"":2,""schools"":2,""opportunities"":1}}","","","","","","2","[]","","","","",""
"dot matrix survey3","survey","17","74907","0.0-17.0","","656776a7904ae00d6b91d1dd","6568ae2f2909018e0e20ca33","11","","","","","","","","","","","","15138","","{""P0_Q0"":null,""P0_Q1"":{""movein"":3,""moveout"":1,""shopping"":2,""walk"":4,""park"":4,""school"":3}}","","","","","","2","[]","","","","",""
"sliderTrial","html-slider-response","18","87751","0.0-18.0","","656776a7904ae00d6b91d1dd","6568ae2f2909018e0e20ca33","11","","","","","","","","","","","","12839","[""SV_PolicingMSA/NY_2726/IMG_11_2726.jpg"",""SV_PolicingMSA/NY_2726/IMG_14_2726.jpg"",""SV_PolicingMSA/NY_2726/IMG_3_2726.jpg"",""SV_PolicingMSA/NY_2726/IMG_1_2726.jpg"",""SV_PolicingMSA/NY_2726/IMG_10_2726.jpg"",""SV_PolicingMSA/NY_2726/IMG_12_2726.jpg"",""SV_PolicingMSA/NY_2726/IMG_7_2726.jpg"",""SV_PolicingMSA/NY_2726/IMG_2_2726.jpg""]","4","","","","","","2","","4","[""./rc_img/cop_condGroup_6_SafeStreets_autoscaled.png"",""./rc_img/cop_condGroup_6_CommunitySafety_autoscaled.png""]","4","",""
"sliderTrial","html-slider-response","19","93047","0.0-19.0","","656776a7904ae00d6b91d1dd","6568ae2f2909018e0e20ca33","11","","","","","","","","","","","","5291","[""SV_PolicingMSA/NY_2726/IMG_11_2726.jpg"",""SV_PolicingMSA/NY_2726/IMG_14_2726.jpg"",""SV_PolicingMSA/NY_2726/IMG_3_2726.jpg"",""SV_PolicingMSA/NY_2726/IMG_1_2726.jpg"",""SV_PolicingMSA/NY_2726/IMG_10_2726.jpg"",""SV_PolicingMSA/NY_2726/IMG_12_2726.jpg"",""SV_PolicingMSA/NY_2726/IMG_7_2726.jpg"",""SV_PolicingMSA/NY_2726/IMG_2_2726.jpg""]","4","","","","","","2","","4","[""./rc_img/cop_condGroup_13_CommunitySafety_autoscaled.png"",""./rc_img/cop_condGroup_13_SafeStreets_autoscaled.png""]","4","",""
"sliderTrial","html-slider-response","20","94948","0.0-20.0","","656776a7904ae00d6b91d1dd","6568ae2f2909018e0e20ca33","11","","","","","","","","","","","","1898","[""SV_PolicingMSA/NY_2726/IMG_11_2726.jpg"",""SV_PolicingMSA/NY_2726/IMG_14_2726.jpg"",""SV_PolicingMSA/NY_2726/IMG_3_2726.jpg"",""SV_PolicingMSA/NY_2726/IMG_1_2726.jpg"",""SV_PolicingMSA/NY_2726/IMG_10_2726.jpg"",""SV_PolicingMSA/NY_2726/IMG_12_2726.jpg"",""SV_PolicingMSA/NY_2726/IMG_7_2726.jpg"",""SV_PolicingMSA/NY_2726/IMG_2_2726.jpg""]","4","","","","","","2","","4","[""./rc_img/cop_condGroup_7_SafeStreets_autoscaled.png"",""./rc_img/cop_condGroup_7_CommunitySafety_autoscaled.png""]","4","",""
"sliderTrial","html-slider-response","21","97800","0.0-21.0","","656776a7904ae00d6b91d1dd","6568ae2f2909018e0e20ca33","11","","","","","","","","","","","","2850","[""SV_PolicingMSA/NY_2726/IMG_11_2726.jpg"",""SV_PolicingMSA/NY_2726/IMG_14_2726.jpg"",""SV_PolicingMSA/NY_2726/IMG_3_2726.jpg"",""SV_PolicingMSA/NY_2726/IMG_1_2726.jpg"",""SV_PolicingMSA/NY_2726/IMG_10_2726.jpg"",""SV_PolicingMSA/NY_2726/IMG_12_2726.jpg"",""SV_PolicingMSA/NY_2726/IMG_7_2726.jpg"",""SV_PolicingMSA/NY_2726/IMG_2_2726.jpg""]","3","","","","","","2","","4","[""./rc_img/cop_condGroup_3_CommunitySafety_autoscaled.png"",""./rc_img/cop_condGroup_3_SafeStreets_autoscaled.png""]","3","",""
"sliderTrial","html-slider-response","22","100714","0.0-22.0","","656776a7904ae00d6b91d1dd","6568ae2f2909018e0e20ca33","11","","","","","","","","","","","","2912","[""SV_PolicingMSA/NY_2726/IMG_11_2726.jpg"",""SV_PolicingMSA/NY_2726/IMG_14_2726.jpg"",""SV_PolicingMSA/NY_2726/IMG_3_2726.jpg"",""SV_PolicingMSA/NY_2726/IMG_1_2726.jpg"",""SV_PolicingMSA/NY_2726/IMG_10_2726.jpg"",""SV_PolicingMSA/NY_2726/IMG_12_2726.jpg"",""SV_PolicingMSA/NY_2726/IMG_7_2726.jpg"",""SV_PolicingMSA/NY_2726/IMG_2_2726.jpg""]","5","","","","","","2","","4","[""./rc_img/cop_condGroup_11_SafeStreets_autoscaled.png"",""./rc_img/cop_condGroup_11_CommunitySafety_autoscaled.png""]","3","",""
"before_SVSlide_prompt","html-button-response","23","102015","0.0-23.0","","656776a7904ae00d6b91d1dd","6568ae2f2909018e0e20ca33","11","","","","","","","","","","","","1299","Click [Next] to see the next neighborhood!","0","","","","","","","","","","","",""
"street view slide show","image-button-response","24","103022","0.0-24.0","","656776a7904ae00d6b91d1dd","6568ae2f2909018e0e20ca33","11","","","","","","","","","","","","null","stimulus/SV_PolicingMSA/NY_5291/IMG_14_5291.jpg","null","","","","","","4","","","","","",""
"street view slide show","image-button-response","25","104025","0.0-25.0","","656776a7904ae00d6b91d1dd","6568ae2f2909018e0e20ca33","11","","","","","","","","","","","","null","stimulus/SV_PolicingMSA/NY_5291/IMG_6_5291.jpg","null","","","","","","4","","","","","",""
"street view slide show","image-button-response","26","105030","0.0-26.0","","656776a7904ae00d6b91d1dd","6568ae2f2909018e0e20ca33","11","","","","","","","","","","","","null","stimulus/SV_PolicingMSA/NY_5291/IMG_3_5291.jpg","null","","","","","","4","","","","","",""
"street view slide show","image-button-response","27","106033","0.0-27.0","","656776a7904ae00d6b91d1dd","6568ae2f2909018e0e20ca33","11","","","","","","","","","","","","null","stimulus/SV_PolicingMSA/NY_5291/IMG_5_5291.jpg","null","","","","","","4","","","","","",""
"street view slide show","image-button-response","28","107039","0.0-28.0","","656776a7904ae00d6b91d1dd","6568ae2f2909018e0e20ca33","11","","","","","","","","","","","","null","stimulus/SV_PolicingMSA/NY_5291/IMG_8_5291.jpg","null","","","","","","4","","","","","",""
"street view slide show","image-button-response","29","108043","0.0-29.0","","656776a7904ae00d6b91d1dd","6568ae2f2909018e0e20ca33","11","","","","","","","","","","","","null","stimulus/SV_PolicingMSA/NY_5291/IMG_9_5291.jpg","null","","","","","","4","","","","","",""
"street view slide show","image-button-response","30","109050","0.0-30.0","","656776a7904ae00d6b91d1dd","6568ae2f2909018e0e20ca33","11","","","","","","","","","","","","null","stimulus/SV_PolicingMSA/NY_5291/IMG_4_5291.jpg","null","","","","","","4","","","","","",""
"street view slide show","image-button-response","31","110054","0.0-31.0","","656776a7904ae00d6b91d1dd","6568ae2f2909018e0e20ca33","11","","","","","","","","","","","","null","stimulus/SV_PolicingMSA/NY_5291/IMG_2_5291.jpg","null","","","","","","4","","","","","",""
"dot matrix survey1","survey","32","133143","0.0-32.0","","656776a7904ae00d6b91d1dd","6568ae2f2909018e0e20ca33","11","","","","","","","","","","","","23073","","{""P0_Q0"":null,""P0_Q1"":{""wealthy"":1,""safe"":2,""walkable"":1,""diverse"":1,""traditional"":1}}","","","","","","4","[]","","","","",""
"dot matrix survey2","survey","33","144173","0.0-33.0","","656776a7904ae00d6b91d1dd","6568ae2f2909018e0e20ca33","11","","","","","","","","","","","","11021","","{""P0_Q0"":null,""P0_Q1"":{""violence"":3,""crime"":3,""drug"":3,""schools"":1,""opportunities"":1}}","","","","","","4","[]","","","","",""
"dot matrix survey3","survey","34","154743","0.0-34.0","","656776a7904ae00d6b91d1dd","6568ae2f2909018e0e20ca33","11","","","","","","","","","","","","10563","","{""P0_Q0"":null,""P0_Q1"":{""movein"":0,""moveout"":4,""shopping"":1,""walk"":2,""park"":2,""school"":1}}","","","","","","4","[]","","","","",""
"sliderTrial","html-slider-response","35","159164","0.0-35.0","","656776a7904ae00d6b91d1dd","6568ae2f2909018e0e20ca33","11","","","","","","","","","","","","4419","[""SV_PolicingMSA/NY_5291/IMG_14_5291.jpg"",""SV_PolicingMSA/NY_5291/IMG_6_5291.jpg"",""SV_PolicingMSA/NY_5291/IMG_3_5291.jpg"",""SV_PolicingMSA/NY_5291/IMG_5_5291.jpg"",""SV_PolicingMSA/NY_5291/IMG_8_5291.jpg"",""SV_PolicingMSA/NY_5291/IMG_9_5291.jpg"",""SV_PolicingMSA/NY_5291/IMG_4_5291.jpg"",""SV_PolicingMSA/NY_5291/IMG_2_5291.jpg""]","5","","","","","","4","","4","[""./rc_img/cop_condGroup_6_SafeStreets_autoscaled.png"",""./rc_img/cop_condGroup_6_CommunitySafety_autoscaled.png""]","3","",""
"sliderTrial","html-slider-response","36","161280","0.0-36.0","","656776a7904ae00d6b91d1dd","6568ae2f2909018e0e20ca33","11","","","","","","","","","","","","2114","[""SV_PolicingMSA/NY_5291/IMG_14_5291.jpg"",""SV_PolicingMSA/NY_5291/IMG_6_5291.jpg"",""SV_PolicingMSA/NY_5291/IMG_3_5291.jpg"",""SV_PolicingMSA/NY_5291/IMG_5_5291.jpg"",""SV_PolicingMSA/NY_5291/IMG_8_5291.jpg"",""SV_PolicingMSA/NY_5291/IMG_9_5291.jpg"",""SV_PolicingMSA/NY_5291/IMG_4_5291.jpg"",""SV_PolicingMSA/NY_5291/IMG_2_5291.jpg""]","3","","","","","","4","","4","[""./rc_img/cop_condGroup_13_CommunitySafety_autoscaled.png"",""./rc_img/cop_condGroup_13_SafeStreets_autoscaled.png""]","3","",""
"sliderTrial","html-slider-response","37","163048","0.0-37.0","","656776a7904ae00d6b91d1dd","6568ae2f2909018e0e20ca33","11","","","","","","","","","","","","1766","[""SV_PolicingMSA/NY_5291/IMG_14_5291.jpg"",""SV_PolicingMSA/NY_5291/IMG_6_5291.jpg"",""SV_PolicingMSA/NY_5291/IMG_3_5291.jpg"",""SV_PolicingMSA/NY_5291/IMG_5_5291.jpg"",""SV_PolicingMSA/NY_5291/IMG_8_5291.jpg"",""SV_PolicingMSA/NY_5291/IMG_9_5291.jpg"",""SV_PolicingMSA/NY_5291/IMG_4_5291.jpg"",""SV_PolicingMSA/NY_5291/IMG_2_5291.jpg""]","4","","","","","","4","","4","[""./rc_img/cop_condGroup_7_SafeStreets_autoscaled.png"",""./rc_img/cop_condGroup_7_CommunitySafety_autoscaled.png""]","4","",""
"sliderTrial","html-slider-response","38","165149","0.0-38.0","","656776a7904ae00d6b91d1dd","6568ae2f2909018e0e20ca33","11","","","","","","","","","","","","2098","[""SV_PolicingMSA/NY_5291/IMG_14_5291.jpg"",""SV_PolicingMSA/NY_5291/IMG_6_5291.jpg"",""SV_PolicingMSA/NY_5291/IMG_3_5291.jpg"",""SV_PolicingMSA/NY_5291/IMG_5_5291.jpg"",""SV_PolicingMSA/NY_5291/IMG_8_5291.jpg"",""SV_PolicingMSA/NY_5291/IMG_9_5291.jpg"",""SV_PolicingMSA/NY_5291/IMG_4_5291.jpg"",""SV_PolicingMSA/NY_5291/IMG_2_5291.jpg""]","3","","","","","","4","","4","[""./rc_img/cop_condGroup_3_CommunitySafety_autoscaled.png"",""./rc_img/cop_condGroup_3_SafeStreets_autoscaled.png""]","3","",""
"sliderTrial","html-slider-response","39","167364","0.0-39.0","","656776a7904ae00d6b91d1dd","6568ae2f2909018e0e20ca33","11","","","","","","","","","","","","2213","[""SV_PolicingMSA/NY_5291/IMG_14_5291.jpg"",""SV_PolicingMSA/NY_5291/IMG_6_5291.jpg"",""SV_PolicingMSA/NY_5291/IMG_3_5291.jpg"",""SV_PolicingMSA/NY_5291/IMG_5_5291.jpg"",""SV_PolicingMSA/NY_5291/IMG_8_5291.jpg"",""SV_PolicingMSA/NY_5291/IMG_9_5291.jpg"",""SV_PolicingMSA/NY_5291/IMG_4_5291.jpg"",""SV_PolicingMSA/NY_5291/IMG_2_5291.jpg""]","5","","","","","","4","","4","[""./rc_img/cop_condGroup_11_SafeStreets_autoscaled.png"",""./rc_img/cop_condGroup_11_CommunitySafety_autoscaled.png""]","3","",""
"before_SVSlide_prompt","html-button-response","40","168314","0.0-40.0","","656776a7904ae00d6b91d1dd","6568ae2f2909018e0e20ca33","11","","","","","","","","","","","","948","Click [Next] to see the next neighborhood!","0","","","","","","","","","","","",""
"street view slide show","image-button-response","41","169317","0.0-41.0","","656776a7904ae00d6b91d1dd","6568ae2f2909018e0e20ca33","11","","","","","","","","","","","","null","stimulus/SV_PolicingMSA/NY_2731/IMG_2_2731.jpg","null","","","","","","3","","","","","",""
"street view slide show","image-button-response","42","170320","0.0-42.0","","656776a7904ae00d6b91d1dd","6568ae2f2909018e0e20ca33","11","","","","","","","","","","","","null","stimulus/SV_PolicingMSA/NY_2731/IMG_9_2731.jpg","null","","","","","","3","","","","","",""
"street view slide show","image-button-response","43","171323","0.0-43.0","","656776a7904ae00d6b91d1dd","6568ae2f2909018e0e20ca33","11","","","","","","","","","","","","null","stimulus/SV_PolicingMSA/NY_2731/IMG_3_2731.jpg","null","","","","","","3","","","","","",""
"street view slide show","image-button-response","44","172326","0.0-44.0","","656776a7904ae00d6b91d1dd","6568ae2f2909018e0e20ca33","11","","","","","","","","","","","","null","stimulus/SV_PolicingMSA/NY_2731/IMG_11_2731.jpg","null","","","","","","3","","","","","",""
"street view slide show","image-button-response","45","173331","0.0-45.0","","656776a7904ae00d6b91d1dd","6568ae2f2909018e0e20ca33","11","","","","","","","","","","","","null","stimulus/SV_PolicingMSA/NY_2731/IMG_5_2731.jpg","null","","","","","","3","","","","","",""
"street view slide show","image-button-response","46","174334","0.0-46.0","","656776a7904ae00d6b91d1dd","6568ae2f2909018e0e20ca33","11","","","","","","","","","","","","null","stimulus/SV_PolicingMSA/NY_2731/IMG_8_2731.jpg","null","","","","","","3","","","","","",""
"street view slide show","image-button-response","47","175338","0.0-47.0","","656776a7904ae00d6b91d1dd","6568ae2f2909018e0e20ca33","11","","","","","","","","","","","","null","stimulus/SV_PolicingMSA/NY_2731/IMG_12_2731.jpg","null","","","","","","3","","","","","",""
"street view slide show","image-button-response","48","176341","0.0-48.0","","656776a7904ae00d6b91d1dd","6568ae2f2909018e0e20ca33","11","","","","","","","","","","","","null","stimulus/SV_PolicingMSA/NY_2731/IMG_10_2731.jpg","null","","","","","","3","","","","","",""
"dot matrix survey1","survey","49","190778","0.0-49.0","","656776a7904ae00d6b91d1dd","6568ae2f2909018e0e20ca33","11","","","","","","","","","","","","14423","","{""P0_Q0"":null,""P0_Q1"":{""wealthy"":2,""safe"":3,""walkable"":3,""traditional"":1,""diverse"":2}}","","","","","","3","[]","","","","",""
"dot matrix survey2","survey","50","197374","0.0-50.0","","656776a7904ae00d6b91d1dd","6568ae2f2909018e0e20ca33","11","","","","","","","","","","","","6589","","{""P0_Q0"":null,""P0_Q1"":{""violence"":2,""crime"":2,""drug"":2,""schools"":1,""opportunities"":1}}","","","","","","3","[]","","","","",""
"dot matrix survey3","survey","51","211739","0.0-51.0","","656776a7904ae00d6b91d1dd","6568ae2f2909018e0e20ca33","11","","","","","","","","","","","","14359","","{""P0_Q0"":null,""P0_Q1"":{""movein"":1,""moveout"":3,""shopping"":2,""walk"":3,""park"":3,""school"":2}}","","","","","","3","[]","","","","",""
"sliderTrial","html-slider-response","52","214466","0.0-52.0","","656776a7904ae00d6b91d1dd","6568ae2f2909018e0e20ca33","11","","","","","","","","","","","","2725","[""SV_PolicingMSA/NY_2731/IMG_2_2731.jpg"",""SV_PolicingMSA/NY_2731/IMG_9_2731.jpg"",""SV_PolicingMSA/NY_2731/IMG_3_2731.jpg"",""SV_PolicingMSA/NY_2731/IMG_11_2731.jpg"",""SV_PolicingMSA/NY_2731/IMG_5_2731.jpg"",""SV_PolicingMSA/NY_2731/IMG_8_2731.jpg"",""SV_PolicingMSA/NY_2731/IMG_12_2731.jpg"",""SV_PolicingMSA/NY_2731/IMG_10_2731.jpg""]","5","","","","","","3","","4","[""./rc_img/cop_condGroup_8_SafeStreets_autoscaled.png"",""./rc_img/cop_condGroup_8_CommunitySafety_autoscaled.png""]","3","",""
"sliderTrial","html-slider-response","53","215848","0.0-53.0","","656776a7904ae00d6b91d1dd","6568ae2f2909018e0e20ca33","11","","","","","","","","","","","","1380","[""SV_PolicingMSA/NY_2731/IMG_2_2731.jpg"",""SV_PolicingMSA/NY_2731/IMG_9_2731.jpg"",""SV_PolicingMSA/NY_2731/IMG_3_2731.jpg"",""SV_PolicingMSA/NY_2731/IMG_11_2731.jpg"",""SV_PolicingMSA/NY_2731/IMG_5_2731.jpg"",""SV_PolicingMSA/NY_2731/IMG_8_2731.jpg"",""SV_PolicingMSA/NY_2731/IMG_12_2731.jpg"",""SV_PolicingMSA/NY_2731/IMG_10_2731.jpg""]","4","","","","","","3","","4","[""./rc_img/cop_condGroup_5_SafeStreets_autoscaled.png"",""./rc_img/cop_condGroup_5_CommunitySafety_autoscaled.png""]","4","",""
"sliderTrial","html-slider-response","54","216963","0.0-54.0","","656776a7904ae00d6b91d1dd","6568ae2f2909018e0e20ca33","11","","","","","","","","","","","","1113","[""SV_PolicingMSA/NY_2731/IMG_2_2731.jpg"",""SV_PolicingMSA/NY_2731/IMG_9_2731.jpg"",""SV_PolicingMSA/NY_2731/IMG_3_2731.jpg"",""SV_PolicingMSA/NY_2731/IMG_11_2731.jpg"",""SV_PolicingMSA/NY_2731/IMG_5_2731.jpg"",""SV_PolicingMSA/NY_2731/IMG_8_2731.jpg"",""SV_PolicingMSA/NY_2731/IMG_12_2731.jpg"",""SV_PolicingMSA/NY_2731/IMG_10_2731.jpg""]","4","","","","","","3","","4","[""./rc_img/cop_condGroup_17_CommunitySafety_autoscaled.png"",""./rc_img/cop_condGroup_17_SafeStreets_autoscaled.png""]","4","",""
"sliderTrial","html-slider-response","55","218282","0.0-55.0","","656776a7904ae00d6b91d1dd","6568ae2f2909018e0e20ca33","11","","","","","","","","","","","","1318","[""SV_PolicingMSA/NY_2731/IMG_2_2731.jpg"",""SV_PolicingMSA/NY_2731/IMG_9_2731.jpg"",""SV_PolicingMSA/NY_2731/IMG_3_2731.jpg"",""SV_PolicingMSA/NY_2731/IMG_11_2731.jpg"",""SV_PolicingMSA/NY_2731/IMG_5_2731.jpg"",""SV_PolicingMSA/NY_2731/IMG_8_2731.jpg"",""SV_PolicingMSA/NY_2731/IMG_12_2731.jpg"",""SV_PolicingMSA/NY_2731/IMG_10_2731.jpg""]","4","","","","","","3","","4","[""./rc_img/cop_condGroup_19_SafeStreets_autoscaled.png"",""./rc_img/cop_condGroup_19_CommunitySafety_autoscaled.png""]","4","",""
"sliderTrial","html-slider-response","56","220098","0.0-56.0","","656776a7904ae00d6b91d1dd","6568ae2f2909018e0e20ca33","11","","","","","","","","","","","","1813","[""SV_PolicingMSA/NY_2731/IMG_2_2731.jpg"",""SV_PolicingMSA/NY_2731/IMG_9_2731.jpg"",""SV_PolicingMSA/NY_2731/IMG_3_2731.jpg"",""SV_PolicingMSA/NY_2731/IMG_11_2731.jpg"",""SV_PolicingMSA/NY_2731/IMG_5_2731.jpg"",""SV_PolicingMSA/NY_2731/IMG_8_2731.jpg"",""SV_PolicingMSA/NY_2731/IMG_12_2731.jpg"",""SV_PolicingMSA/NY_2731/IMG_10_2731.jpg""]","3","","","","","","3","","4","[""./rc_img/cop_condGroup_4_CommunitySafety_autoscaled.png"",""./rc_img/cop_condGroup_4_SafeStreets_autoscaled.png""]","3","",""
"before_SVSlide_prompt","html-button-response","57","221098","0.0-57.0","","656776a7904ae00d6b91d1dd","6568ae2f2909018e0e20ca33","11","","","","","","","","","","","","998","Click [Next] to see the next neighborhood!","0","","","","","","","","","","","",""
"street view slide show","image-button-response","58","222106","0.0-58.0","","656776a7904ae00d6b91d1dd","6568ae2f2909018e0e20ca33","11","","","","","","","","","","","","null","stimulus/SV_PolicingMSA/NJ_1052/IMG_10_1052.jpg","null","","","","","","3","","","","","",""
"street view slide show","image-button-response","59","223109","0.0-59.0","","656776a7904ae00d6b91d1dd","6568ae2f2909018e0e20ca33","11","","","","","","","","","","","","null","stimulus/SV_PolicingMSA/NJ_1052/IMG_13_1052.jpg","null","","","","","","3","","","","","",""
"street view slide show","image-button-response","60","224114","0.0-60.0","","656776a7904ae00d6b91d1dd","6568ae2f2909018e0e20ca33","11","","","","","","","","","","","","null","stimulus/SV_PolicingMSA/NJ_1052/IMG_5_1052.jpg","null","","","","","","3","","","","","",""
"street view slide show","image-button-response","61","225117","0.0-61.0","","656776a7904ae00d6b91d1dd","6568ae2f2909018e0e20ca33","11","","","","","","","","","","","","null","stimulus/SV_PolicingMSA/NJ_1052/IMG_11_1052.jpg","null","","","","","","3","","","","","",""
"street view slide show","image-button-response","62","226124","0.0-62.0","","656776a7904ae00d6b91d1dd","6568ae2f2909018e0e20ca33","11","","","","","","","","","","","","null","stimulus/SV_PolicingMSA/NJ_1052/IMG_12_1052.jpg","null","","","","","","3","","","","","",""
"street view slide show","image-button-response","63","227127","0.0-63.0","","656776a7904ae00d6b91d1dd","6568ae2f2909018e0e20ca33","11","","","","","","","","","","","","null","stimulus/SV_PolicingMSA/NJ_1052/IMG_4_1052.jpg","null","","","","","","3","","","","","",""
"street view slide show","image-button-response","64","228132","0.0-64.0","","656776a7904ae00d6b91d1dd","6568ae2f2909018e0e20ca33","11","","","","","","","","","","","","null","stimulus/SV_PolicingMSA/NJ_1052/IMG_3_1052.jpg","null","","","","","","3","","","","","",""
"street view slide show","image-button-response","65","229135","0.0-65.0","","656776a7904ae00d6b91d1dd","6568ae2f2909018e0e20ca33","11","","","","","","","","","","","","null","stimulus/SV_PolicingMSA/NJ_1052/IMG_0_1052.jpg","null","","","","","","3","","","","","",""
"dot matrix survey1","survey","66","247378","0.0-66.0","","656776a7904ae00d6b91d1dd","6568ae2f2909018e0e20ca33","11","","","","","","","","","","","","18229","","{""P0_Q0"":null,""P0_Q1"":{""wealthy"":4,""safe"":4,""walkable"":2,""traditional"":4,""diverse"":1}}","","","","","","3","[]","","","","",""
"dot matrix survey2","survey","67","254611","0.0-67.0","","656776a7904ae00d6b91d1dd","6568ae2f2909018e0e20ca33","11","","","","","","","","","","","","7226","","{""P0_Q0"":null,""P0_Q1"":{""violence"":1,""crime"":1,""drug"":3,""schools"":4,""opportunities"":4}}","","","","","","3","[]","","","","",""
"dot matrix survey3","survey","68","266508","0.0-68.0","","656776a7904ae00d6b91d1dd","6568ae2f2909018e0e20ca33","11","","","","","","","","","","","","11890","","{""P0_Q0"":null,""P0_Q1"":{""movein"":3,""moveout"":1,""shopping"":0,""walk"":4,""park"":3,""school"":4}}","","","","","","3","[]","","","","",""
"sliderTrial","html-slider-response","69","269931","0.0-69.0","","656776a7904ae00d6b91d1dd","6568ae2f2909018e0e20ca33","11","","","","","","","","","","","","3421","[""SV_PolicingMSA/NJ_1052/IMG_10_1052.jpg"",""SV_PolicingMSA/NJ_1052/IMG_13_1052.jpg"",""SV_PolicingMSA/NJ_1052/IMG_5_1052.jpg"",""SV_PolicingMSA/NJ_1052/IMG_11_1052.jpg"",""SV_PolicingMSA/NJ_1052/IMG_12_1052.jpg"",""SV_PolicingMSA/NJ_1052/IMG_4_1052.jpg"",""SV_PolicingMSA/NJ_1052/IMG_3_1052.jpg"",""SV_PolicingMSA/NJ_1052/IMG_0_1052.jpg""]","3","","","","","","3","","4","[""./rc_img/cop_condGroup_2_CommunitySafety_autoscaled.png"",""./rc_img/cop_condGroup_2_SafeStreets_autoscaled.png""]","3","",""
"sliderTrial","html-slider-response","70","271315","0.0-70.0","","656776a7904ae00d6b91d1dd","6568ae2f2909018e0e20ca33","11","","","","","","","","","","","","1382","[""SV_PolicingMSA/NJ_1052/IMG_10_1052.jpg"",""SV_PolicingMSA/NJ_1052/IMG_13_1052.jpg"",""SV_PolicingMSA/NJ_1052/IMG_5_1052.jpg"",""SV_PolicingMSA/NJ_1052/IMG_11_1052.jpg"",""SV_PolicingMSA/NJ_1052/IMG_12_1052.jpg"",""SV_PolicingMSA/NJ_1052/IMG_4_1052.jpg"",""SV_PolicingMSA/NJ_1052/IMG_3_1052.jpg"",""SV_PolicingMSA/NJ_1052/IMG_0_1052.jpg""]","4","","","","","","3","","4","[""./rc_img/cop_condGroup_9_SafeStreets_autoscaled.png"",""./rc_img/cop_condGroup_9_CommunitySafety_autoscaled.png""]","4","",""
"sliderTrial","html-slider-response","71","272715","0.0-71.0","","656776a7904ae00d6b91d1dd","6568ae2f2909018e0e20ca33","11","","","","","","","","","","","","1397","[""SV_PolicingMSA/NJ_1052/IMG_10_1052.jpg"",""SV_PolicingMSA/NJ_1052/IMG_13_1052.jpg"",""SV_PolicingMSA/NJ_1052/IMG_5_1052.jpg"",""SV_PolicingMSA/NJ_1052/IMG_11_1052.jpg"",""SV_PolicingMSA/NJ_1052/IMG_12_1052.jpg"",""SV_PolicingMSA/NJ_1052/IMG_4_1052.jpg"",""SV_PolicingMSA/NJ_1052/IMG_3_1052.jpg"",""SV_PolicingMSA/NJ_1052/IMG_0_1052.jpg""]","4","","","","","","3","","4","[""./rc_img/cop_condGroup_12_CommunitySafety_autoscaled.png"",""./rc_img/cop_condGroup_12_SafeStreets_autoscaled.png""]","4","",""
"sliderTrial","html-slider-response","72","273565","0.0-72.0","","656776a7904ae00d6b91d1dd","6568ae2f2909018e0e20ca33","11","","","","","","","","","","","","848","[""SV_PolicingMSA/NJ_1052/IMG_10_1052.jpg"",""SV_PolicingMSA/NJ_1052/IMG_13_1052.jpg"",""SV_PolicingMSA/NJ_1052/IMG_5_1052.jpg"",""SV_PolicingMSA/NJ_1052/IMG_11_1052.jpg"",""SV_PolicingMSA/NJ_1052/IMG_12_1052.jpg"",""SV_PolicingMSA/NJ_1052/IMG_4_1052.jpg"",""SV_PolicingMSA/NJ_1052/IMG_3_1052.jpg"",""SV_PolicingMSA/NJ_1052/IMG_0_1052.jpg""]","4","","","","","","3","","4","[""./rc_img/cop_condGroup_15_SafeStreets_autoscaled.png"",""./rc_img/cop_condGroup_15_CommunitySafety_autoscaled.png""]","4","",""
"sliderTrial","html-slider-response","73","274899","0.0-73.0","","656776a7904ae00d6b91d1dd","6568ae2f2909018e0e20ca33","11","","","","","","","","","","","","1331","[""SV_PolicingMSA/NJ_1052/IMG_10_1052.jpg"",""SV_PolicingMSA/NJ_1052/IMG_13_1052.jpg"",""SV_PolicingMSA/NJ_1052/IMG_5_1052.jpg"",""SV_PolicingMSA/NJ_1052/IMG_11_1052.jpg"",""SV_PolicingMSA/NJ_1052/IMG_12_1052.jpg"",""SV_PolicingMSA/NJ_1052/IMG_4_1052.jpg"",""SV_PolicingMSA/NJ_1052/IMG_3_1052.jpg"",""SV_PolicingMSA/NJ_1052/IMG_0_1052.jpg""]","4","","","","","","3","","4","[""./rc_img/cop_condGroup_20_SafeStreets_autoscaled.png"",""./rc_img/cop_condGroup_20_CommunitySafety_autoscaled.png""]","4","",""
"half-way","html-button-response","74","290652","0.0-74.0","","656776a7904ae00d6b91d1dd","6568ae2f2909018e0e20ca33","11","","","","","","","","","","","","null","
    <h3>You are now half way through the study.</h3>
    <p>Please take a quick, 15-second break before you continue.</p>
    <img src='assets/img/countdown-15.gif'>
    <p>The study will automatically advance forward after the countdown is complete. <br> However, you may click ""Next"" to advance forward now if you wish.</p>
    ","null","","","","","","","","","","","",""
"before_SVSlide_prompt","html-button-response","75","293915","0.0-75.0","","656776a7904ae00d6b91d1dd","6568ae2f2909018e0e20ca33","11","","","","","","","","","","","","3261","Click [Next] to see the next neighborhood!","0","","","","","","","","","","","",""
"street view slide show","image-button-response","76","294917","0.0-76.0","","656776a7904ae00d6b91d1dd","6568ae2f2909018e0e20ca33","11","","","","","","","","","","","","null","stimulus/SV_PolicingMSA/NJ_979/IMG_2_979.jpg","null","","","","","","0","","","","","",""
"street view slide show","image-button-response","77","295919","0.0-77.0","","656776a7904ae00d6b91d1dd","6568ae2f2909018e0e20ca33","11","","","","","","","","","","","","null","stimulus/SV_PolicingMSA/NJ_979/IMG_1_979.jpg","null","","","","","","0","","","","","",""
"street view slide show","image-button-response","78","296922","0.0-78.0","","656776a7904ae00d6b91d1dd","6568ae2f2909018e0e20ca33","11","","","","","","","","","","","","null","stimulus/SV_PolicingMSA/NJ_979/IMG_3_979.jpg","null","","","","","","0","","","","","",""
"street view slide show","image-button-response","79","297926","0.0-79.0","","656776a7904ae00d6b91d1dd","6568ae2f2909018e0e20ca33","11","","","","","","","","","","","","null","stimulus/SV_PolicingMSA/NJ_979/IMG_10_979.jpg","null","","","","","","0","","","","","",""
"street view slide show","image-button-response","80","298929","0.0-80.0","","656776a7904ae00d6b91d1dd","6568ae2f2909018e0e20ca33","11","","","","","","","","","","","","null","stimulus/SV_PolicingMSA/NJ_979/IMG_8_979.jpg","null","","","","","","0","","","","","",""
"street view slide show","image-button-response","81","299931","0.0-81.0","","656776a7904ae00d6b91d1dd","6568ae2f2909018e0e20ca33","11","","","","","","","","","","","","null","stimulus/SV_PolicingMSA/NJ_979/IMG_13_979.jpg","null","","","","","","0","","","","","",""
"street view slide show","image-button-response","82","300934","0.0-82.0","","656776a7904ae00d6b91d1dd","6568ae2f2909018e0e20ca33","11","","","","","","","","","","","","null","stimulus/SV_PolicingMSA/NJ_979/IMG_7_979.jpg","null","","","","","","0","","","","","",""
"street view slide show","image-button-response","83","301941","0.0-83.0","","656776a7904ae00d6b91d1dd","6568ae2f2909018e0e20ca33","11","","","","","","","","","","","","null","stimulus/SV_PolicingMSA/NJ_979/IMG_12_979.jpg","null","","","","","","0","","","","","",""
"dot matrix survey1","survey","84","324241","0.0-84.0","","656776a7904ae00d6b91d1dd","6568ae2f2909018e0e20ca33","11","","","","","","","","","","","","22284","","{""P0_Q0"":null,""P0_Q1"":{""wealthy"":3,""safe"":3,""walkable"":1,""traditional"":2,""diverse"":2}}","","","","","","0","[]","","","","",""
"dot matrix survey2","survey","85","330420","0.0-85.0","","656776a7904ae00d6b91d1dd","6568ae2f2909018e0e20ca33","11","","","","","","","","","","","","6173","","{""P0_Q0"":null,""P0_Q1"":{""violence"":2,""crime"":2,""drug"":2,""schools"":1,""opportunities"":2}}","","","","","","0","[]","","","","",""
"dot matrix survey3","survey","86","339658","0.0-86.0","","656776a7904ae00d6b91d1dd","6568ae2f2909018e0e20ca33","11","","","","","","","","","","","","9232","","{""P0_Q0"":null,""P0_Q1"":{""movein"":1,""moveout"":3,""shopping"":2,""walk"":3,""park"":3,""school"":3}}","","","","","","0","[]","","","","",""
"sliderTrial_attention","html-slider-response","87","349664","0.0-87.0","","656776a7904ae00d6b91d1dd","6568ae2f2909018e0e20ca33","11","","","","","","","","","","","","null","[""SV_PolicingMSA/NJ_979/IMG_2_979.jpg"",""SV_PolicingMSA/NJ_979/IMG_1_979.jpg"",""SV_PolicingMSA/NJ_979/IMG_3_979.jpg"",""SV_PolicingMSA/NJ_979/IMG_10_979.jpg"",""SV_PolicingMSA/NJ_979/IMG_8_979.jpg"",""SV_PolicingMSA/NJ_979/IMG_13_979.jpg"",""SV_PolicingMSA/NJ_979/IMG_7_979.jpg"",""SV_PolicingMSA/NJ_979/IMG_12_979.jpg""]","null","","","","","","0","","4","[""./assets/img/attnchk.png"",""./assets/img/attnchk.png""]","","true",""
"sliderTrial","html-slider-response","88","354216","0.0-88.0","","656776a7904ae00d6b91d1dd","6568ae2f2909018e0e20ca33","11","","","","","","","","","","","","4548","[""SV_PolicingMSA/NJ_979/IMG_2_979.jpg"",""SV_PolicingMSA/NJ_979/IMG_1_979.jpg"",""SV_PolicingMSA/NJ_979/IMG_3_979.jpg"",""SV_PolicingMSA/NJ_979/IMG_10_979.jpg"",""SV_PolicingMSA/NJ_979/IMG_8_979.jpg"",""SV_PolicingMSA/NJ_979/IMG_13_979.jpg"",""SV_PolicingMSA/NJ_979/IMG_7_979.jpg"",""SV_PolicingMSA/NJ_979/IMG_12_979.jpg""]","4","","","","","","0","","4","[""./rc_img/cop_condGroup_1_SafeStreets_autoscaled.png"",""./rc_img/cop_condGroup_1_CommunitySafety_autoscaled.png""]","4","",""
"sliderTrial","html-slider-response","89","356532","0.0-89.0","","656776a7904ae00d6b91d1dd","6568ae2f2909018e0e20ca33","11","","","","","","","","","","","","2312","[""SV_PolicingMSA/NJ_979/IMG_2_979.jpg"",""SV_PolicingMSA/NJ_979/IMG_1_979.jpg"",""SV_PolicingMSA/NJ_979/IMG_3_979.jpg"",""SV_PolicingMSA/NJ_979/IMG_10_979.jpg"",""SV_PolicingMSA/NJ_979/IMG_8_979.jpg"",""SV_PolicingMSA/NJ_979/IMG_13_979.jpg"",""SV_PolicingMSA/NJ_979/IMG_7_979.jpg"",""SV_PolicingMSA/NJ_979/IMG_12_979.jpg""]","3","","","","","","0","","4","[""./rc_img/cop_condGroup_10_CommunitySafety_autoscaled.png"",""./rc_img/cop_condGroup_10_SafeStreets_autoscaled.png""]","3","",""
"sliderTrial","html-slider-response","90","358481","0.0-90.0","","656776a7904ae00d6b91d1dd","6568ae2f2909018e0e20ca33","11","","","","","","","","","","","","1946","[""SV_PolicingMSA/NJ_979/IMG_2_979.jpg"",""SV_PolicingMSA/NJ_979/IMG_1_979.jpg"",""SV_PolicingMSA/NJ_979/IMG_3_979.jpg"",""SV_PolicingMSA/NJ_979/IMG_10_979.jpg"",""SV_PolicingMSA/NJ_979/IMG_8_979.jpg"",""SV_PolicingMSA/NJ_979/IMG_13_979.jpg"",""SV_PolicingMSA/NJ_979/IMG_7_979.jpg"",""SV_PolicingMSA/NJ_979/IMG_12_979.jpg""]","5","","","","","","0","","4","[""./rc_img/cop_condGroup_14_SafeStreets_autoscaled.png"",""./rc_img/cop_condGroup_14_CommunitySafety_autoscaled.png""]","3","",""
"sliderTrial","html-slider-response","91","360697","0.0-91.0","","656776a7904ae00d6b91d1dd","6568ae2f2909018e0e20ca33","11","","","","","","","","","","","","2214","[""SV_PolicingMSA/NJ_979/IMG_2_979.jpg"",""SV_PolicingMSA/NJ_979/IMG_1_979.jpg"",""SV_PolicingMSA/NJ_979/IMG_3_979.jpg"",""SV_PolicingMSA/NJ_979/IMG_10_979.jpg"",""SV_PolicingMSA/NJ_979/IMG_8_979.jpg"",""SV_PolicingMSA/NJ_979/IMG_13_979.jpg"",""SV_PolicingMSA/NJ_979/IMG_7_979.jpg"",""SV_PolicingMSA/NJ_979/IMG_12_979.jpg""]","5","","","","","","0","","4","[""./rc_img/cop_condGroup_18_SafeStreets_autoscaled.png"",""./rc_img/cop_condGroup_18_CommunitySafety_autoscaled.png""]","3","",""
"sliderTrial","html-slider-response","92","362979","0.0-92.0","","656776a7904ae00d6b91d1dd","6568ae2f2909018e0e20ca33","11","","","","","","","","","","","","2279","[""SV_PolicingMSA/NJ_979/IMG_2_979.jpg"",""SV_PolicingMSA/NJ_979/IMG_1_979.jpg"",""SV_PolicingMSA/NJ_979/IMG_3_979.jpg"",""SV_PolicingMSA/NJ_979/IMG_10_979.jpg"",""SV_PolicingMSA/NJ_979/IMG_8_979.jpg"",""SV_PolicingMSA/NJ_979/IMG_13_979.jpg"",""SV_PolicingMSA/NJ_979/IMG_7_979.jpg"",""SV_PolicingMSA/NJ_979/IMG_12_979.jpg""]","5","","","","","","0","","4","[""./rc_img/cop_condGroup_16_SafeStreets_autoscaled.png"",""./rc_img/cop_condGroup_16_CommunitySafety_autoscaled.png""]","3","",""
"before_SVSlide_prompt","html-button-response","93","364015","0.0-93.0","","656776a7904ae00d6b91d1dd","6568ae2f2909018e0e20ca33","11","","","","","","","","","","","","1035","Click [Next] to see the next neighborhood!","0","","","","","","","","","","","",""
"street view slide show","image-button-response","94","365018","0.0-94.0","","656776a7904ae00d6b91d1dd","6568ae2f2909018e0e20ca33","11","","","","","","","","","","","","null","stimulus/SV_PolicingMSA/NJ_1880/IMG_10_1880.jpg","null","","","","","","2","","","","","",""
"street view slide show","image-button-response","95","366020","0.0-95.0","","656776a7904ae00d6b91d1dd","6568ae2f2909018e0e20ca33","11","","","","","","","","","","","","null","stimulus/SV_PolicingMSA/NJ_1880/IMG_12_1880.jpg","null","","","","","","2","","","","","",""
"street view slide show","image-button-response","96","367025","0.0-96.0","","656776a7904ae00d6b91d1dd","6568ae2f2909018e0e20ca33","11","","","","","","","","","","","","null","stimulus/SV_PolicingMSA/NJ_1880/IMG_3_1880.jpg","null","","","","","","2","","","","","",""
"street view slide show","image-button-response","97","368029","0.0-97.0","","656776a7904ae00d6b91d1dd","6568ae2f2909018e0e20ca33","11","","","","","","","","","","","","null","stimulus/SV_PolicingMSA/NJ_1880/IMG_2_1880.jpg","null","","","","","","2","","","","","",""
"street view slide show","image-button-response","98","369035","0.0-98.0","","656776a7904ae00d6b91d1dd","6568ae2f2909018e0e20ca33","11","","","","","","","","","","","","null","stimulus/SV_PolicingMSA/NJ_1880/IMG_8_1880.jpg","null","","","","","","2","","","","","",""
"street view slide show","image-button-response","99","370037","0.0-99.0","","656776a7904ae00d6b91d1dd","6568ae2f2909018e0e20ca33","11","","","","","","","","","","","","null","stimulus/SV_PolicingMSA/NJ_1880/IMG_13_1880.jpg","null","","","","","","2","","","","","",""
"street view slide show","image-button-response","100","371044","0.0-100.0","","656776a7904ae00d6b91d1dd","6568ae2f2909018e0e20ca33","11","","","","","","","","","","","","null","stimulus/SV_PolicingMSA/NJ_1880/IMG_6_1880.jpg","null","","","","","","2","","","","","",""
"street view slide show","image-button-response","101","372048","0.0-101.0","","656776a7904ae00d6b91d1dd","6568ae2f2909018e0e20ca33","11","","","","","","","","","","","","null","stimulus/SV_PolicingMSA/NJ_1880/IMG_11_1880.jpg","null","","","","","","2","","","","","",""
"dot matrix survey1","survey","102","382028","0.0-102.0","","656776a7904ae00d6b91d1dd","6568ae2f2909018e0e20ca33","11","","","","","","","","","","","","9967","","{""P0_Q0"":null,""P0_Q1"":{""wealthy"":4,""safe"":4,""walkable"":3,""traditional"":3,""diverse"":1}}","","","","","","2","[]","","","","",""
"dot matrix survey2","survey","103","392243","0.0-103.0","","656776a7904ae00d6b91d1dd","6568ae2f2909018e0e20ca33","11","","","","","","","","","","","","10209","","{""P0_Q0"":null,""P0_Q1"":{""violence"":1,""crime"":1,""drug"":3,""schools"":4,""opportunities"":4}}","","","","","","2","[]","","","","",""
"dot matrix survey3","survey","104","403393","0.0-104.0","","656776a7904ae00d6b91d1dd","6568ae2f2909018e0e20ca33","11","","","","","","","","","","","","11144","","{""P0_Q0"":null,""P0_Q1"":{""movein"":3,""moveout"":1,""shopping"":0,""walk"":4,""park"":4,""school"":4}}","","","","","","2","[]","","","","",""
"sliderTrial","html-slider-response","105","406049","0.0-105.0","","656776a7904ae00d6b91d1dd","6568ae2f2909018e0e20ca33","11","","","","","","","","","","","","2654","[""SV_PolicingMSA/NJ_1880/IMG_10_1880.jpg"",""SV_PolicingMSA/NJ_1880/IMG_12_1880.jpg"",""SV_PolicingMSA/NJ_1880/IMG_3_1880.jpg"",""SV_PolicingMSA/NJ_1880/IMG_2_1880.jpg"",""SV_PolicingMSA/NJ_1880/IMG_8_1880.jpg"",""SV_PolicingMSA/NJ_1880/IMG_13_1880.jpg"",""SV_PolicingMSA/NJ_1880/IMG_6_1880.jpg"",""SV_PolicingMSA/NJ_1880/IMG_11_1880.jpg""]","5","","","","","","2","","4","[""./rc_img/cop_condGroup_1_SafeStreets_autoscaled.png"",""./rc_img/cop_condGroup_1_CommunitySafety_autoscaled.png""]","3","",""
"sliderTrial","html-slider-response","106","407914","0.0-106.0","","656776a7904ae00d6b91d1dd","6568ae2f2909018e0e20ca33","11","","","","","","","","","","","","1862","[""SV_PolicingMSA/NJ_1880/IMG_10_1880.jpg"",""SV_PolicingMSA/NJ_1880/IMG_12_1880.jpg"",""SV_PolicingMSA/NJ_1880/IMG_3_1880.jpg"",""SV_PolicingMSA/NJ_1880/IMG_2_1880.jpg"",""SV_PolicingMSA/NJ_1880/IMG_8_1880.jpg"",""SV_PolicingMSA/NJ_1880/IMG_13_1880.jpg"",""SV_PolicingMSA/NJ_1880/IMG_6_1880.jpg"",""SV_PolicingMSA/NJ_1880/IMG_11_1880.jpg""]","3","","","","","","2","","4","[""./rc_img/cop_condGroup_10_CommunitySafety_autoscaled.png"",""./rc_img/cop_condGroup_10_SafeStreets_autoscaled.png""]","3","",""
"sliderTrial","html-slider-response","107","409132","0.0-107.0","","656776a7904ae00d6b91d1dd","6568ae2f2909018e0e20ca33","11","","","","","","","","","","","","1216","[""SV_PolicingMSA/NJ_1880/IMG_10_1880.jpg"",""SV_PolicingMSA/NJ_1880/IMG_12_1880.jpg"",""SV_PolicingMSA/NJ_1880/IMG_3_1880.jpg"",""SV_PolicingMSA/NJ_1880/IMG_2_1880.jpg"",""SV_PolicingMSA/NJ_1880/IMG_8_1880.jpg"",""SV_PolicingMSA/NJ_1880/IMG_13_1880.jpg"",""SV_PolicingMSA/NJ_1880/IMG_6_1880.jpg"",""SV_PolicingMSA/NJ_1880/IMG_11_1880.jpg""]","4","","","","","","2","","4","[""./rc_img/cop_condGroup_14_SafeStreets_autoscaled.png"",""./rc_img/cop_condGroup_14_CommunitySafety_autoscaled.png""]","4","",""
"sliderTrial","html-slider-response","108","410500","0.0-108.0","","656776a7904ae00d6b91d1dd","6568ae2f2909018e0e20ca33","11","","","","","","","","","","","","1366","[""SV_PolicingMSA/NJ_1880/IMG_10_1880.jpg"",""SV_PolicingMSA/NJ_1880/IMG_12_1880.jpg"",""SV_PolicingMSA/NJ_1880/IMG_3_1880.jpg"",""SV_PolicingMSA/NJ_1880/IMG_2_1880.jpg"",""SV_PolicingMSA/NJ_1880/IMG_8_1880.jpg"",""SV_PolicingMSA/NJ_1880/IMG_13_1880.jpg"",""SV_PolicingMSA/NJ_1880/IMG_6_1880.jpg"",""SV_PolicingMSA/NJ_1880/IMG_11_1880.jpg""]","4","","","","","","2","","4","[""./rc_img/cop_condGroup_18_SafeStreets_autoscaled.png"",""./rc_img/cop_condGroup_18_CommunitySafety_autoscaled.png""]","4","",""
"sliderTrial","html-slider-response","109","412732","0.0-109.0","","656776a7904ae00d6b91d1dd","6568ae2f2909018e0e20ca33","11","","","","","","","","","","","","2230","[""SV_PolicingMSA/NJ_1880/IMG_10_1880.jpg"",""SV_PolicingMSA/NJ_1880/IMG_12_1880.jpg"",""SV_PolicingMSA/NJ_1880/IMG_3_1880.jpg"",""SV_PolicingMSA/NJ_1880/IMG_2_1880.jpg"",""SV_PolicingMSA/NJ_1880/IMG_8_1880.jpg"",""SV_PolicingMSA/NJ_1880/IMG_13_1880.jpg"",""SV_PolicingMSA/NJ_1880/IMG_6_1880.jpg"",""SV_PolicingMSA/NJ_1880/IMG_11_1880.jpg""]","5","","","","","","2","","4","[""./rc_img/cop_condGroup_16_SafeStreets_autoscaled.png"",""./rc_img/cop_condGroup_16_CommunitySafety_autoscaled.png""]","3","",""
"before_SVSlide_prompt","html-button-response","110","413782","0.0-110.0","","656776a7904ae00d6b91d1dd","6568ae2f2909018e0e20ca33","11","","","","","","","","","","","","1049","Click [Next] to see the next neighborhood!","0","","","","","","","","","","","",""
"street view slide show","image-button-response","111","414786","0.0-111.0","","656776a7904ae00d6b91d1dd","6568ae2f2909018e0e20ca33","11","","","","","","","","","","","","null","stimulus/SV_PolicingMSA/NY_4752/IMG_2_4752.jpg","null","","","","","","5","","","","","",""
"street view slide show","image-button-response","112","415790","0.0-112.0","","656776a7904ae00d6b91d1dd","6568ae2f2909018e0e20ca33","11","","","","","","","","","","","","null","stimulus/SV_PolicingMSA/NY_4752/IMG_7_4752.jpg","null","","","","","","5","","","","","",""
"street view slide show","image-button-response","113","416793","0.0-113.0","","656776a7904ae00d6b91d1dd","6568ae2f2909018e0e20ca33","11","","","","","","","","","","","","null","stimulus/SV_PolicingMSA/NY_4752/IMG_12_4752.jpg","null","","","","","","5","","","","","",""
"street view slide show","image-button-response","114","417796","0.0-114.0","","656776a7904ae00d6b91d1dd","6568ae2f2909018e0e20ca33","11","","","","","","","","","","","","null","stimulus/SV_PolicingMSA/NY_4752/IMG_4_4752.jpg","null","","","","","","5","","","","","",""
"street view slide show","image-button-response","115","418800","0.0-115.0","","656776a7904ae00d6b91d1dd","6568ae2f2909018e0e20ca33","11","","","","","","","","","","","","null","stimulus/SV_PolicingMSA/NY_4752/IMG_9_4752.jpg","null","","","","","","5","","","","","",""
"street view slide show","image-button-response","116","419802","0.0-116.0","","656776a7904ae00d6b91d1dd","6568ae2f2909018e0e20ca33","11","","","","","","","","","","","","null","stimulus/SV_PolicingMSA/NY_4752/IMG_6_4752.jpg","null","","","","","","5","","","","","",""
"street view slide show","image-button-response","117","420809","0.0-117.0","","656776a7904ae00d6b91d1dd","6568ae2f2909018e0e20ca33","11","","","","","","","","","","","","null","stimulus/SV_PolicingMSA/NY_4752/IMG_3_4752.jpg","null","","","","","","5","","","","","",""
"street view slide show","image-button-response","118","421812","0.0-118.0","","656776a7904ae00d6b91d1dd","6568ae2f2909018e0e20ca33","11","","","","","","","","","","","","null","stimulus/SV_PolicingMSA/NY_4752/IMG_0_4752.jpg","null","","","","","","5","","","","","",""
"dot matrix survey1","survey","119","436343","0.0-119.0","","656776a7904ae00d6b91d1dd","6568ae2f2909018e0e20ca33","11","","","","","","","","","","","","14520","","{""P0_Q0"":null,""P0_Q1"":{""wealthy"":2,""safe"":3,""walkable"":3,""traditional"":2,""diverse"":3}}","","","","","","5","[]","","","","",""
"dot matrix survey2","survey","120","447061","0.0-120.0","","656776a7904ae00d6b91d1dd","6568ae2f2909018e0e20ca33","11","","","","","","","","","","","","10711","","{""P0_Q0"":null,""P0_Q1"":{""violence"":2,""crime"":3,""drug"":2,""schools"":2,""opportunities"":2}}","","","","","","5","[]","","","","",""
"dot matrix survey3","survey","121","460092","0.0-121.0","","656776a7904ae00d6b91d1dd","6568ae2f2909018e0e20ca33","11","","","","","","","","","","","","13024","","{""P0_Q0"":null,""P0_Q1"":{""movein"":2,""moveout"":2,""shopping"":1,""walk"":1,""park"":1,""school"":1}}","","","","","","5","[]","","","","",""
"sliderTrial","html-slider-response","122","463497","0.0-122.0","","656776a7904ae00d6b91d1dd","6568ae2f2909018e0e20ca33","11","","","","","","","","","","","","3403","[""SV_PolicingMSA/NY_4752/IMG_2_4752.jpg"",""SV_PolicingMSA/NY_4752/IMG_7_4752.jpg"",""SV_PolicingMSA/NY_4752/IMG_12_4752.jpg"",""SV_PolicingMSA/NY_4752/IMG_4_4752.jpg"",""SV_PolicingMSA/NY_4752/IMG_9_4752.jpg"",""SV_PolicingMSA/NY_4752/IMG_6_4752.jpg"",""SV_PolicingMSA/NY_4752/IMG_3_4752.jpg"",""SV_PolicingMSA/NY_4752/IMG_0_4752.jpg""]","5","","","","","","5","","4","[""./rc_img/cop_condGroup_8_SafeStreets_autoscaled.png"",""./rc_img/cop_condGroup_8_CommunitySafety_autoscaled.png""]","3","",""
"sliderTrial","html-slider-response","123","466000","0.0-123.0","","656776a7904ae00d6b91d1dd","6568ae2f2909018e0e20ca33","11","","","","","","","","","","","","2502","[""SV_PolicingMSA/NY_4752/IMG_2_4752.jpg"",""SV_PolicingMSA/NY_4752/IMG_7_4752.jpg"",""SV_PolicingMSA/NY_4752/IMG_12_4752.jpg"",""SV_PolicingMSA/NY_4752/IMG_4_4752.jpg"",""SV_PolicingMSA/NY_4752/IMG_9_4752.jpg"",""SV_PolicingMSA/NY_4752/IMG_6_4752.jpg"",""SV_PolicingMSA/NY_4752/IMG_3_4752.jpg"",""SV_PolicingMSA/NY_4752/IMG_0_4752.jpg""]","5","","","","","","5","","4","[""./rc_img/cop_condGroup_5_SafeStreets_autoscaled.png"",""./rc_img/cop_condGroup_5_CommunitySafety_autoscaled.png""]","3","",""
"sliderTrial","html-slider-response","124","467848","0.0-124.0","","656776a7904ae00d6b91d1dd","6568ae2f2909018e0e20ca33","11","","","","","","","","","","","","1846","[""SV_PolicingMSA/NY_4752/IMG_2_4752.jpg"",""SV_PolicingMSA/NY_4752/IMG_7_4752.jpg"",""SV_PolicingMSA/NY_4752/IMG_12_4752.jpg"",""SV_PolicingMSA/NY_4752/IMG_4_4752.jpg"",""SV_PolicingMSA/NY_4752/IMG_9_4752.jpg"",""SV_PolicingMSA/NY_4752/IMG_6_4752.jpg"",""SV_PolicingMSA/NY_4752/IMG_3_4752.jpg"",""SV_PolicingMSA/NY_4752/IMG_0_4752.jpg""]","4","","","","","","5","","4","[""./rc_img/cop_condGroup_17_CommunitySafety_autoscaled.png"",""./rc_img/cop_condGroup_17_SafeStreets_autoscaled.png""]","4","",""
"sliderTrial","html-slider-response","125","468866","0.0-125.0","","656776a7904ae00d6b91d1dd","6568ae2f2909018e0e20ca33","11","","","","","","","","","","","","1016","[""SV_PolicingMSA/NY_4752/IMG_2_4752.jpg"",""SV_PolicingMSA/NY_4752/IMG_7_4752.jpg"",""SV_PolicingMSA/NY_4752/IMG_12_4752.jpg"",""SV_PolicingMSA/NY_4752/IMG_4_4752.jpg"",""SV_PolicingMSA/NY_4752/IMG_9_4752.jpg"",""SV_PolicingMSA/NY_4752/IMG_6_4752.jpg"",""SV_PolicingMSA/NY_4752/IMG_3_4752.jpg"",""SV_PolicingMSA/NY_4752/IMG_0_4752.jpg""]","4","","","","","","5","","4","[""./rc_img/cop_condGroup_19_SafeStreets_autoscaled.png"",""./rc_img/cop_condGroup_19_CommunitySafety_autoscaled.png""]","4","",""
"sliderTrial","html-slider-response","126","470632","0.0-126.0","","656776a7904ae00d6b91d1dd","6568ae2f2909018e0e20ca33","11","","","","","","","","","","","","1763","[""SV_PolicingMSA/NY_4752/IMG_2_4752.jpg"",""SV_PolicingMSA/NY_4752/IMG_7_4752.jpg"",""SV_PolicingMSA/NY_4752/IMG_12_4752.jpg"",""SV_PolicingMSA/NY_4752/IMG_4_4752.jpg"",""SV_PolicingMSA/NY_4752/IMG_9_4752.jpg"",""SV_PolicingMSA/NY_4752/IMG_6_4752.jpg"",""SV_PolicingMSA/NY_4752/IMG_3_4752.jpg"",""SV_PolicingMSA/NY_4752/IMG_0_4752.jpg""]","3","","","","","","5","","4","[""./rc_img/cop_condGroup_4_CommunitySafety_autoscaled.png"",""./rc_img/cop_condGroup_4_SafeStreets_autoscaled.png""]","3","",""
"before_SVSlide_prompt","html-button-response","127","471466","0.0-127.0","","656776a7904ae00d6b91d1dd","6568ae2f2909018e0e20ca33","11","","","","","","","","","","","","832","Click [Next] to see the next neighborhood!","0","","","","","","","","","","","",""
"street view slide show","image-button-response","128","472473","0.0-128.0","","656776a7904ae00d6b91d1dd","6568ae2f2909018e0e20ca33","11","","","","","","","","","","","","null","stimulus/SV_PolicingMSA/NY_5249/IMG_1_5249.jpg","null","","","","","","1","","","","","",""
"street view slide show","image-button-response","129","473477","0.0-129.0","","656776a7904ae00d6b91d1dd","6568ae2f2909018e0e20ca33","11","","","","","","","","","","","","null","stimulus/SV_PolicingMSA/NY_5249/IMG_7_5249.jpg","null","","","","","","1","","","","","",""
"street view slide show","image-button-response","130","474480","0.0-130.0","","656776a7904ae00d6b91d1dd","6568ae2f2909018e0e20ca33","11","","","","","","","","","","","","null","stimulus/SV_PolicingMSA/NY_5249/IMG_8_5249.jpg","null","","","","","","1","","","","","",""
"street view slide show","image-button-response","131","475484","0.0-131.0","","656776a7904ae00d6b91d1dd","6568ae2f2909018e0e20ca33","11","","","","","","","","","","","","null","stimulus/SV_PolicingMSA/NY_5249/IMG_11_5249.jpg","null","","","","","","1","","","","","",""
"street view slide show","image-button-response","132","476492","0.0-132.0","","656776a7904ae00d6b91d1dd","6568ae2f2909018e0e20ca33","11","","","","","","","","","","","","null","stimulus/SV_PolicingMSA/NY_5249/IMG_10_5249.jpg","null","","","","","","1","","","","","",""
"street view slide show","image-button-response","133","477496","0.0-133.0","","656776a7904ae00d6b91d1dd","6568ae2f2909018e0e20ca33","11","","","","","","","","","","","","null","stimulus/SV_PolicingMSA/NY_5249/IMG_0_5249.jpg","null","","","","","","1","","","","","",""
"street view slide show","image-button-response","134","478502","0.0-134.0","","656776a7904ae00d6b91d1dd","6568ae2f2909018e0e20ca33","11","","","","","","","","","","","","null","stimulus/SV_PolicingMSA/NY_5249/IMG_4_5249.jpg","null","","","","","","1","","","","","",""
"street view slide show","image-button-response","135","479505","0.0-135.0","","656776a7904ae00d6b91d1dd","6568ae2f2909018e0e20ca33","11","","","","","","","","","","","","null","stimulus/SV_PolicingMSA/NY_5249/IMG_9_5249.jpg","null","","","","","","1","","","","","",""
"dot matrix survey1","survey","136","491103","0.0-136.0","","656776a7904ae00d6b91d1dd","6568ae2f2909018e0e20ca33","11","","","","","","","","","","","","11587","","{""P0_Q0"":null,""P0_Q1"":{""wealthy"":3,""safe"":4,""walkable"":4,""traditional"":3,""diverse"":4}}","","","","","","1","[]","","","","",""
"dot matrix survey2","survey","137","501357","0.0-137.0","","656776a7904ae00d6b91d1dd","6568ae2f2909018e0e20ca33","11","","","","","","","","","","","","10249","","{""P0_Q0"":null,""P0_Q1"":{""violence"":2,""crime"":1,""drug"":2,""schools"":3,""opportunities"":3}}","","","","","","1","[]","","","","",""
"dot matrix survey3","survey","138","512758","0.0-138.0","","656776a7904ae00d6b91d1dd","6568ae2f2909018e0e20ca33","11","","","","","","","","","","","","11395","","{""P0_Q0"":null,""P0_Q1"":{""movein"":4,""moveout"":1,""shopping"":3,""walk"":3,""park"":3,""school"":3}}","","","","","","1","[]","","","","",""
"sliderTrial_attention","html-slider-response","139","522765","0.0-139.0","","656776a7904ae00d6b91d1dd","6568ae2f2909018e0e20ca33","11","","","","","","","","","","","","null","[""SV_PolicingMSA/NY_5249/IMG_1_5249.jpg"",""SV_PolicingMSA/NY_5249/IMG_7_5249.jpg"",""SV_PolicingMSA/NY_5249/IMG_8_5249.jpg"",""SV_PolicingMSA/NY_5249/IMG_11_5249.jpg"",""SV_PolicingMSA/NY_5249/IMG_10_5249.jpg"",""SV_PolicingMSA/NY_5249/IMG_0_5249.jpg"",""SV_PolicingMSA/NY_5249/IMG_4_5249.jpg"",""SV_PolicingMSA/NY_5249/IMG_9_5249.jpg""]","null","","","","","","1","","4","[""./assets/img/attnchk.png"",""./assets/img/attnchk.png""]","","true",""
"sliderTrial","html-slider-response","140","525834","0.0-140.0","","656776a7904ae00d6b91d1dd","6568ae2f2909018e0e20ca33","11","","","","","","","","","","","","3064","[""SV_PolicingMSA/NY_5249/IMG_1_5249.jpg"",""SV_PolicingMSA/NY_5249/IMG_7_5249.jpg"",""SV_PolicingMSA/NY_5249/IMG_8_5249.jpg"",""SV_PolicingMSA/NY_5249/IMG_11_5249.jpg"",""SV_PolicingMSA/NY_5249/IMG_10_5249.jpg"",""SV_PolicingMSA/NY_5249/IMG_0_5249.jpg"",""SV_PolicingMSA/NY_5249/IMG_4_5249.jpg"",""SV_PolicingMSA/NY_5249/IMG_9_5249.jpg""]","4","","","","","","1","","4","[""./rc_img/cop_condGroup_2_CommunitySafety_autoscaled.png"",""./rc_img/cop_condGroup_2_SafeStreets_autoscaled.png""]","4","",""
"sliderTrial","html-slider-response","141","527935","0.0-141.0","","656776a7904ae00d6b91d1dd","6568ae2f2909018e0e20ca33","11","","","","","","","","","","","","2098","[""SV_PolicingMSA/NY_5249/IMG_1_5249.jpg"",""SV_PolicingMSA/NY_5249/IMG_7_5249.jpg"",""SV_PolicingMSA/NY_5249/IMG_8_5249.jpg"",""SV_PolicingMSA/NY_5249/IMG_11_5249.jpg"",""SV_PolicingMSA/NY_5249/IMG_10_5249.jpg"",""SV_PolicingMSA/NY_5249/IMG_0_5249.jpg"",""SV_PolicingMSA/NY_5249/IMG_4_5249.jpg"",""SV_PolicingMSA/NY_5249/IMG_9_5249.jpg""]","4","","","","","","1","","4","[""./rc_img/cop_condGroup_9_SafeStreets_autoscaled.png"",""./rc_img/cop_condGroup_9_CommunitySafety_autoscaled.png""]","4","",""
"sliderTrial","html-slider-response","142","530050","0.0-142.0","","656776a7904ae00d6b91d1dd","6568ae2f2909018e0e20ca33","11","","","","","","","","","","","","2112","[""SV_PolicingMSA/NY_5249/IMG_1_5249.jpg"",""SV_PolicingMSA/NY_5249/IMG_7_5249.jpg"",""SV_PolicingMSA/NY_5249/IMG_8_5249.jpg"",""SV_PolicingMSA/NY_5249/IMG_11_5249.jpg"",""SV_PolicingMSA/NY_5249/IMG_10_5249.jpg"",""SV_PolicingMSA/NY_5249/IMG_0_5249.jpg"",""SV_PolicingMSA/NY_5249/IMG_4_5249.jpg"",""SV_PolicingMSA/NY_5249/IMG_9_5249.jpg""]","4","","","","","","1","","4","[""./rc_img/cop_condGroup_12_CommunitySafety_autoscaled.png"",""./rc_img/cop_condGroup_12_SafeStreets_autoscaled.png""]","4","",""
"sliderTrial","html-slider-response","143","531366","0.0-143.0","","656776a7904ae00d6b91d1dd","6568ae2f2909018e0e20ca33","11","","","","","","","","","","","","1313","[""SV_PolicingMSA/NY_5249/IMG_1_5249.jpg"",""SV_PolicingMSA/NY_5249/IMG_7_5249.jpg"",""SV_PolicingMSA/NY_5249/IMG_8_5249.jpg"",""SV_PolicingMSA/NY_5249/IMG_11_5249.jpg"",""SV_PolicingMSA/NY_5249/IMG_10_5249.jpg"",""SV_PolicingMSA/NY_5249/IMG_0_5249.jpg"",""SV_PolicingMSA/NY_5249/IMG_4_5249.jpg"",""SV_PolicingMSA/NY_5249/IMG_9_5249.jpg""]","4","","","","","","1","","4","[""./rc_img/cop_condGroup_15_SafeStreets_autoscaled.png"",""./rc_img/cop_condGroup_15_CommunitySafety_autoscaled.png""]","4","",""
"sliderTrial","html-slider-response","144","533232","0.0-144.0","","656776a7904ae00d6b91d1dd","6568ae2f2909018e0e20ca33","11","","","","","","","","","","","","1864","[""SV_PolicingMSA/NY_5249/IMG_1_5249.jpg"",""SV_PolicingMSA/NY_5249/IMG_7_5249.jpg"",""SV_PolicingMSA/NY_5249/IMG_8_5249.jpg"",""SV_PolicingMSA/NY_5249/IMG_11_5249.jpg"",""SV_PolicingMSA/NY_5249/IMG_10_5249.jpg"",""SV_PolicingMSA/NY_5249/IMG_0_5249.jpg"",""SV_PolicingMSA/NY_5249/IMG_4_5249.jpg"",""SV_PolicingMSA/NY_5249/IMG_9_5249.jpg""]","5","","","","","","1","","4","[""./rc_img/cop_condGroup_20_SafeStreets_autoscaled.png"",""./rc_img/cop_condGroup_20_CommunitySafety_autoscaled.png""]","3","",""
"demographics","survey-html-form","145","544832","0.0-145.0","","656776a7904ae00d6b91d1dd","6568ae2f2909018e0e20ca33","11","","","","","","","","","","","","11595","","{""age"":""22"",""sex"":""male"",""gender"":""man"",""gender-self-describe"":"""",""zipcode"":""10036""}","","","","","","","","","","","",""
"demographics-list","survey","146","557462","0.0-146.0","","656776a7904ae00d6b91d1dd","6568ae2f2909018e0e20ca33","11","","","","","","","","","","","","12609","","{""P0_Q0"":null,""race-ethnicity"":[""White or of European ancestry""],""education"":""Bachelor’s degree"",""P1_Q0"":null,""ideology"":""Very Liberal"",""P2_Q0"":null,""num-moves"":0,""P3_Q0"":null,""social-ladder"":4}","","","","","","","[]","","","","",""
"end-survey","survey-text","147","563967","0.0-147.0","","656776a7904ae00d6b91d1dd","6568ae2f2909018e0e20ca33","11","","","","","","","","","","","","6494","","{""Q0"":""""}","","","","","","","","","","","","2"
"end-survey","html-button-response","148","567532","0.0-148.0","","656776a7904ae00d6b91d1dd","6568ae2f2909018e0e20ca33","11","","","","","","","","","","","","3562","
    You've reached the end of the survey. <br><br> 
    <b>Do not close or refresh this window.</b><br>
    On the next page, you will be automatically redirected to Prolific. <br><br>

    <div class=""alert alert-warning""><b>
    </div>
","0","","","","","","","","","","","",""
