"task","trial_type","trial_index","time_elapsed","internal_node_id","subject_id","study_id","session_id","section","width","height","webaudio","browser","browser_version","mobile","os","fullscreen","vsync_rate","webcam","microphone","rt","stimulus","response","success","timeout","failed_images","failed_audio","failed_video","block","accuracy","slider_start","choices","standardized_response","correct","num_attention_checks_correct"
"pavlovia-init","pavlovia","0","1217","0.0-0.0","","656776a7904ae00d6b91d1dd","6568a8644aa3a143f28354e1","8","","","","","","","","","","","","","","","","","","","","","","","","","",""
"browser-check","browser-check","1","2214","0.0-1.0","","656776a7904ae00d6b91d1dd","6568a8644aa3a143f28354e1","8","1250","698","true","chrome","119.0.0","false","Windows 10","true","60.39","false","true","","","","","","","","","","","","","","",""
"consent","html-button-response","2","86638","0.0-2.0","","656776a7904ae00d6b91d1dd","6568a8644aa3a143f28354e1","8","","","","","","","","","","","","84423","
        <div style=""font-size: 80%; max-width:700px"">
            <h2>CONSENT FORM</h2>
        
            <div style=""text-align: left"">
            <h4>DESCRIPTION</h4>
            <p>
            You will complete a short task where you give your impressions of various neighborhoods and assign individuals to those spaces, and answer some questions about your thoughts and opinions.<br>
            The University of Michigan Institutional Review Board Health Sciences and Behavioral Sciences has determined that this study is exempt from IRB oversight.
            </p>

            <h4>TIME INVOLVEMENT</h4>
            <p>Your participation will take approximately 15 minutes. You will receive $3.15 upon completion of the study.</p>
        
            <h4>RISKS AND BENEFITS</h4>
            <p>
            The risks associated with this study are minimal. The benefits which may reasonably be expected to result from this study are none. We cannot and do not guarantee or promise that you will receive any benefits from this study.
            </p>
          
            <h4>SUBJECT'S RIGHTS</h4>
            <p>
            If you have read this form and have decided to participate in this project, please understand your participation is voluntary and you have the right to withdraw your consent or discontinue participation at any time without penalty or loss of benefits to which you are otherwise entitled. The alternative is not to participate. You have the right to refuse to answer particular questions. Your individual privacy will be maintained in all published and written data resulting from the study.
            </p>

            <h4>HUMAN SUBJECT APPROVAL</h4>
            <p>
            This study is exempt from ongoing IRB review.
            </p>

            <h4>CONTACT INFORMATION</h4>
            If you have any questions, concerns or complaints about this research, its procedures, risks and benefits, contact the Protocol Director, Nicholas Camp, npcamp@umich.edu, (443) 851-6783. <br>

            If you have questions about your rights as a research participant, or wish to obtain information, ask questions or discuss any concerns about this study with someone other than the researcher(s), please contact the following:<br><br>
            University of Michigan<br>
            Health Sciences and Behavioral Sciences Institutional Review Board (IRB-HSBS)<br>
            2800 Plymouth Road<br>
            Building 520, Room 1169Ann Arbor, MI 48109-2800<br>
            Telephone: 734-936-0933 or toll free (866) 936-0933<br>
            Fax: 734-936-1852<br>
            E-mail: irbhsbs@umich.edu<br><br>

            You can also contact the University of Michigan Compliance Hotline at 1-866-990-0111. You may also print this consent form to keep.
            <br><br>
            <div class=""alert alert-warning""><b>
            Do you consent to participate in this study? If you consent to participate in this study, please click “Accept and Continue”. If you select ""Decline and Exit"", you will be exited from the survey. <br>
            </b></div>
            </div>
        </div>
    ","1","","","","","","","","","","","",""
"","preload","3","101137","0.0-3.0","","656776a7904ae00d6b91d1dd","6568a8644aa3a143f28354e1","8","","","","","","","","","","","","","","","true","false","[]","[]","[]","","","","","","",""
"instructions","html-button-response","4","122883","0.0-4.0","","656776a7904ae00d6b91d1dd","6568a8644aa3a143f28354e1","8","","","","","","","","","","","","21746","
        <div class=""text-container"">
        <h1>Welcome to the study!</h1>
        
        <div class=""text-left"">
            <p>
                In this study, we are interested in what people can tell about spaces from Google Street View images. <br> Google Street View takes pictures of streets used for Google Earth and Google Maps. <br>You’ll see Google Street View images of different places and answer some questions about each one.<br>
            </p>
        </div>
        <img src = ""assets/img/example.png"" width = 500px, height = auto>
        <br>
    <br>
    ","0","","","","","","","","","","","",""
"instructions","html-button-response","5","205576","0.0-5.0","","656776a7904ae00d6b91d1dd","6568a8644aa3a143f28354e1","8","","","","","","","","","","","","82692","
    <div class=""text-container"">
        <div class=""text-center"">
            <p>Please remember that your answers are completely anonymous.<br>Go with your gut response- there are no right or wrong answers!</p>
        </div>
    <br>
","0","","","","","","","","","","","",""
"before_SVSlide_prompt","html-button-response","6","206950","0.0-6.0","","656776a7904ae00d6b91d1dd","6568a8644aa3a143f28354e1","8","","","","","","","","","","","","1373","Click [Next] to see the next neighborhood!","0","","","","","","","","","","","",""
"street view slide show","image-button-response","7","207953","0.0-7.0","","656776a7904ae00d6b91d1dd","6568a8644aa3a143f28354e1","8","","","","","","","","","","","","null","stimulus/SV_PolicingMSA/TX_4061/IMG_5_4061.jpg","null","","","","","","5","","","","","",""
"street view slide show","image-button-response","8","208956","0.0-8.0","","656776a7904ae00d6b91d1dd","6568a8644aa3a143f28354e1","8","","","","","","","","","","","","null","stimulus/SV_PolicingMSA/TX_4061/IMG_12_4061.jpg","null","","","","","","5","","","","","",""
"street view slide show","image-button-response","9","209960","0.0-9.0","","656776a7904ae00d6b91d1dd","6568a8644aa3a143f28354e1","8","","","","","","","","","","","","null","stimulus/SV_PolicingMSA/TX_4061/IMG_1_4061.jpg","null","","","","","","5","","","","","",""
"street view slide show","image-button-response","10","210967","0.0-10.0","","656776a7904ae00d6b91d1dd","6568a8644aa3a143f28354e1","8","","","","","","","","","","","","null","stimulus/SV_PolicingMSA/TX_4061/IMG_3_4061.jpg","null","","","","","","5","","","","","",""
"street view slide show","image-button-response","11","211972","0.0-11.0","","656776a7904ae00d6b91d1dd","6568a8644aa3a143f28354e1","8","","","","","","","","","","","","null","stimulus/SV_PolicingMSA/TX_4061/IMG_14_4061.jpg","null","","","","","","5","","","","","",""
"street view slide show","image-button-response","12","212977","0.0-12.0","","656776a7904ae00d6b91d1dd","6568a8644aa3a143f28354e1","8","","","","","","","","","","","","null","stimulus/SV_PolicingMSA/TX_4061/IMG_8_4061.jpg","null","","","","","","5","","","","","",""
"street view slide show","image-button-response","13","213987","0.0-13.0","","656776a7904ae00d6b91d1dd","6568a8644aa3a143f28354e1","8","","","","","","","","","","","","null","stimulus/SV_PolicingMSA/TX_4061/IMG_4_4061.jpg","null","","","","","","5","","","","","",""
"street view slide show","image-button-response","14","214993","0.0-14.0","","656776a7904ae00d6b91d1dd","6568a8644aa3a143f28354e1","8","","","","","","","","","","","","null","stimulus/SV_PolicingMSA/TX_4061/IMG_13_4061.jpg","null","","","","","","5","","","","","",""
"dot matrix survey1","survey","15","240100","0.0-15.0","","656776a7904ae00d6b91d1dd","6568a8644aa3a143f28354e1","8","","","","","","","","","","","","25068","","{""P0_Q0"":null,""P0_Q1"":{""wealthy"":2,""safe"":4,""walkable"":4,""traditional"":4,""diverse"":1}}","","","","","","5","[]","","","","",""
"dot matrix survey2","survey","16","255145","0.0-16.0","","656776a7904ae00d6b91d1dd","6568a8644aa3a143f28354e1","8","","","","","","","","","","","","15038","","{""P0_Q0"":null,""P0_Q1"":{""violence"":0,""crime"":0,""drug"":1,""schools"":2,""opportunities"":2}}","","","","","","5","[]","","","","",""
"dot matrix survey3","survey","17","282331","0.0-17.0","","656776a7904ae00d6b91d1dd","6568a8644aa3a143f28354e1","8","","","","","","","","","","","","27179","","{""P0_Q0"":null,""P0_Q1"":{""movein"":2,""moveout"":1,""shopping"":3,""walk"":2,""park"":3,""school"":3}}","","","","","","5","[]","","","","",""
"sliderTrial","html-slider-response","18","298663","0.0-18.0","","656776a7904ae00d6b91d1dd","6568a8644aa3a143f28354e1","8","","","","","","","","","","","","16329","[""SV_PolicingMSA/TX_4061/IMG_5_4061.jpg"",""SV_PolicingMSA/TX_4061/IMG_12_4061.jpg"",""SV_PolicingMSA/TX_4061/IMG_1_4061.jpg"",""SV_PolicingMSA/TX_4061/IMG_3_4061.jpg"",""SV_PolicingMSA/TX_4061/IMG_14_4061.jpg"",""SV_PolicingMSA/TX_4061/IMG_8_4061.jpg"",""SV_PolicingMSA/TX_4061/IMG_4_4061.jpg"",""SV_PolicingMSA/TX_4061/IMG_13_4061.jpg""]","6","","","","","","5","","4","[""./rc_img/cop_condGroup_12_SafeStreets_autoscaled.png"",""./rc_img/cop_condGroup_12_CommunitySafety_autoscaled.png""]","2","",""
"sliderTrial","html-slider-response","19","305538","0.0-19.0","","656776a7904ae00d6b91d1dd","6568a8644aa3a143f28354e1","8","","","","","","","","","","","","6874","[""SV_PolicingMSA/TX_4061/IMG_5_4061.jpg"",""SV_PolicingMSA/TX_4061/IMG_12_4061.jpg"",""SV_PolicingMSA/TX_4061/IMG_1_4061.jpg"",""SV_PolicingMSA/TX_4061/IMG_3_4061.jpg"",""SV_PolicingMSA/TX_4061/IMG_14_4061.jpg"",""SV_PolicingMSA/TX_4061/IMG_8_4061.jpg"",""SV_PolicingMSA/TX_4061/IMG_4_4061.jpg"",""SV_PolicingMSA/TX_4061/IMG_13_4061.jpg""]","2","","","","","","5","","4","[""./rc_img/cop_condGroup_17_CommunitySafety_autoscaled.png"",""./rc_img/cop_condGroup_17_SafeStreets_autoscaled.png""]","2","",""
"sliderTrial","html-slider-response","20","309599","0.0-20.0","","656776a7904ae00d6b91d1dd","6568a8644aa3a143f28354e1","8","","","","","","","","","","","","4060","[""SV_PolicingMSA/TX_4061/IMG_5_4061.jpg"",""SV_PolicingMSA/TX_4061/IMG_12_4061.jpg"",""SV_PolicingMSA/TX_4061/IMG_1_4061.jpg"",""SV_PolicingMSA/TX_4061/IMG_3_4061.jpg"",""SV_PolicingMSA/TX_4061/IMG_14_4061.jpg"",""SV_PolicingMSA/TX_4061/IMG_8_4061.jpg"",""SV_PolicingMSA/TX_4061/IMG_4_4061.jpg"",""SV_PolicingMSA/TX_4061/IMG_13_4061.jpg""]","6","","","","","","5","","4","[""./rc_img/cop_condGroup_5_SafeStreets_autoscaled.png"",""./rc_img/cop_condGroup_5_CommunitySafety_autoscaled.png""]","2","",""
"sliderTrial","html-slider-response","21","314446","0.0-21.0","","656776a7904ae00d6b91d1dd","6568a8644aa3a143f28354e1","8","","","","","","","","","","","","4846","[""SV_PolicingMSA/TX_4061/IMG_5_4061.jpg"",""SV_PolicingMSA/TX_4061/IMG_12_4061.jpg"",""SV_PolicingMSA/TX_4061/IMG_1_4061.jpg"",""SV_PolicingMSA/TX_4061/IMG_3_4061.jpg"",""SV_PolicingMSA/TX_4061/IMG_14_4061.jpg"",""SV_PolicingMSA/TX_4061/IMG_8_4061.jpg"",""SV_PolicingMSA/TX_4061/IMG_4_4061.jpg"",""SV_PolicingMSA/TX_4061/IMG_13_4061.jpg""]","2","","","","","","5","","4","[""./rc_img/cop_condGroup_14_CommunitySafety_autoscaled.png"",""./rc_img/cop_condGroup_14_SafeStreets_autoscaled.png""]","2","",""
"sliderTrial","html-slider-response","22","317956","0.0-22.0","","656776a7904ae00d6b91d1dd","6568a8644aa3a143f28354e1","8","","","","","","","","","","","","3508","[""SV_PolicingMSA/TX_4061/IMG_5_4061.jpg"",""SV_PolicingMSA/TX_4061/IMG_12_4061.jpg"",""SV_PolicingMSA/TX_4061/IMG_1_4061.jpg"",""SV_PolicingMSA/TX_4061/IMG_3_4061.jpg"",""SV_PolicingMSA/TX_4061/IMG_14_4061.jpg"",""SV_PolicingMSA/TX_4061/IMG_8_4061.jpg"",""SV_PolicingMSA/TX_4061/IMG_4_4061.jpg"",""SV_PolicingMSA/TX_4061/IMG_13_4061.jpg""]","2","","","","","","5","","4","[""./rc_img/cop_condGroup_15_CommunitySafety_autoscaled.png"",""./rc_img/cop_condGroup_15_SafeStreets_autoscaled.png""]","2","",""
"before_SVSlide_prompt","html-button-response","23","319232","0.0-23.0","","656776a7904ae00d6b91d1dd","6568a8644aa3a143f28354e1","8","","","","","","","","","","","","1275","Click [Next] to see the next neighborhood!","0","","","","","","","","","","","",""
"street view slide show","image-button-response","24","320233","0.0-24.0","","656776a7904ae00d6b91d1dd","6568a8644aa3a143f28354e1","8","","","","","","","","","","","","null","stimulus/SV_PolicingMSA/TX_109/IMG_7_109.jpg","null","","","","","","3","","","","","",""
"street view slide show","image-button-response","25","321244","0.0-25.0","","656776a7904ae00d6b91d1dd","6568a8644aa3a143f28354e1","8","","","","","","","","","","","","null","stimulus/SV_PolicingMSA/TX_109/IMG_3_109.jpg","null","","","","","","3","","","","","",""
"street view slide show","image-button-response","26","322259","0.0-26.0","","656776a7904ae00d6b91d1dd","6568a8644aa3a143f28354e1","8","","","","","","","","","","","","null","stimulus/SV_PolicingMSA/TX_109/IMG_10_109.jpg","null","","","","","","3","","","","","",""
"street view slide show","image-button-response","27","323267","0.0-27.0","","656776a7904ae00d6b91d1dd","6568a8644aa3a143f28354e1","8","","","","","","","","","","","","null","stimulus/SV_PolicingMSA/TX_109/IMG_0_109.jpg","null","","","","","","3","","","","","",""
"street view slide show","image-button-response","28","324273","0.0-28.0","","656776a7904ae00d6b91d1dd","6568a8644aa3a143f28354e1","8","","","","","","","","","","","","null","stimulus/SV_PolicingMSA/TX_109/IMG_4_109.jpg","null","","","","","","3","","","","","",""
"street view slide show","image-button-response","29","325278","0.0-29.0","","656776a7904ae00d6b91d1dd","6568a8644aa3a143f28354e1","8","","","","","","","","","","","","null","stimulus/SV_PolicingMSA/TX_109/IMG_13_109.jpg","null","","","","","","3","","","","","",""
"street view slide show","image-button-response","30","326285","0.0-30.0","","656776a7904ae00d6b91d1dd","6568a8644aa3a143f28354e1","8","","","","","","","","","","","","null","stimulus/SV_PolicingMSA/TX_109/IMG_6_109.jpg","null","","","","","","3","","","","","",""
"street view slide show","image-button-response","31","327292","0.0-31.0","","656776a7904ae00d6b91d1dd","6568a8644aa3a143f28354e1","8","","","","","","","","","","","","null","stimulus/SV_PolicingMSA/TX_109/IMG_14_109.jpg","null","","","","","","3","","","","","",""
"dot matrix survey1","survey","32","348771","0.0-32.0","","656776a7904ae00d6b91d1dd","6568a8644aa3a143f28354e1","8","","","","","","","","","","","","21470","","{""P0_Q0"":null,""P0_Q1"":{""wealthy"":1,""safe"":2,""walkable"":2,""traditional"":2,""diverse"":1}}","","","","","","3","[]","","","","",""
"dot matrix survey2","survey","33","369232","0.0-33.0","","656776a7904ae00d6b91d1dd","6568a8644aa3a143f28354e1","8","","","","","","","","","","","","20454","","{""P0_Q0"":null,""P0_Q1"":{""violence"":1,""crime"":1,""drug"":2,""schools"":2,""opportunities"":1}}","","","","","","3","[]","","","","",""
"dot matrix survey3","survey","34","395001","0.0-34.0","","656776a7904ae00d6b91d1dd","6568a8644aa3a143f28354e1","8","","","","","","","","","","","","25764","","{""P0_Q0"":null,""P0_Q1"":{""movein"":1,""moveout"":3,""shopping"":2,""walk"":1,""park"":2,""school"":1}}","","","","","","3","[]","","","","",""
"sliderTrial","html-slider-response","35","401549","0.0-35.0","","656776a7904ae00d6b91d1dd","6568a8644aa3a143f28354e1","8","","","","","","","","","","","","6547","[""SV_PolicingMSA/TX_109/IMG_7_109.jpg"",""SV_PolicingMSA/TX_109/IMG_3_109.jpg"",""SV_PolicingMSA/TX_109/IMG_10_109.jpg"",""SV_PolicingMSA/TX_109/IMG_0_109.jpg"",""SV_PolicingMSA/TX_109/IMG_4_109.jpg"",""SV_PolicingMSA/TX_109/IMG_13_109.jpg"",""SV_PolicingMSA/TX_109/IMG_6_109.jpg"",""SV_PolicingMSA/TX_109/IMG_14_109.jpg""]","6","","","","","","3","","4","[""./rc_img/cop_condGroup_12_SafeStreets_autoscaled.png"",""./rc_img/cop_condGroup_12_CommunitySafety_autoscaled.png""]","2","",""
"sliderTrial","html-slider-response","36","404242","0.0-36.0","","656776a7904ae00d6b91d1dd","6568a8644aa3a143f28354e1","8","","","","","","","","","","","","2691","[""SV_PolicingMSA/TX_109/IMG_7_109.jpg"",""SV_PolicingMSA/TX_109/IMG_3_109.jpg"",""SV_PolicingMSA/TX_109/IMG_10_109.jpg"",""SV_PolicingMSA/TX_109/IMG_0_109.jpg"",""SV_PolicingMSA/TX_109/IMG_4_109.jpg"",""SV_PolicingMSA/TX_109/IMG_13_109.jpg"",""SV_PolicingMSA/TX_109/IMG_6_109.jpg"",""SV_PolicingMSA/TX_109/IMG_14_109.jpg""]","2","","","","","","3","","4","[""./rc_img/cop_condGroup_17_CommunitySafety_autoscaled.png"",""./rc_img/cop_condGroup_17_SafeStreets_autoscaled.png""]","2","",""
"sliderTrial","html-slider-response","37","406621","0.0-37.0","","656776a7904ae00d6b91d1dd","6568a8644aa3a143f28354e1","8","","","","","","","","","","","","2378","[""SV_PolicingMSA/TX_109/IMG_7_109.jpg"",""SV_PolicingMSA/TX_109/IMG_3_109.jpg"",""SV_PolicingMSA/TX_109/IMG_10_109.jpg"",""SV_PolicingMSA/TX_109/IMG_0_109.jpg"",""SV_PolicingMSA/TX_109/IMG_4_109.jpg"",""SV_PolicingMSA/TX_109/IMG_13_109.jpg"",""SV_PolicingMSA/TX_109/IMG_6_109.jpg"",""SV_PolicingMSA/TX_109/IMG_14_109.jpg""]","6","","","","","","3","","4","[""./rc_img/cop_condGroup_5_SafeStreets_autoscaled.png"",""./rc_img/cop_condGroup_5_CommunitySafety_autoscaled.png""]","2","",""
"sliderTrial","html-slider-response","38","408642","0.0-38.0","","656776a7904ae00d6b91d1dd","6568a8644aa3a143f28354e1","8","","","","","","","","","","","","2020","[""SV_PolicingMSA/TX_109/IMG_7_109.jpg"",""SV_PolicingMSA/TX_109/IMG_3_109.jpg"",""SV_PolicingMSA/TX_109/IMG_10_109.jpg"",""SV_PolicingMSA/TX_109/IMG_0_109.jpg"",""SV_PolicingMSA/TX_109/IMG_4_109.jpg"",""SV_PolicingMSA/TX_109/IMG_13_109.jpg"",""SV_PolicingMSA/TX_109/IMG_6_109.jpg"",""SV_PolicingMSA/TX_109/IMG_14_109.jpg""]","2","","","","","","3","","4","[""./rc_img/cop_condGroup_14_CommunitySafety_autoscaled.png"",""./rc_img/cop_condGroup_14_SafeStreets_autoscaled.png""]","2","",""
"sliderTrial","html-slider-response","39","411523","0.0-39.0","","656776a7904ae00d6b91d1dd","6568a8644aa3a143f28354e1","8","","","","","","","","","","","","2880","[""SV_PolicingMSA/TX_109/IMG_7_109.jpg"",""SV_PolicingMSA/TX_109/IMG_3_109.jpg"",""SV_PolicingMSA/TX_109/IMG_10_109.jpg"",""SV_PolicingMSA/TX_109/IMG_0_109.jpg"",""SV_PolicingMSA/TX_109/IMG_4_109.jpg"",""SV_PolicingMSA/TX_109/IMG_13_109.jpg"",""SV_PolicingMSA/TX_109/IMG_6_109.jpg"",""SV_PolicingMSA/TX_109/IMG_14_109.jpg""]","2","","","","","","3","","4","[""./rc_img/cop_condGroup_15_CommunitySafety_autoscaled.png"",""./rc_img/cop_condGroup_15_SafeStreets_autoscaled.png""]","2","",""
"before_SVSlide_prompt","html-button-response","40","419628","0.0-40.0","","656776a7904ae00d6b91d1dd","6568a8644aa3a143f28354e1","8","","","","","","","","","","","","8105","Click [Next] to see the next neighborhood!","0","","","","","","","","","","","",""
"street view slide show","image-button-response","41","420638","0.0-41.0","","656776a7904ae00d6b91d1dd","6568a8644aa3a143f28354e1","8","","","","","","","","","","","","null","stimulus/SV_PolicingMSA/TX_134/IMG_11_134.jpg","null","","","","","","2","","","","","",""
"street view slide show","image-button-response","42","421640","0.0-42.0","","656776a7904ae00d6b91d1dd","6568a8644aa3a143f28354e1","8","","","","","","","","","","","","null","stimulus/SV_PolicingMSA/TX_134/IMG_5_134.jpg","null","","","","","","2","","","","","",""
"street view slide show","image-button-response","43","422642","0.0-43.0","","656776a7904ae00d6b91d1dd","6568a8644aa3a143f28354e1","8","","","","","","","","","","","","null","stimulus/SV_PolicingMSA/TX_134/IMG_8_134.jpg","null","","","","","","2","","","","","",""
"street view slide show","image-button-response","44","423649","0.0-44.0","","656776a7904ae00d6b91d1dd","6568a8644aa3a143f28354e1","8","","","","","","","","","","","","null","stimulus/SV_PolicingMSA/TX_134/IMG_4_134.jpg","null","","","","","","2","","","","","",""
"street view slide show","image-button-response","45","424658","0.0-45.0","","656776a7904ae00d6b91d1dd","6568a8644aa3a143f28354e1","8","","","","","","","","","","","","null","stimulus/SV_PolicingMSA/TX_134/IMG_3_134.jpg","null","","","","","","2","","","","","",""
"street view slide show","image-button-response","46","425663","0.0-46.0","","656776a7904ae00d6b91d1dd","6568a8644aa3a143f28354e1","8","","","","","","","","","","","","null","stimulus/SV_PolicingMSA/TX_134/IMG_2_134.jpg","null","","","","","","2","","","","","",""
"street view slide show","image-button-response","47","426670","0.0-47.0","","656776a7904ae00d6b91d1dd","6568a8644aa3a143f28354e1","8","","","","","","","","","","","","null","stimulus/SV_PolicingMSA/TX_134/IMG_0_134.jpg","null","","","","","","2","","","","","",""
"street view slide show","image-button-response","48","427676","0.0-48.0","","656776a7904ae00d6b91d1dd","6568a8644aa3a143f28354e1","8","","","","","","","","","","","","null","stimulus/SV_PolicingMSA/TX_134/IMG_13_134.jpg","null","","","","","","2","","","","","",""
"dot matrix survey1","survey","49","447337","0.0-49.0","","656776a7904ae00d6b91d1dd","6568a8644aa3a143f28354e1","8","","","","","","","","","","","","19655","","{""P0_Q0"":null,""P0_Q1"":{""wealthy"":1,""safe"":1,""walkable"":2,""traditional"":1,""diverse"":1}}","","","","","","2","[]","","","","",""
"dot matrix survey2","survey","50","502472","0.0-50.0","","656776a7904ae00d6b91d1dd","6568a8644aa3a143f28354e1","8","","","","","","","","","","","","55131","","{""P0_Q0"":null,""P0_Q1"":{""violence"":1,""crime"":1,""drug"":2,""schools"":1,""opportunities"":1}}","","","","","","2","[]","","","","",""
"dot matrix survey3","survey","51","512620","0.0-51.0","","656776a7904ae00d6b91d1dd","6568a8644aa3a143f28354e1","8","","","","","","","","","","","","10144","","{""P0_Q0"":null,""P0_Q1"":{""movein"":1,""moveout"":3,""shopping"":1,""walk"":1,""park"":1,""school"":0}}","","","","","","2","[]","","","","",""
"sliderTrial","html-slider-response","52","519811","0.0-52.0","","656776a7904ae00d6b91d1dd","6568a8644aa3a143f28354e1","8","","","","","","","","","","","","7190","[""SV_PolicingMSA/TX_134/IMG_11_134.jpg"",""SV_PolicingMSA/TX_134/IMG_5_134.jpg"",""SV_PolicingMSA/TX_134/IMG_8_134.jpg"",""SV_PolicingMSA/TX_134/IMG_4_134.jpg"",""SV_PolicingMSA/TX_134/IMG_3_134.jpg"",""SV_PolicingMSA/TX_134/IMG_2_134.jpg"",""SV_PolicingMSA/TX_134/IMG_0_134.jpg"",""SV_PolicingMSA/TX_134/IMG_13_134.jpg""]","3","","","","","","2","","4","[""./rc_img/cop_condGroup_18_CommunitySafety_autoscaled.png"",""./rc_img/cop_condGroup_18_SafeStreets_autoscaled.png""]","3","",""
"sliderTrial","html-slider-response","53","522819","0.0-53.0","","656776a7904ae00d6b91d1dd","6568a8644aa3a143f28354e1","8","","","","","","","","","","","","3007","[""SV_PolicingMSA/TX_134/IMG_11_134.jpg"",""SV_PolicingMSA/TX_134/IMG_5_134.jpg"",""SV_PolicingMSA/TX_134/IMG_8_134.jpg"",""SV_PolicingMSA/TX_134/IMG_4_134.jpg"",""SV_PolicingMSA/TX_134/IMG_3_134.jpg"",""SV_PolicingMSA/TX_134/IMG_2_134.jpg"",""SV_PolicingMSA/TX_134/IMG_0_134.jpg"",""SV_PolicingMSA/TX_134/IMG_13_134.jpg""]","5","","","","","","2","","4","[""./rc_img/cop_condGroup_19_SafeStreets_autoscaled.png"",""./rc_img/cop_condGroup_19_CommunitySafety_autoscaled.png""]","3","",""
"sliderTrial","html-slider-response","54","525780","0.0-54.0","","656776a7904ae00d6b91d1dd","6568a8644aa3a143f28354e1","8","","","","","","","","","","","","2960","[""SV_PolicingMSA/TX_134/IMG_11_134.jpg"",""SV_PolicingMSA/TX_134/IMG_5_134.jpg"",""SV_PolicingMSA/TX_134/IMG_8_134.jpg"",""SV_PolicingMSA/TX_134/IMG_4_134.jpg"",""SV_PolicingMSA/TX_134/IMG_3_134.jpg"",""SV_PolicingMSA/TX_134/IMG_2_134.jpg"",""SV_PolicingMSA/TX_134/IMG_0_134.jpg"",""SV_PolicingMSA/TX_134/IMG_13_134.jpg""]","5","","","","","","2","","4","[""./rc_img/cop_condGroup_4_SafeStreets_autoscaled.png"",""./rc_img/cop_condGroup_4_CommunitySafety_autoscaled.png""]","3","",""
"sliderTrial","html-slider-response","55","528227","0.0-55.0","","656776a7904ae00d6b91d1dd","6568a8644aa3a143f28354e1","8","","","","","","","","","","","","2446","[""SV_PolicingMSA/TX_134/IMG_11_134.jpg"",""SV_PolicingMSA/TX_134/IMG_5_134.jpg"",""SV_PolicingMSA/TX_134/IMG_8_134.jpg"",""SV_PolicingMSA/TX_134/IMG_4_134.jpg"",""SV_PolicingMSA/TX_134/IMG_3_134.jpg"",""SV_PolicingMSA/TX_134/IMG_2_134.jpg"",""SV_PolicingMSA/TX_134/IMG_0_134.jpg"",""SV_PolicingMSA/TX_134/IMG_13_134.jpg""]","5","","","","","","2","","4","[""./rc_img/cop_condGroup_10_SafeStreets_autoscaled.png"",""./rc_img/cop_condGroup_10_CommunitySafety_autoscaled.png""]","3","",""
"sliderTrial","html-slider-response","56","531457","0.0-56.0","","656776a7904ae00d6b91d1dd","6568a8644aa3a143f28354e1","8","","","","","","","","","","","","3229","[""SV_PolicingMSA/TX_134/IMG_11_134.jpg"",""SV_PolicingMSA/TX_134/IMG_5_134.jpg"",""SV_PolicingMSA/TX_134/IMG_8_134.jpg"",""SV_PolicingMSA/TX_134/IMG_4_134.jpg"",""SV_PolicingMSA/TX_134/IMG_3_134.jpg"",""SV_PolicingMSA/TX_134/IMG_2_134.jpg"",""SV_PolicingMSA/TX_134/IMG_0_134.jpg"",""SV_PolicingMSA/TX_134/IMG_13_134.jpg""]","3","","","","","","2","","4","[""./rc_img/cop_condGroup_7_CommunitySafety_autoscaled.png"",""./rc_img/cop_condGroup_7_SafeStreets_autoscaled.png""]","3","",""
"before_SVSlide_prompt","html-button-response","57","542383","0.0-57.0","","656776a7904ae00d6b91d1dd","6568a8644aa3a143f28354e1","8","","","","","","","","","","","","10925","Click [Next] to see the next neighborhood!","0","","","","","","","","","","","",""
"street view slide show","image-button-response","58","543385","0.0-58.0","","656776a7904ae00d6b91d1dd","6568a8644aa3a143f28354e1","8","","","","","","","","","","","","null","stimulus/SV_PolicingMSA/TX_348/IMG_3_348.jpg","null","","","","","","1","","","","","",""
"street view slide show","image-button-response","59","544393","0.0-59.0","","656776a7904ae00d6b91d1dd","6568a8644aa3a143f28354e1","8","","","","","","","","","","","","null","stimulus/SV_PolicingMSA/TX_348/IMG_2_348.jpg","null","","","","","","1","","","","","",""
"street view slide show","image-button-response","60","545396","0.0-60.0","","656776a7904ae00d6b91d1dd","6568a8644aa3a143f28354e1","8","","","","","","","","","","","","null","stimulus/SV_PolicingMSA/TX_348/IMG_11_348.jpg","null","","","","","","1","","","","","",""
"street view slide show","image-button-response","61","546405","0.0-61.0","","656776a7904ae00d6b91d1dd","6568a8644aa3a143f28354e1","8","","","","","","","","","","","","null","stimulus/SV_PolicingMSA/TX_348/IMG_1_348.jpg","null","","","","","","1","","","","","",""
"street view slide show","image-button-response","62","547412","0.0-62.0","","656776a7904ae00d6b91d1dd","6568a8644aa3a143f28354e1","8","","","","","","","","","","","","null","stimulus/SV_PolicingMSA/TX_348/IMG_6_348.jpg","null","","","","","","1","","","","","",""
"street view slide show","image-button-response","63","548420","0.0-63.0","","656776a7904ae00d6b91d1dd","6568a8644aa3a143f28354e1","8","","","","","","","","","","","","null","stimulus/SV_PolicingMSA/TX_348/IMG_13_348.jpg","null","","","","","","1","","","","","",""
"street view slide show","image-button-response","64","549429","0.0-64.0","","656776a7904ae00d6b91d1dd","6568a8644aa3a143f28354e1","8","","","","","","","","","","","","null","stimulus/SV_PolicingMSA/TX_348/IMG_5_348.jpg","null","","","","","","1","","","","","",""
"street view slide show","image-button-response","65","550431","0.0-65.0","","656776a7904ae00d6b91d1dd","6568a8644aa3a143f28354e1","8","","","","","","","","","","","","null","stimulus/SV_PolicingMSA/TX_348/IMG_4_348.jpg","null","","","","","","1","","","","","",""
"dot matrix survey1","survey","66","565266","0.0-66.0","","656776a7904ae00d6b91d1dd","6568a8644aa3a143f28354e1","8","","","","","","","","","","","","14828","","{""P0_Q0"":null,""P0_Q1"":{""wealthy"":2,""safe"":2,""walkable"":3,""traditional"":1,""diverse"":1}}","","","","","","1","[]","","","","",""
"dot matrix survey2","survey","67","579963","0.0-67.0","","656776a7904ae00d6b91d1dd","6568a8644aa3a143f28354e1","8","","","","","","","","","","","","14692","","{""P0_Q0"":null,""P0_Q1"":{""violence"":1,""crime"":1,""drug"":1,""schools"":2,""opportunities"":1}}","","","","","","1","[]","","","","",""
"dot matrix survey3","survey","68","592825","0.0-68.0","","656776a7904ae00d6b91d1dd","6568a8644aa3a143f28354e1","8","","","","","","","","","","","","12858","","{""P0_Q0"":null,""P0_Q1"":{""movein"":1,""moveout"":3,""shopping"":2,""walk"":1,""park"":2,""school"":1}}","","","","","","1","[]","","","","",""
"sliderTrial","html-slider-response","69","596428","0.0-69.0","","656776a7904ae00d6b91d1dd","6568a8644aa3a143f28354e1","8","","","","","","","","","","","","3602","[""SV_PolicingMSA/TX_348/IMG_3_348.jpg"",""SV_PolicingMSA/TX_348/IMG_2_348.jpg"",""SV_PolicingMSA/TX_348/IMG_11_348.jpg"",""SV_PolicingMSA/TX_348/IMG_1_348.jpg"",""SV_PolicingMSA/TX_348/IMG_6_348.jpg"",""SV_PolicingMSA/TX_348/IMG_13_348.jpg"",""SV_PolicingMSA/TX_348/IMG_5_348.jpg"",""SV_PolicingMSA/TX_348/IMG_4_348.jpg""]","2","","","","","","1","","4","[""./rc_img/cop_condGroup_8_CommunitySafety_autoscaled.png"",""./rc_img/cop_condGroup_8_SafeStreets_autoscaled.png""]","2","",""
"sliderTrial_attention","html-slider-response","70","606445","0.0-70.0","","656776a7904ae00d6b91d1dd","6568a8644aa3a143f28354e1","8","","","","","","","","","","","","null","[""SV_PolicingMSA/TX_348/IMG_3_348.jpg"",""SV_PolicingMSA/TX_348/IMG_2_348.jpg"",""SV_PolicingMSA/TX_348/IMG_11_348.jpg"",""SV_PolicingMSA/TX_348/IMG_1_348.jpg"",""SV_PolicingMSA/TX_348/IMG_6_348.jpg"",""SV_PolicingMSA/TX_348/IMG_13_348.jpg"",""SV_PolicingMSA/TX_348/IMG_5_348.jpg"",""SV_PolicingMSA/TX_348/IMG_4_348.jpg""]","null","","","","","","1","","4","[""./assets/img/attnchk.png"",""./assets/img/attnchk.png""]","","true",""
"sliderTrial","html-slider-response","71","609625","0.0-71.0","","656776a7904ae00d6b91d1dd","6568a8644aa3a143f28354e1","8","","","","","","","","","","","","3178","[""SV_PolicingMSA/TX_348/IMG_3_348.jpg"",""SV_PolicingMSA/TX_348/IMG_2_348.jpg"",""SV_PolicingMSA/TX_348/IMG_11_348.jpg"",""SV_PolicingMSA/TX_348/IMG_1_348.jpg"",""SV_PolicingMSA/TX_348/IMG_6_348.jpg"",""SV_PolicingMSA/TX_348/IMG_13_348.jpg"",""SV_PolicingMSA/TX_348/IMG_5_348.jpg"",""SV_PolicingMSA/TX_348/IMG_4_348.jpg""]","6","","","","","","1","","4","[""./rc_img/cop_condGroup_20_SafeStreets_autoscaled.png"",""./rc_img/cop_condGroup_20_CommunitySafety_autoscaled.png""]","2","",""
"sliderTrial","html-slider-response","72","613416","0.0-72.0","","656776a7904ae00d6b91d1dd","6568a8644aa3a143f28354e1","8","","","","","","","","","","","","3790","[""SV_PolicingMSA/TX_348/IMG_3_348.jpg"",""SV_PolicingMSA/TX_348/IMG_2_348.jpg"",""SV_PolicingMSA/TX_348/IMG_11_348.jpg"",""SV_PolicingMSA/TX_348/IMG_1_348.jpg"",""SV_PolicingMSA/TX_348/IMG_6_348.jpg"",""SV_PolicingMSA/TX_348/IMG_13_348.jpg"",""SV_PolicingMSA/TX_348/IMG_5_348.jpg"",""SV_PolicingMSA/TX_348/IMG_4_348.jpg""]","2","","","","","","1","","4","[""./rc_img/cop_condGroup_11_CommunitySafety_autoscaled.png"",""./rc_img/cop_condGroup_11_SafeStreets_autoscaled.png""]","2","",""
"sliderTrial","html-slider-response","73","615639","0.0-73.0","","656776a7904ae00d6b91d1dd","6568a8644aa3a143f28354e1","8","","","","","","","","","","","","2221","[""SV_PolicingMSA/TX_348/IMG_3_348.jpg"",""SV_PolicingMSA/TX_348/IMG_2_348.jpg"",""SV_PolicingMSA/TX_348/IMG_11_348.jpg"",""SV_PolicingMSA/TX_348/IMG_1_348.jpg"",""SV_PolicingMSA/TX_348/IMG_6_348.jpg"",""SV_PolicingMSA/TX_348/IMG_13_348.jpg"",""SV_PolicingMSA/TX_348/IMG_5_348.jpg"",""SV_PolicingMSA/TX_348/IMG_4_348.jpg""]","6","","","","","","1","","4","[""./rc_img/cop_condGroup_6_SafeStreets_autoscaled.png"",""./rc_img/cop_condGroup_6_CommunitySafety_autoscaled.png""]","2","",""
"sliderTrial","html-slider-response","74","617187","0.0-74.0","","656776a7904ae00d6b91d1dd","6568a8644aa3a143f28354e1","8","","","","","","","","","","","","1547","[""SV_PolicingMSA/TX_348/IMG_3_348.jpg"",""SV_PolicingMSA/TX_348/IMG_2_348.jpg"",""SV_PolicingMSA/TX_348/IMG_11_348.jpg"",""SV_PolicingMSA/TX_348/IMG_1_348.jpg"",""SV_PolicingMSA/TX_348/IMG_6_348.jpg"",""SV_PolicingMSA/TX_348/IMG_13_348.jpg"",""SV_PolicingMSA/TX_348/IMG_5_348.jpg"",""SV_PolicingMSA/TX_348/IMG_4_348.jpg""]","2","","","","","","1","","4","[""./rc_img/cop_condGroup_3_CommunitySafety_autoscaled.png"",""./rc_img/cop_condGroup_3_SafeStreets_autoscaled.png""]","2","",""
"half-way","html-button-response","75","626962","0.0-75.0","","656776a7904ae00d6b91d1dd","6568a8644aa3a143f28354e1","8","","","","","","","","","","","","9781","
    <h3>You are now half way through the study.</h3>
    <p>Please take a quick, 15-second break before you continue.</p>
    <img src='assets/img/countdown-15.gif'>
    <p>The study will automatically advance forward after the countdown is complete. <br> However, you may click ""Next"" to advance forward now if you wish.</p>
    ","0","","","","","","","","","","","",""
"before_SVSlide_prompt","html-button-response","76","628627","0.0-76.0","","656776a7904ae00d6b91d1dd","6568a8644aa3a143f28354e1","8","","","","","","","","","","","","1664","Click [Next] to see the next neighborhood!","0","","","","","","","","","","","",""
"street view slide show","image-button-response","77","629634","0.0-77.0","","656776a7904ae00d6b91d1dd","6568a8644aa3a143f28354e1","8","","","","","","","","","","","","null","stimulus/SV_PolicingMSA/TX_575/IMG_3_575.jpg","null","","","","","","3","","","","","",""
"street view slide show","image-button-response","78","630642","0.0-78.0","","656776a7904ae00d6b91d1dd","6568a8644aa3a143f28354e1","8","","","","","","","","","","","","null","stimulus/SV_PolicingMSA/TX_575/IMG_12_575.jpg","null","","","","","","3","","","","","",""
"street view slide show","image-button-response","79","631644","0.0-79.0","","656776a7904ae00d6b91d1dd","6568a8644aa3a143f28354e1","8","","","","","","","","","","","","null","stimulus/SV_PolicingMSA/TX_575/IMG_10_575.jpg","null","","","","","","3","","","","","",""
"street view slide show","image-button-response","80","632650","0.0-80.0","","656776a7904ae00d6b91d1dd","6568a8644aa3a143f28354e1","8","","","","","","","","","","","","null","stimulus/SV_PolicingMSA/TX_575/IMG_5_575.jpg","null","","","","","","3","","","","","",""
"street view slide show","image-button-response","81","633664","0.0-81.0","","656776a7904ae00d6b91d1dd","6568a8644aa3a143f28354e1","8","","","","","","","","","","","","null","stimulus/SV_PolicingMSA/TX_575/IMG_14_575.jpg","null","","","","","","3","","","","","",""
"street view slide show","image-button-response","82","634679","0.0-82.0","","656776a7904ae00d6b91d1dd","6568a8644aa3a143f28354e1","8","","","","","","","","","","","","null","stimulus/SV_PolicingMSA/TX_575/IMG_9_575.jpg","null","","","","","","3","","","","","",""
"street view slide show","image-button-response","83","635682","0.0-83.0","","656776a7904ae00d6b91d1dd","6568a8644aa3a143f28354e1","8","","","","","","","","","","","","null","stimulus/SV_PolicingMSA/TX_575/IMG_6_575.jpg","null","","","","","","3","","","","","",""
"street view slide show","image-button-response","84","636683","0.0-84.0","","656776a7904ae00d6b91d1dd","6568a8644aa3a143f28354e1","8","","","","","","","","","","","","null","stimulus/SV_PolicingMSA/TX_575/IMG_4_575.jpg","null","","","","","","3","","","","","",""
"dot matrix survey1","survey","85","651675","0.0-85.0","","656776a7904ae00d6b91d1dd","6568a8644aa3a143f28354e1","8","","","","","","","","","","","","14985","","{""P0_Q0"":null,""P0_Q1"":{""wealthy"":2,""safe"":2,""walkable"":2,""traditional"":1,""diverse"":1}}","","","","","","3","[]","","","","",""
"dot matrix survey2","survey","86","662822","0.0-86.0","","656776a7904ae00d6b91d1dd","6568a8644aa3a143f28354e1","8","","","","","","","","","","","","11143","","{""P0_Q0"":null,""P0_Q1"":{""violence"":0,""crime"":0,""drug"":0,""schools"":2,""opportunities"":2}}","","","","","","3","[]","","","","",""
"dot matrix survey3","survey","87","673292","0.0-87.0","","656776a7904ae00d6b91d1dd","6568a8644aa3a143f28354e1","8","","","","","","","","","","","","10465","","{""P0_Q0"":null,""P0_Q1"":{""movein"":3,""moveout"":1,""shopping"":3,""walk"":3,""park"":3,""school"":3}}","","","","","","3","[]","","","","",""
"sliderTrial","html-slider-response","88","677225","0.0-88.0","","656776a7904ae00d6b91d1dd","6568a8644aa3a143f28354e1","8","","","","","","","","","","","","3932","[""SV_PolicingMSA/TX_575/IMG_3_575.jpg"",""SV_PolicingMSA/TX_575/IMG_12_575.jpg"",""SV_PolicingMSA/TX_575/IMG_10_575.jpg"",""SV_PolicingMSA/TX_575/IMG_5_575.jpg"",""SV_PolicingMSA/TX_575/IMG_14_575.jpg"",""SV_PolicingMSA/TX_575/IMG_9_575.jpg"",""SV_PolicingMSA/TX_575/IMG_6_575.jpg"",""SV_PolicingMSA/TX_575/IMG_4_575.jpg""]","2","","","","","","3","","4","[""./rc_img/cop_condGroup_8_CommunitySafety_autoscaled.png"",""./rc_img/cop_condGroup_8_SafeStreets_autoscaled.png""]","2","",""
"sliderTrial","html-slider-response","89","679481","0.0-89.0","","656776a7904ae00d6b91d1dd","6568a8644aa3a143f28354e1","8","","","","","","","","","","","","2254","[""SV_PolicingMSA/TX_575/IMG_3_575.jpg"",""SV_PolicingMSA/TX_575/IMG_12_575.jpg"",""SV_PolicingMSA/TX_575/IMG_10_575.jpg"",""SV_PolicingMSA/TX_575/IMG_5_575.jpg"",""SV_PolicingMSA/TX_575/IMG_14_575.jpg"",""SV_PolicingMSA/TX_575/IMG_9_575.jpg"",""SV_PolicingMSA/TX_575/IMG_6_575.jpg"",""SV_PolicingMSA/TX_575/IMG_4_575.jpg""]","6","","","","","","3","","4","[""./rc_img/cop_condGroup_20_SafeStreets_autoscaled.png"",""./rc_img/cop_condGroup_20_CommunitySafety_autoscaled.png""]","2","",""
"sliderTrial","html-slider-response","90","681788","0.0-90.0","","656776a7904ae00d6b91d1dd","6568a8644aa3a143f28354e1","8","","","","","","","","","","","","2306","[""SV_PolicingMSA/TX_575/IMG_3_575.jpg"",""SV_PolicingMSA/TX_575/IMG_12_575.jpg"",""SV_PolicingMSA/TX_575/IMG_10_575.jpg"",""SV_PolicingMSA/TX_575/IMG_5_575.jpg"",""SV_PolicingMSA/TX_575/IMG_14_575.jpg"",""SV_PolicingMSA/TX_575/IMG_9_575.jpg"",""SV_PolicingMSA/TX_575/IMG_6_575.jpg"",""SV_PolicingMSA/TX_575/IMG_4_575.jpg""]","2","","","","","","3","","4","[""./rc_img/cop_condGroup_11_CommunitySafety_autoscaled.png"",""./rc_img/cop_condGroup_11_SafeStreets_autoscaled.png""]","2","",""
"sliderTrial","html-slider-response","91","684391","0.0-91.0","","656776a7904ae00d6b91d1dd","6568a8644aa3a143f28354e1","8","","","","","","","","","","","","2602","[""SV_PolicingMSA/TX_575/IMG_3_575.jpg"",""SV_PolicingMSA/TX_575/IMG_12_575.jpg"",""SV_PolicingMSA/TX_575/IMG_10_575.jpg"",""SV_PolicingMSA/TX_575/IMG_5_575.jpg"",""SV_PolicingMSA/TX_575/IMG_14_575.jpg"",""SV_PolicingMSA/TX_575/IMG_9_575.jpg"",""SV_PolicingMSA/TX_575/IMG_6_575.jpg"",""SV_PolicingMSA/TX_575/IMG_4_575.jpg""]","6","","","","","","3","","4","[""./rc_img/cop_condGroup_6_SafeStreets_autoscaled.png"",""./rc_img/cop_condGroup_6_CommunitySafety_autoscaled.png""]","2","",""
"sliderTrial","html-slider-response","92","686891","0.0-92.0","","656776a7904ae00d6b91d1dd","6568a8644aa3a143f28354e1","8","","","","","","","","","","","","2512","[""SV_PolicingMSA/TX_575/IMG_3_575.jpg"",""SV_PolicingMSA/TX_575/IMG_12_575.jpg"",""SV_PolicingMSA/TX_575/IMG_10_575.jpg"",""SV_PolicingMSA/TX_575/IMG_5_575.jpg"",""SV_PolicingMSA/TX_575/IMG_14_575.jpg"",""SV_PolicingMSA/TX_575/IMG_9_575.jpg"",""SV_PolicingMSA/TX_575/IMG_6_575.jpg"",""SV_PolicingMSA/TX_575/IMG_4_575.jpg""]","2","","","","","","3","","4","[""./rc_img/cop_condGroup_3_CommunitySafety_autoscaled.png"",""./rc_img/cop_condGroup_3_SafeStreets_autoscaled.png""]","2","",""
"before_SVSlide_prompt","html-button-response","93","687928","0.0-93.0","","656776a7904ae00d6b91d1dd","6568a8644aa3a143f28354e1","8","","","","","","","","","","","","1036","Click [Next] to see the next neighborhood!","0","","","","","","","","","","","",""
"street view slide show","image-button-response","94","688944","0.0-94.0","","656776a7904ae00d6b91d1dd","6568a8644aa3a143f28354e1","8","","","","","","","","","","","","null","stimulus/SV_PolicingMSA/TX_298/IMG_0_298.jpg","null","","","","","","4","","","","","",""
"street view slide show","image-button-response","95","689950","0.0-95.0","","656776a7904ae00d6b91d1dd","6568a8644aa3a143f28354e1","8","","","","","","","","","","","","null","stimulus/SV_PolicingMSA/TX_298/IMG_2_298.jpg","null","","","","","","4","","","","","",""
"street view slide show","image-button-response","96","690956","0.0-96.0","","656776a7904ae00d6b91d1dd","6568a8644aa3a143f28354e1","8","","","","","","","","","","","","null","stimulus/SV_PolicingMSA/TX_298/IMG_13_298.jpg","null","","","","","","4","","","","","",""
"street view slide show","image-button-response","97","691965","0.0-97.0","","656776a7904ae00d6b91d1dd","6568a8644aa3a143f28354e1","8","","","","","","","","","","","","null","stimulus/SV_PolicingMSA/TX_298/IMG_6_298.jpg","null","","","","","","4","","","","","",""
"street view slide show","image-button-response","98","692970","0.0-98.0","","656776a7904ae00d6b91d1dd","6568a8644aa3a143f28354e1","8","","","","","","","","","","","","null","stimulus/SV_PolicingMSA/TX_298/IMG_8_298.jpg","null","","","","","","4","","","","","",""
"street view slide show","image-button-response","99","693974","0.0-99.0","","656776a7904ae00d6b91d1dd","6568a8644aa3a143f28354e1","8","","","","","","","","","","","","null","stimulus/SV_PolicingMSA/TX_298/IMG_3_298.jpg","null","","","","","","4","","","","","",""
"street view slide show","image-button-response","100","694980","0.0-100.0","","656776a7904ae00d6b91d1dd","6568a8644aa3a143f28354e1","8","","","","","","","","","","","","null","stimulus/SV_PolicingMSA/TX_298/IMG_11_298.jpg","null","","","","","","4","","","","","",""
"street view slide show","image-button-response","101","695986","0.0-101.0","","656776a7904ae00d6b91d1dd","6568a8644aa3a143f28354e1","8","","","","","","","","","","","","null","stimulus/SV_PolicingMSA/TX_298/IMG_7_298.jpg","null","","","","","","4","","","","","",""
"dot matrix survey1","survey","102","713561","0.0-102.0","","656776a7904ae00d6b91d1dd","6568a8644aa3a143f28354e1","8","","","","","","","","","","","","17570","","{""P0_Q0"":null,""P0_Q1"":{""wealthy"":3,""safe"":4,""walkable"":4,""traditional"":2,""diverse"":2}}","","","","","","4","[]","","","","",""
"dot matrix survey2","survey","103","722041","0.0-103.0","","656776a7904ae00d6b91d1dd","6568a8644aa3a143f28354e1","8","","","","","","","","","","","","8475","","{""P0_Q0"":null,""P0_Q1"":{""violence"":0,""crime"":0,""drug"":0,""schools"":3,""opportunities"":3}}","","","","","","4","[]","","","","",""
"dot matrix survey3","survey","104","735715","0.0-104.0","","656776a7904ae00d6b91d1dd","6568a8644aa3a143f28354e1","8","","","","","","","","","","","","13670","","{""P0_Q0"":null,""P0_Q1"":{""movein"":4,""moveout"":0,""shopping"":3,""walk"":3,""park"":4,""school"":4}}","","","","","","4","[]","","","","",""
"sliderTrial","html-slider-response","105","738683","0.0-105.0","","656776a7904ae00d6b91d1dd","6568a8644aa3a143f28354e1","8","","","","","","","","","","","","2967","[""SV_PolicingMSA/TX_298/IMG_0_298.jpg"",""SV_PolicingMSA/TX_298/IMG_2_298.jpg"",""SV_PolicingMSA/TX_298/IMG_13_298.jpg"",""SV_PolicingMSA/TX_298/IMG_6_298.jpg"",""SV_PolicingMSA/TX_298/IMG_8_298.jpg"",""SV_PolicingMSA/TX_298/IMG_3_298.jpg"",""SV_PolicingMSA/TX_298/IMG_11_298.jpg"",""SV_PolicingMSA/TX_298/IMG_7_298.jpg""]","2","","","","","","4","","4","[""./rc_img/cop_condGroup_18_CommunitySafety_autoscaled.png"",""./rc_img/cop_condGroup_18_SafeStreets_autoscaled.png""]","2","",""
"sliderTrial","html-slider-response","106","740917","0.0-106.0","","656776a7904ae00d6b91d1dd","6568a8644aa3a143f28354e1","8","","","","","","","","","","","","2233","[""SV_PolicingMSA/TX_298/IMG_0_298.jpg"",""SV_PolicingMSA/TX_298/IMG_2_298.jpg"",""SV_PolicingMSA/TX_298/IMG_13_298.jpg"",""SV_PolicingMSA/TX_298/IMG_6_298.jpg"",""SV_PolicingMSA/TX_298/IMG_8_298.jpg"",""SV_PolicingMSA/TX_298/IMG_3_298.jpg"",""SV_PolicingMSA/TX_298/IMG_11_298.jpg"",""SV_PolicingMSA/TX_298/IMG_7_298.jpg""]","6","","","","","","4","","4","[""./rc_img/cop_condGroup_19_SafeStreets_autoscaled.png"",""./rc_img/cop_condGroup_19_CommunitySafety_autoscaled.png""]","2","",""
"sliderTrial","html-slider-response","107","743551","0.0-107.0","","656776a7904ae00d6b91d1dd","6568a8644aa3a143f28354e1","8","","","","","","","","","","","","2633","[""SV_PolicingMSA/TX_298/IMG_0_298.jpg"",""SV_PolicingMSA/TX_298/IMG_2_298.jpg"",""SV_PolicingMSA/TX_298/IMG_13_298.jpg"",""SV_PolicingMSA/TX_298/IMG_6_298.jpg"",""SV_PolicingMSA/TX_298/IMG_8_298.jpg"",""SV_PolicingMSA/TX_298/IMG_3_298.jpg"",""SV_PolicingMSA/TX_298/IMG_11_298.jpg"",""SV_PolicingMSA/TX_298/IMG_7_298.jpg""]","6","","","","","","4","","4","[""./rc_img/cop_condGroup_4_SafeStreets_autoscaled.png"",""./rc_img/cop_condGroup_4_CommunitySafety_autoscaled.png""]","2","",""
"sliderTrial","html-slider-response","108","746735","0.0-108.0","","656776a7904ae00d6b91d1dd","6568a8644aa3a143f28354e1","8","","","","","","","","","","","","3195","[""SV_PolicingMSA/TX_298/IMG_0_298.jpg"",""SV_PolicingMSA/TX_298/IMG_2_298.jpg"",""SV_PolicingMSA/TX_298/IMG_13_298.jpg"",""SV_PolicingMSA/TX_298/IMG_6_298.jpg"",""SV_PolicingMSA/TX_298/IMG_8_298.jpg"",""SV_PolicingMSA/TX_298/IMG_3_298.jpg"",""SV_PolicingMSA/TX_298/IMG_11_298.jpg"",""SV_PolicingMSA/TX_298/IMG_7_298.jpg""]","6","","","","","","4","","4","[""./rc_img/cop_condGroup_10_SafeStreets_autoscaled.png"",""./rc_img/cop_condGroup_10_CommunitySafety_autoscaled.png""]","2","",""
"sliderTrial","html-slider-response","109","749526","0.0-109.0","","656776a7904ae00d6b91d1dd","6568a8644aa3a143f28354e1","8","","","","","","","","","","","","2790","[""SV_PolicingMSA/TX_298/IMG_0_298.jpg"",""SV_PolicingMSA/TX_298/IMG_2_298.jpg"",""SV_PolicingMSA/TX_298/IMG_13_298.jpg"",""SV_PolicingMSA/TX_298/IMG_6_298.jpg"",""SV_PolicingMSA/TX_298/IMG_8_298.jpg"",""SV_PolicingMSA/TX_298/IMG_3_298.jpg"",""SV_PolicingMSA/TX_298/IMG_11_298.jpg"",""SV_PolicingMSA/TX_298/IMG_7_298.jpg""]","2","","","","","","4","","4","[""./rc_img/cop_condGroup_7_CommunitySafety_autoscaled.png"",""./rc_img/cop_condGroup_7_SafeStreets_autoscaled.png""]","2","",""
"before_SVSlide_prompt","html-button-response","110","752655","0.0-110.0","","656776a7904ae00d6b91d1dd","6568a8644aa3a143f28354e1","8","","","","","","","","","","","","3128","Click [Next] to see the next neighborhood!","0","","","","","","","","","","","",""
"street view slide show","image-button-response","111","753656","0.0-111.0","","656776a7904ae00d6b91d1dd","6568a8644aa3a143f28354e1","8","","","","","","","","","","","","null","stimulus/SV_PolicingMSA/TX_576/IMG_10_576.jpg","null","","","","","","2","","","","","",""
"street view slide show","image-button-response","112","754659","0.0-112.0","","656776a7904ae00d6b91d1dd","6568a8644aa3a143f28354e1","8","","","","","","","","","","","","null","stimulus/SV_PolicingMSA/TX_576/IMG_0_576.jpg","null","","","","","","2","","","","","",""
"street view slide show","image-button-response","113","755665","0.0-113.0","","656776a7904ae00d6b91d1dd","6568a8644aa3a143f28354e1","8","","","","","","","","","","","","null","stimulus/SV_PolicingMSA/TX_576/IMG_7_576.jpg","null","","","","","","2","","","","","",""
"street view slide show","image-button-response","114","756671","0.0-114.0","","656776a7904ae00d6b91d1dd","6568a8644aa3a143f28354e1","8","","","","","","","","","","","","null","stimulus/SV_PolicingMSA/TX_576/IMG_6_576.jpg","null","","","","","","2","","","","","",""
"street view slide show","image-button-response","115","757681","0.0-115.0","","656776a7904ae00d6b91d1dd","6568a8644aa3a143f28354e1","8","","","","","","","","","","","","null","stimulus/SV_PolicingMSA/TX_576/IMG_5_576.jpg","null","","","","","","2","","","","","",""
"street view slide show","image-button-response","116","758687","0.0-116.0","","656776a7904ae00d6b91d1dd","6568a8644aa3a143f28354e1","8","","","","","","","","","","","","null","stimulus/SV_PolicingMSA/TX_576/IMG_13_576.jpg","null","","","","","","2","","","","","",""
"street view slide show","image-button-response","117","759688","0.0-117.0","","656776a7904ae00d6b91d1dd","6568a8644aa3a143f28354e1","8","","","","","","","","","","","","null","stimulus/SV_PolicingMSA/TX_576/IMG_1_576.jpg","null","","","","","","2","","","","","",""
"street view slide show","image-button-response","118","760696","0.0-118.0","","656776a7904ae00d6b91d1dd","6568a8644aa3a143f28354e1","8","","","","","","","","","","","","null","stimulus/SV_PolicingMSA/TX_576/IMG_11_576.jpg","null","","","","","","2","","","","","",""
"dot matrix survey1","survey","119","775332","0.0-119.0","","656776a7904ae00d6b91d1dd","6568a8644aa3a143f28354e1","8","","","","","","","","","","","","14631","","{""P0_Q0"":null,""P0_Q1"":{""wealthy"":2,""safe"":3,""walkable"":3,""traditional"":1,""diverse"":1}}","","","","","","2","[]","","","","",""
"dot matrix survey2","survey","120","782553","0.0-120.0","","656776a7904ae00d6b91d1dd","6568a8644aa3a143f28354e1","8","","","","","","","","","","","","7216","","{""P0_Q0"":null,""P0_Q1"":{""violence"":1,""crime"":1,""drug"":1,""schools"":2,""opportunities"":2}}","","","","","","2","[]","","","","",""
"dot matrix survey3","survey","121","794665","0.0-121.0","","656776a7904ae00d6b91d1dd","6568a8644aa3a143f28354e1","8","","","","","","","","","","","","12108","","{""P0_Q0"":null,""P0_Q1"":{""movein"":1,""moveout"":3,""shopping"":2,""walk"":2,""park"":2,""school"":2}}","","","","","","2","[]","","","","",""
"sliderTrial","html-slider-response","122","797014","0.0-122.0","","656776a7904ae00d6b91d1dd","6568a8644aa3a143f28354e1","8","","","","","","","","","","","","2348","[""SV_PolicingMSA/TX_576/IMG_10_576.jpg"",""SV_PolicingMSA/TX_576/IMG_0_576.jpg"",""SV_PolicingMSA/TX_576/IMG_7_576.jpg"",""SV_PolicingMSA/TX_576/IMG_6_576.jpg"",""SV_PolicingMSA/TX_576/IMG_5_576.jpg"",""SV_PolicingMSA/TX_576/IMG_13_576.jpg"",""SV_PolicingMSA/TX_576/IMG_1_576.jpg"",""SV_PolicingMSA/TX_576/IMG_11_576.jpg""]","6","","","","","","2","","4","[""./rc_img/cop_condGroup_2_SafeStreets_autoscaled.png"",""./rc_img/cop_condGroup_2_CommunitySafety_autoscaled.png""]","2","",""
"sliderTrial","html-slider-response","123","798643","0.0-123.0","","656776a7904ae00d6b91d1dd","6568a8644aa3a143f28354e1","8","","","","","","","","","","","","1628","[""SV_PolicingMSA/TX_576/IMG_10_576.jpg"",""SV_PolicingMSA/TX_576/IMG_0_576.jpg"",""SV_PolicingMSA/TX_576/IMG_7_576.jpg"",""SV_PolicingMSA/TX_576/IMG_6_576.jpg"",""SV_PolicingMSA/TX_576/IMG_5_576.jpg"",""SV_PolicingMSA/TX_576/IMG_13_576.jpg"",""SV_PolicingMSA/TX_576/IMG_1_576.jpg"",""SV_PolicingMSA/TX_576/IMG_11_576.jpg""]","6","","","","","","2","","4","[""./rc_img/cop_condGroup_13_SafeStreets_autoscaled.png"",""./rc_img/cop_condGroup_13_CommunitySafety_autoscaled.png""]","2","",""
"sliderTrial","html-slider-response","124","800896","0.0-124.0","","656776a7904ae00d6b91d1dd","6568a8644aa3a143f28354e1","8","","","","","","","","","","","","2252","[""SV_PolicingMSA/TX_576/IMG_10_576.jpg"",""SV_PolicingMSA/TX_576/IMG_0_576.jpg"",""SV_PolicingMSA/TX_576/IMG_7_576.jpg"",""SV_PolicingMSA/TX_576/IMG_6_576.jpg"",""SV_PolicingMSA/TX_576/IMG_5_576.jpg"",""SV_PolicingMSA/TX_576/IMG_13_576.jpg"",""SV_PolicingMSA/TX_576/IMG_1_576.jpg"",""SV_PolicingMSA/TX_576/IMG_11_576.jpg""]","6","","","","","","2","","4","[""./rc_img/cop_condGroup_1_SafeStreets_autoscaled.png"",""./rc_img/cop_condGroup_1_CommunitySafety_autoscaled.png""]","2","",""
"sliderTrial","html-slider-response","125","803203","0.0-125.0","","656776a7904ae00d6b91d1dd","6568a8644aa3a143f28354e1","8","","","","","","","","","","","","2306","[""SV_PolicingMSA/TX_576/IMG_10_576.jpg"",""SV_PolicingMSA/TX_576/IMG_0_576.jpg"",""SV_PolicingMSA/TX_576/IMG_7_576.jpg"",""SV_PolicingMSA/TX_576/IMG_6_576.jpg"",""SV_PolicingMSA/TX_576/IMG_5_576.jpg"",""SV_PolicingMSA/TX_576/IMG_13_576.jpg"",""SV_PolicingMSA/TX_576/IMG_1_576.jpg"",""SV_PolicingMSA/TX_576/IMG_11_576.jpg""]","6","","","","","","2","","4","[""./rc_img/cop_condGroup_16_SafeStreets_autoscaled.png"",""./rc_img/cop_condGroup_16_CommunitySafety_autoscaled.png""]","2","",""
"sliderTrial","html-slider-response","126","805304","0.0-126.0","","656776a7904ae00d6b91d1dd","6568a8644aa3a143f28354e1","8","","","","","","","","","","","","2100","[""SV_PolicingMSA/TX_576/IMG_10_576.jpg"",""SV_PolicingMSA/TX_576/IMG_0_576.jpg"",""SV_PolicingMSA/TX_576/IMG_7_576.jpg"",""SV_PolicingMSA/TX_576/IMG_6_576.jpg"",""SV_PolicingMSA/TX_576/IMG_5_576.jpg"",""SV_PolicingMSA/TX_576/IMG_13_576.jpg"",""SV_PolicingMSA/TX_576/IMG_1_576.jpg"",""SV_PolicingMSA/TX_576/IMG_11_576.jpg""]","6","","","","","","2","","4","[""./rc_img/cop_condGroup_9_SafeStreets_autoscaled.png"",""./rc_img/cop_condGroup_9_CommunitySafety_autoscaled.png""]","2","",""
"before_SVSlide_prompt","html-button-response","127","809017","0.0-127.0","","656776a7904ae00d6b91d1dd","6568a8644aa3a143f28354e1","8","","","","","","","","","","","","3725","Click [Next] to see the next neighborhood!","0","","","","","","","","","","","",""
"street view slide show","image-button-response","128","810034","0.0-128.0","","656776a7904ae00d6b91d1dd","6568a8644aa3a143f28354e1","8","","","","","","","","","","","","null","stimulus/SV_PolicingMSA/TX_130/IMG_14_130.jpg","null","","","","","","0","","","","","",""
"street view slide show","image-button-response","129","811041","0.0-129.0","","656776a7904ae00d6b91d1dd","6568a8644aa3a143f28354e1","8","","","","","","","","","","","","null","stimulus/SV_PolicingMSA/TX_130/IMG_13_130.jpg","null","","","","","","0","","","","","",""
"street view slide show","image-button-response","130","812055","0.0-130.0","","656776a7904ae00d6b91d1dd","6568a8644aa3a143f28354e1","8","","","","","","","","","","","","null","stimulus/SV_PolicingMSA/TX_130/IMG_12_130.jpg","null","","","","","","0","","","","","",""
"street view slide show","image-button-response","131","813060","0.0-131.0","","656776a7904ae00d6b91d1dd","6568a8644aa3a143f28354e1","8","","","","","","","","","","","","null","stimulus/SV_PolicingMSA/TX_130/IMG_8_130.jpg","null","","","","","","0","","","","","",""
"street view slide show","image-button-response","132","814068","0.0-132.0","","656776a7904ae00d6b91d1dd","6568a8644aa3a143f28354e1","8","","","","","","","","","","","","null","stimulus/SV_PolicingMSA/TX_130/IMG_4_130.jpg","null","","","","","","0","","","","","",""
"street view slide show","image-button-response","133","815069","0.0-133.0","","656776a7904ae00d6b91d1dd","6568a8644aa3a143f28354e1","8","","","","","","","","","","","","null","stimulus/SV_PolicingMSA/TX_130/IMG_10_130.jpg","null","","","","","","0","","","","","",""
"street view slide show","image-button-response","134","816070","0.0-134.0","","656776a7904ae00d6b91d1dd","6568a8644aa3a143f28354e1","8","","","","","","","","","","","","null","stimulus/SV_PolicingMSA/TX_130/IMG_0_130.jpg","null","","","","","","0","","","","","",""
"street view slide show","image-button-response","135","817086","0.0-135.0","","656776a7904ae00d6b91d1dd","6568a8644aa3a143f28354e1","8","","","","","","","","","","","","null","stimulus/SV_PolicingMSA/TX_130/IMG_7_130.jpg","null","","","","","","0","","","","","",""
"dot matrix survey1","survey","136","830455","0.0-136.0","","656776a7904ae00d6b91d1dd","6568a8644aa3a143f28354e1","8","","","","","","","","","","","","13364","","{""P0_Q0"":null,""P0_Q1"":{""wealthy"":1,""safe"":2,""walkable"":2,""traditional"":1,""diverse"":1}}","","","","","","0","[]","","","","",""
"dot matrix survey2","survey","137","840512","0.0-137.0","","656776a7904ae00d6b91d1dd","6568a8644aa3a143f28354e1","8","","","","","","","","","","","","10053","","{""P0_Q0"":null,""P0_Q1"":{""violence"":1,""crime"":1,""drug"":1,""schools"":2,""opportunities"":2}}","","","","","","0","[]","","","","",""
"dot matrix survey3","survey","138","854640","0.0-138.0","","656776a7904ae00d6b91d1dd","6568a8644aa3a143f28354e1","8","","","","","","","","","","","","14124","","{""P0_Q0"":null,""P0_Q1"":{""movein"":2,""moveout"":2,""shopping"":3,""walk"":2,""park"":2,""school"":1}}","","","","","","0","[]","","","","",""
"sliderTrial","html-slider-response","139","856997","0.0-139.0","","656776a7904ae00d6b91d1dd","6568a8644aa3a143f28354e1","8","","","","","","","","","","","","2356","[""SV_PolicingMSA/TX_130/IMG_14_130.jpg"",""SV_PolicingMSA/TX_130/IMG_13_130.jpg"",""SV_PolicingMSA/TX_130/IMG_12_130.jpg"",""SV_PolicingMSA/TX_130/IMG_8_130.jpg"",""SV_PolicingMSA/TX_130/IMG_4_130.jpg"",""SV_PolicingMSA/TX_130/IMG_10_130.jpg"",""SV_PolicingMSA/TX_130/IMG_0_130.jpg"",""SV_PolicingMSA/TX_130/IMG_7_130.jpg""]","6","","","","","","0","","4","[""./rc_img/cop_condGroup_2_SafeStreets_autoscaled.png"",""./rc_img/cop_condGroup_2_CommunitySafety_autoscaled.png""]","2","",""
"sliderTrial_attention","html-slider-response","140","866993","0.0-140.0","","656776a7904ae00d6b91d1dd","6568a8644aa3a143f28354e1","8","","","","","","","","","","","","null","[""SV_PolicingMSA/TX_130/IMG_14_130.jpg"",""SV_PolicingMSA/TX_130/IMG_13_130.jpg"",""SV_PolicingMSA/TX_130/IMG_12_130.jpg"",""SV_PolicingMSA/TX_130/IMG_8_130.jpg"",""SV_PolicingMSA/TX_130/IMG_4_130.jpg"",""SV_PolicingMSA/TX_130/IMG_10_130.jpg"",""SV_PolicingMSA/TX_130/IMG_0_130.jpg"",""SV_PolicingMSA/TX_130/IMG_7_130.jpg""]","null","","","","","","0","","4","[""./assets/img/attnchk.png"",""./assets/img/attnchk.png""]","","true",""
"sliderTrial","html-slider-response","141","884121","0.0-141.0","","656776a7904ae00d6b91d1dd","6568a8644aa3a143f28354e1","8","","","","","","","","","","","","17127","[""SV_PolicingMSA/TX_130/IMG_14_130.jpg"",""SV_PolicingMSA/TX_130/IMG_13_130.jpg"",""SV_PolicingMSA/TX_130/IMG_12_130.jpg"",""SV_PolicingMSA/TX_130/IMG_8_130.jpg"",""SV_PolicingMSA/TX_130/IMG_4_130.jpg"",""SV_PolicingMSA/TX_130/IMG_10_130.jpg"",""SV_PolicingMSA/TX_130/IMG_0_130.jpg"",""SV_PolicingMSA/TX_130/IMG_7_130.jpg""]","6","","","","","","0","","4","[""./rc_img/cop_condGroup_13_SafeStreets_autoscaled.png"",""./rc_img/cop_condGroup_13_CommunitySafety_autoscaled.png""]","2","",""
"sliderTrial","html-slider-response","142","922097","0.0-142.0","","656776a7904ae00d6b91d1dd","6568a8644aa3a143f28354e1","8","","","","","","","","","","","","37974","[""SV_PolicingMSA/TX_130/IMG_14_130.jpg"",""SV_PolicingMSA/TX_130/IMG_13_130.jpg"",""SV_PolicingMSA/TX_130/IMG_12_130.jpg"",""SV_PolicingMSA/TX_130/IMG_8_130.jpg"",""SV_PolicingMSA/TX_130/IMG_4_130.jpg"",""SV_PolicingMSA/TX_130/IMG_10_130.jpg"",""SV_PolicingMSA/TX_130/IMG_0_130.jpg"",""SV_PolicingMSA/TX_130/IMG_7_130.jpg""]","6","","","","","","0","","4","[""./rc_img/cop_condGroup_1_SafeStreets_autoscaled.png"",""./rc_img/cop_condGroup_1_CommunitySafety_autoscaled.png""]","2","",""
"sliderTrial","html-slider-response","143","924161","0.0-143.0","","656776a7904ae00d6b91d1dd","6568a8644aa3a143f28354e1","8","","","","","","","","","","","","2063","[""SV_PolicingMSA/TX_130/IMG_14_130.jpg"",""SV_PolicingMSA/TX_130/IMG_13_130.jpg"",""SV_PolicingMSA/TX_130/IMG_12_130.jpg"",""SV_PolicingMSA/TX_130/IMG_8_130.jpg"",""SV_PolicingMSA/TX_130/IMG_4_130.jpg"",""SV_PolicingMSA/TX_130/IMG_10_130.jpg"",""SV_PolicingMSA/TX_130/IMG_0_130.jpg"",""SV_PolicingMSA/TX_130/IMG_7_130.jpg""]","6","","","","","","0","","4","[""./rc_img/cop_condGroup_16_SafeStreets_autoscaled.png"",""./rc_img/cop_condGroup_16_CommunitySafety_autoscaled.png""]","2","",""
"sliderTrial","html-slider-response","144","927145","0.0-144.0","","656776a7904ae00d6b91d1dd","6568a8644aa3a143f28354e1","8","","","","","","","","","","","","2996","[""SV_PolicingMSA/TX_130/IMG_14_130.jpg"",""SV_PolicingMSA/TX_130/IMG_13_130.jpg"",""SV_PolicingMSA/TX_130/IMG_12_130.jpg"",""SV_PolicingMSA/TX_130/IMG_8_130.jpg"",""SV_PolicingMSA/TX_130/IMG_4_130.jpg"",""SV_PolicingMSA/TX_130/IMG_10_130.jpg"",""SV_PolicingMSA/TX_130/IMG_0_130.jpg"",""SV_PolicingMSA/TX_130/IMG_7_130.jpg""]","6","","","","","","0","","4","[""./rc_img/cop_condGroup_9_SafeStreets_autoscaled.png"",""./rc_img/cop_condGroup_9_CommunitySafety_autoscaled.png""]","2","",""
"demographics","survey-html-form","145","942922","0.0-145.0","","656776a7904ae00d6b91d1dd","6568a8644aa3a143f28354e1","8","","","","","","","","","","","","15776","","{""age"":""24"",""sex"":""female"",""gender"":""woman"",""gender-self-describe"":"""",""zipcode"":""84043""}","","","","","","","","","","","",""
"demographics-list","survey","146","1001001","0.0-146.0","","656776a7904ae00d6b91d1dd","6568a8644aa3a143f28354e1","8","","","","","","","","","","","","58076","","{""P0_Q0"":null,""race-ethnicity"":[""White or of European ancestry""],""education"":""High school diploma or equivalent"",""P1_Q0"":null,""ideology"":""Liberal"",""P2_Q0"":null,""num-moves"":1,""P3_Q0"":null,""social-ladder"":4}","","","","","","","[]","","","","",""
"end-survey","survey-text","147","1013061","0.0-147.0","","656776a7904ae00d6b91d1dd","6568a8644aa3a143f28354e1","8","","","","","","","","","","","","12053","","{""Q0"":""""}","","","","","","","","","","","","2"
"end-survey","html-button-response","148","1017438","0.0-148.0","","656776a7904ae00d6b91d1dd","6568a8644aa3a143f28354e1","8","","","","","","","","","","","","4376","
    You've reached the end of the survey. <br><br> 
    <b>Do not close or refresh this window.</b><br>
    On the next page, you will be automatically redirected to Prolific. <br><br>

    <div class=""alert alert-warning""><b>
    </div>
","0","","","","","","","","","","","",""
