"task","trial_type","trial_index","time_elapsed","internal_node_id","subject_id","study_id","session_id","section","width","height","webaudio","browser","browser_version","mobile","os","fullscreen","vsync_rate","webcam","microphone","rt","stimulus","response","success","timeout","failed_images","failed_audio","failed_video","block","accuracy","slider_start","choices","standardized_response","correct","num_attention_checks_correct"
"pavlovia-init","pavlovia","0","2550","0.0-0.0","","656776a7904ae00d6b91d1dd","6568aa63267e0448c2576f49","11","","","","","","","","","","","","","","","","","","","","","","","","","",""
"browser-check","browser-check","1","3547","0.0-1.0","","656776a7904ae00d6b91d1dd","6568aa63267e0448c2576f49","11","958","1113","true","chrome","118.0.0","false","Windows 10","true","60.48","true","true","","","","","","","","","","","","","","",""
"consent","html-button-response","2","28660","0.0-2.0","","656776a7904ae00d6b91d1dd","6568aa63267e0448c2576f49","11","","","","","","","","","","","","25112","
        <div style=""font-size: 80%; max-width:700px"">
            <h2>CONSENT FORM</h2>
        
            <div style=""text-align: left"">
            <h4>DESCRIPTION</h4>
            <p>
            You will complete a short task where you give your impressions of various neighborhoods and assign individuals to those spaces, and answer some questions about your thoughts and opinions.<br>
            The University of Michigan Institutional Review Board Health Sciences and Behavioral Sciences has determined that this study is exempt from IRB oversight.
            </p>

            <h4>TIME INVOLVEMENT</h4>
            <p>Your participation will take approximately 15 minutes. You will receive $3.15 upon completion of the study.</p>
        
            <h4>RISKS AND BENEFITS</h4>
            <p>
            The risks associated with this study are minimal. The benefits which may reasonably be expected to result from this study are none. We cannot and do not guarantee or promise that you will receive any benefits from this study.
            </p>
          
            <h4>SUBJECT'S RIGHTS</h4>
            <p>
            If you have read this form and have decided to participate in this project, please understand your participation is voluntary and you have the right to withdraw your consent or discontinue participation at any time without penalty or loss of benefits to which you are otherwise entitled. The alternative is not to participate. You have the right to refuse to answer particular questions. Your individual privacy will be maintained in all published and written data resulting from the study.
            </p>

            <h4>HUMAN SUBJECT APPROVAL</h4>
            <p>
            This study is exempt from ongoing IRB review.
            </p>

            <h4>CONTACT INFORMATION</h4>
            If you have any questions, concerns or complaints about this research, its procedures, risks and benefits, contact the Protocol Director, Nicholas Camp, npcamp@umich.edu, (443) 851-6783. <br>

            If you have questions about your rights as a research participant, or wish to obtain information, ask questions or discuss any concerns about this study with someone other than the researcher(s), please contact the following:<br><br>
            University of Michigan<br>
            Health Sciences and Behavioral Sciences Institutional Review Board (IRB-HSBS)<br>
            2800 Plymouth Road<br>
            Building 520, Room 1169Ann Arbor, MI 48109-2800<br>
            Telephone: 734-936-0933 or toll free (866) 936-0933<br>
            Fax: 734-936-1852<br>
            E-mail: irbhsbs@umich.edu<br><br>

            You can also contact the University of Michigan Compliance Hotline at 1-866-990-0111. You may also print this consent form to keep.
            <br><br>
            <div class=""alert alert-warning""><b>
            Do you consent to participate in this study? If you consent to participate in this study, please click “Accept and Continue”. If you select ""Decline and Exit"", you will be exited from the survey. <br>
            </b></div>
            </div>
        </div>
    ","1","","","","","","","","","","","",""
"","preload","3","36702","0.0-3.0","","656776a7904ae00d6b91d1dd","6568aa63267e0448c2576f49","11","","","","","","","","","","","","","","","true","false","[]","[]","[]","","","","","","",""
"instructions","html-button-response","4","48754","0.0-4.0","","656776a7904ae00d6b91d1dd","6568aa63267e0448c2576f49","11","","","","","","","","","","","","12050","
        <div class=""text-container"">
        <h1>Welcome to the study!</h1>
        
        <div class=""text-left"">
            <p>
                In this study, we are interested in what people can tell about spaces from Google Street View images. <br> Google Street View takes pictures of streets used for Google Earth and Google Maps. <br>You’ll see Google Street View images of different places and answer some questions about each one.<br>
            </p>
        </div>
        <img src = ""assets/img/example.png"" width = 500px, height = auto>
        <br>
    <br>
    ","0","","","","","","","","","","","",""
"instructions","html-button-response","5","875424","0.0-5.0","","656776a7904ae00d6b91d1dd","6568aa63267e0448c2576f49","11","","","","","","","","","","","","826662","
    <div class=""text-container"">
        <div class=""text-center"">
            <p>Please remember that your answers are completely anonymous.<br>Go with your gut response- there are no right or wrong answers!</p>
        </div>
    <br>
","0","","","","","","","","","","","",""
"before_SVSlide_prompt","html-button-response","6","877818","0.0-6.0","","656776a7904ae00d6b91d1dd","6568aa63267e0448c2576f49","11","","","","","","","","","","","","2391","Click [Next] to see the next neighborhood!","0","","","","","","","","","","","",""
"street view slide show","image-button-response","7","878823","0.0-7.0","","656776a7904ae00d6b91d1dd","6568aa63267e0448c2576f49","11","","","","","","","","","","","","null","stimulus/SV_PolicingMSA/NY_2731/IMG_2_2731.jpg","null","","","","","","3","","","","","",""
"street view slide show","image-button-response","8","879829","0.0-8.0","","656776a7904ae00d6b91d1dd","6568aa63267e0448c2576f49","11","","","","","","","","","","","","null","stimulus/SV_PolicingMSA/NY_2731/IMG_9_2731.jpg","null","","","","","","3","","","","","",""
"street view slide show","image-button-response","9","880845","0.0-9.0","","656776a7904ae00d6b91d1dd","6568aa63267e0448c2576f49","11","","","","","","","","","","","","null","stimulus/SV_PolicingMSA/NY_2731/IMG_3_2731.jpg","null","","","","","","3","","","","","",""
"street view slide show","image-button-response","10","881854","0.0-10.0","","656776a7904ae00d6b91d1dd","6568aa63267e0448c2576f49","11","","","","","","","","","","","","null","stimulus/SV_PolicingMSA/NY_2731/IMG_11_2731.jpg","null","","","","","","3","","","","","",""
"street view slide show","image-button-response","11","882858","0.0-11.0","","656776a7904ae00d6b91d1dd","6568aa63267e0448c2576f49","11","","","","","","","","","","","","null","stimulus/SV_PolicingMSA/NY_2731/IMG_5_2731.jpg","null","","","","","","3","","","","","",""
"street view slide show","image-button-response","12","883864","0.0-12.0","","656776a7904ae00d6b91d1dd","6568aa63267e0448c2576f49","11","","","","","","","","","","","","null","stimulus/SV_PolicingMSA/NY_2731/IMG_8_2731.jpg","null","","","","","","3","","","","","",""
"street view slide show","image-button-response","13","884872","0.0-13.0","","656776a7904ae00d6b91d1dd","6568aa63267e0448c2576f49","11","","","","","","","","","","","","null","stimulus/SV_PolicingMSA/NY_2731/IMG_12_2731.jpg","null","","","","","","3","","","","","",""
"street view slide show","image-button-response","14","885881","0.0-14.0","","656776a7904ae00d6b91d1dd","6568aa63267e0448c2576f49","11","","","","","","","","","","","","null","stimulus/SV_PolicingMSA/NY_2731/IMG_10_2731.jpg","null","","","","","","3","","","","","",""
"dot matrix survey1","survey","15","897188","0.0-15.0","","656776a7904ae00d6b91d1dd","6568aa63267e0448c2576f49","11","","","","","","","","","","","","11230","","{""P0_Q0"":null,""P0_Q1"":{""diverse"":3,""traditional"":3,""wealthy"":3,""safe"":3,""walkable"":3}}","","","","","","3","[]","","","","",""
"dot matrix survey2","survey","16","963364","0.0-16.0","","656776a7904ae00d6b91d1dd","6568aa63267e0448c2576f49","11","","","","","","","","","","","","66161","","{""P0_Q0"":null,""P0_Q1"":{""opportunities"":3,""violence"":3,""crime"":3,""drug"":3,""schools"":3}}","","","","","","3","[]","","","","",""
"dot matrix survey3","survey","17","1003241","0.0-17.0","","656776a7904ae00d6b91d1dd","6568aa63267e0448c2576f49","11","","","","","","","","","","","","39866","","{""P0_Q0"":null,""P0_Q1"":{""school"":3,""movein"":3,""moveout"":3,""shopping"":3,""walk"":3,""park"":3}}","","","","","","3","[]","","","","",""
"sliderTrial","html-slider-response","18","1004552","0.0-18.0","","656776a7904ae00d6b91d1dd","6568aa63267e0448c2576f49","11","","","","","","","","","","","","1308","[""SV_PolicingMSA/NY_2731/IMG_2_2731.jpg"",""SV_PolicingMSA/NY_2731/IMG_9_2731.jpg"",""SV_PolicingMSA/NY_2731/IMG_3_2731.jpg"",""SV_PolicingMSA/NY_2731/IMG_11_2731.jpg"",""SV_PolicingMSA/NY_2731/IMG_5_2731.jpg"",""SV_PolicingMSA/NY_2731/IMG_8_2731.jpg"",""SV_PolicingMSA/NY_2731/IMG_12_2731.jpg"",""SV_PolicingMSA/NY_2731/IMG_10_2731.jpg""]","4","","","","","","3","","4","[""./rc_img/cop_condGroup_5_SafeStreets_autoscaled.png"",""./rc_img/cop_condGroup_5_CommunitySafety_autoscaled.png""]","4","",""
"sliderTrial","html-slider-response","19","1005421","0.0-19.0","","656776a7904ae00d6b91d1dd","6568aa63267e0448c2576f49","11","","","","","","","","","","","","868","[""SV_PolicingMSA/NY_2731/IMG_2_2731.jpg"",""SV_PolicingMSA/NY_2731/IMG_9_2731.jpg"",""SV_PolicingMSA/NY_2731/IMG_3_2731.jpg"",""SV_PolicingMSA/NY_2731/IMG_11_2731.jpg"",""SV_PolicingMSA/NY_2731/IMG_5_2731.jpg"",""SV_PolicingMSA/NY_2731/IMG_8_2731.jpg"",""SV_PolicingMSA/NY_2731/IMG_12_2731.jpg"",""SV_PolicingMSA/NY_2731/IMG_10_2731.jpg""]","4","","","","","","3","","4","[""./rc_img/cop_condGroup_8_CommunitySafety_autoscaled.png"",""./rc_img/cop_condGroup_8_SafeStreets_autoscaled.png""]","4","",""
"sliderTrial","html-slider-response","20","1006127","0.0-20.0","","656776a7904ae00d6b91d1dd","6568aa63267e0448c2576f49","11","","","","","","","","","","","","704","[""SV_PolicingMSA/NY_2731/IMG_2_2731.jpg"",""SV_PolicingMSA/NY_2731/IMG_9_2731.jpg"",""SV_PolicingMSA/NY_2731/IMG_3_2731.jpg"",""SV_PolicingMSA/NY_2731/IMG_11_2731.jpg"",""SV_PolicingMSA/NY_2731/IMG_5_2731.jpg"",""SV_PolicingMSA/NY_2731/IMG_8_2731.jpg"",""SV_PolicingMSA/NY_2731/IMG_12_2731.jpg"",""SV_PolicingMSA/NY_2731/IMG_10_2731.jpg""]","4","","","","","","3","","4","[""./rc_img/cop_condGroup_18_CommunitySafety_autoscaled.png"",""./rc_img/cop_condGroup_18_SafeStreets_autoscaled.png""]","4","",""
"sliderTrial","html-slider-response","21","1006854","0.0-21.0","","656776a7904ae00d6b91d1dd","6568aa63267e0448c2576f49","11","","","","","","","","","","","","726","[""SV_PolicingMSA/NY_2731/IMG_2_2731.jpg"",""SV_PolicingMSA/NY_2731/IMG_9_2731.jpg"",""SV_PolicingMSA/NY_2731/IMG_3_2731.jpg"",""SV_PolicingMSA/NY_2731/IMG_11_2731.jpg"",""SV_PolicingMSA/NY_2731/IMG_5_2731.jpg"",""SV_PolicingMSA/NY_2731/IMG_8_2731.jpg"",""SV_PolicingMSA/NY_2731/IMG_12_2731.jpg"",""SV_PolicingMSA/NY_2731/IMG_10_2731.jpg""]","4","","","","","","3","","4","[""./rc_img/cop_condGroup_16_CommunitySafety_autoscaled.png"",""./rc_img/cop_condGroup_16_SafeStreets_autoscaled.png""]","4","",""
"sliderTrial","html-slider-response","22","1008632","0.0-22.0","","656776a7904ae00d6b91d1dd","6568aa63267e0448c2576f49","11","","","","","","","","","","","","1775","[""SV_PolicingMSA/NY_2731/IMG_2_2731.jpg"",""SV_PolicingMSA/NY_2731/IMG_9_2731.jpg"",""SV_PolicingMSA/NY_2731/IMG_3_2731.jpg"",""SV_PolicingMSA/NY_2731/IMG_11_2731.jpg"",""SV_PolicingMSA/NY_2731/IMG_5_2731.jpg"",""SV_PolicingMSA/NY_2731/IMG_8_2731.jpg"",""SV_PolicingMSA/NY_2731/IMG_12_2731.jpg"",""SV_PolicingMSA/NY_2731/IMG_10_2731.jpg""]","4","","","","","","3","","4","[""./rc_img/cop_condGroup_15_CommunitySafety_autoscaled.png"",""./rc_img/cop_condGroup_15_SafeStreets_autoscaled.png""]","4","",""
"before_SVSlide_prompt","html-button-response","23","1265222","0.0-23.0","","656776a7904ae00d6b91d1dd","6568aa63267e0448c2576f49","11","","","","","","","","","","","","256588","Click [Next] to see the next neighborhood!","0","","","","","","","","","","","",""
"street view slide show","image-button-response","24","1266230","0.0-24.0","","656776a7904ae00d6b91d1dd","6568aa63267e0448c2576f49","11","","","","","","","","","","","","null","stimulus/SV_PolicingMSA/NY_4752/IMG_2_4752.jpg","null","","","","","","5","","","","","",""
"street view slide show","image-button-response","25","1267234","0.0-25.0","","656776a7904ae00d6b91d1dd","6568aa63267e0448c2576f49","11","","","","","","","","","","","","null","stimulus/SV_PolicingMSA/NY_4752/IMG_7_4752.jpg","null","","","","","","5","","","","","",""
"street view slide show","image-button-response","26","1268247","0.0-26.0","","656776a7904ae00d6b91d1dd","6568aa63267e0448c2576f49","11","","","","","","","","","","","","null","stimulus/SV_PolicingMSA/NY_4752/IMG_12_4752.jpg","null","","","","","","5","","","","","",""
"street view slide show","image-button-response","27","1269252","0.0-27.0","","656776a7904ae00d6b91d1dd","6568aa63267e0448c2576f49","11","","","","","","","","","","","","null","stimulus/SV_PolicingMSA/NY_4752/IMG_4_4752.jpg","null","","","","","","5","","","","","",""
"street view slide show","image-button-response","28","1270271","0.0-28.0","","656776a7904ae00d6b91d1dd","6568aa63267e0448c2576f49","11","","","","","","","","","","","","null","stimulus/SV_PolicingMSA/NY_4752/IMG_9_4752.jpg","null","","","","","","5","","","","","",""
"street view slide show","image-button-response","29","1271277","0.0-29.0","","656776a7904ae00d6b91d1dd","6568aa63267e0448c2576f49","11","","","","","","","","","","","","null","stimulus/SV_PolicingMSA/NY_4752/IMG_6_4752.jpg","null","","","","","","5","","","","","",""
"street view slide show","image-button-response","30","1272293","0.0-30.0","","656776a7904ae00d6b91d1dd","6568aa63267e0448c2576f49","11","","","","","","","","","","","","null","stimulus/SV_PolicingMSA/NY_4752/IMG_3_4752.jpg","null","","","","","","5","","","","","",""
"street view slide show","image-button-response","31","1273305","0.0-31.0","","656776a7904ae00d6b91d1dd","6568aa63267e0448c2576f49","11","","","","","","","","","","","","null","stimulus/SV_PolicingMSA/NY_4752/IMG_0_4752.jpg","null","","","","","","5","","","","","",""
"dot matrix survey1","survey","32","1277920","0.0-32.0","","656776a7904ae00d6b91d1dd","6568aa63267e0448c2576f49","11","","","","","","","","","","","","4579","","{""P0_Q0"":null,""P0_Q1"":{""diverse"":3,""traditional"":3,""wealthy"":3,""safe"":3,""walkable"":3}}","","","","","","5","[]","","","","",""
"dot matrix survey2","survey","33","1282241","0.0-33.0","","656776a7904ae00d6b91d1dd","6568aa63267e0448c2576f49","11","","","","","","","","","","","","4312","","{""P0_Q0"":null,""P0_Q1"":{""opportunities"":3,""schools"":3,""drug"":3,""violence"":3,""crime"":3}}","","","","","","5","[]","","","","",""
"dot matrix survey3","survey","34","1287390","0.0-34.0","","656776a7904ae00d6b91d1dd","6568aa63267e0448c2576f49","11","","","","","","","","","","","","5140","","{""P0_Q0"":null,""P0_Q1"":{""movein"":3,""moveout"":3,""shopping"":3,""walk"":3,""park"":3,""school"":3}}","","","","","","5","[]","","","","",""
"sliderTrial","html-slider-response","35","1288540","0.0-35.0","","656776a7904ae00d6b91d1dd","6568aa63267e0448c2576f49","11","","","","","","","","","","","","1148","[""SV_PolicingMSA/NY_4752/IMG_2_4752.jpg"",""SV_PolicingMSA/NY_4752/IMG_7_4752.jpg"",""SV_PolicingMSA/NY_4752/IMG_12_4752.jpg"",""SV_PolicingMSA/NY_4752/IMG_4_4752.jpg"",""SV_PolicingMSA/NY_4752/IMG_9_4752.jpg"",""SV_PolicingMSA/NY_4752/IMG_6_4752.jpg"",""SV_PolicingMSA/NY_4752/IMG_3_4752.jpg"",""SV_PolicingMSA/NY_4752/IMG_0_4752.jpg""]","4","","","","","","5","","4","[""./rc_img/cop_condGroup_5_SafeStreets_autoscaled.png"",""./rc_img/cop_condGroup_5_CommunitySafety_autoscaled.png""]","4","",""
"sliderTrial","html-slider-response","36","1289368","0.0-36.0","","656776a7904ae00d6b91d1dd","6568aa63267e0448c2576f49","11","","","","","","","","","","","","826","[""SV_PolicingMSA/NY_4752/IMG_2_4752.jpg"",""SV_PolicingMSA/NY_4752/IMG_7_4752.jpg"",""SV_PolicingMSA/NY_4752/IMG_12_4752.jpg"",""SV_PolicingMSA/NY_4752/IMG_4_4752.jpg"",""SV_PolicingMSA/NY_4752/IMG_9_4752.jpg"",""SV_PolicingMSA/NY_4752/IMG_6_4752.jpg"",""SV_PolicingMSA/NY_4752/IMG_3_4752.jpg"",""SV_PolicingMSA/NY_4752/IMG_0_4752.jpg""]","4","","","","","","5","","4","[""./rc_img/cop_condGroup_8_CommunitySafety_autoscaled.png"",""./rc_img/cop_condGroup_8_SafeStreets_autoscaled.png""]","4","",""
"sliderTrial","html-slider-response","37","1290304","0.0-37.0","","656776a7904ae00d6b91d1dd","6568aa63267e0448c2576f49","11","","","","","","","","","","","","934","[""SV_PolicingMSA/NY_4752/IMG_2_4752.jpg"",""SV_PolicingMSA/NY_4752/IMG_7_4752.jpg"",""SV_PolicingMSA/NY_4752/IMG_12_4752.jpg"",""SV_PolicingMSA/NY_4752/IMG_4_4752.jpg"",""SV_PolicingMSA/NY_4752/IMG_9_4752.jpg"",""SV_PolicingMSA/NY_4752/IMG_6_4752.jpg"",""SV_PolicingMSA/NY_4752/IMG_3_4752.jpg"",""SV_PolicingMSA/NY_4752/IMG_0_4752.jpg""]","4","","","","","","5","","4","[""./rc_img/cop_condGroup_18_CommunitySafety_autoscaled.png"",""./rc_img/cop_condGroup_18_SafeStreets_autoscaled.png""]","4","",""
"sliderTrial","html-slider-response","38","1291001","0.0-38.0","","656776a7904ae00d6b91d1dd","6568aa63267e0448c2576f49","11","","","","","","","","","","","","695","[""SV_PolicingMSA/NY_4752/IMG_2_4752.jpg"",""SV_PolicingMSA/NY_4752/IMG_7_4752.jpg"",""SV_PolicingMSA/NY_4752/IMG_12_4752.jpg"",""SV_PolicingMSA/NY_4752/IMG_4_4752.jpg"",""SV_PolicingMSA/NY_4752/IMG_9_4752.jpg"",""SV_PolicingMSA/NY_4752/IMG_6_4752.jpg"",""SV_PolicingMSA/NY_4752/IMG_3_4752.jpg"",""SV_PolicingMSA/NY_4752/IMG_0_4752.jpg""]","4","","","","","","5","","4","[""./rc_img/cop_condGroup_16_CommunitySafety_autoscaled.png"",""./rc_img/cop_condGroup_16_SafeStreets_autoscaled.png""]","4","",""
"sliderTrial","html-slider-response","39","1291728","0.0-39.0","","656776a7904ae00d6b91d1dd","6568aa63267e0448c2576f49","11","","","","","","","","","","","","726","[""SV_PolicingMSA/NY_4752/IMG_2_4752.jpg"",""SV_PolicingMSA/NY_4752/IMG_7_4752.jpg"",""SV_PolicingMSA/NY_4752/IMG_12_4752.jpg"",""SV_PolicingMSA/NY_4752/IMG_4_4752.jpg"",""SV_PolicingMSA/NY_4752/IMG_9_4752.jpg"",""SV_PolicingMSA/NY_4752/IMG_6_4752.jpg"",""SV_PolicingMSA/NY_4752/IMG_3_4752.jpg"",""SV_PolicingMSA/NY_4752/IMG_0_4752.jpg""]","4","","","","","","5","","4","[""./rc_img/cop_condGroup_15_CommunitySafety_autoscaled.png"",""./rc_img/cop_condGroup_15_SafeStreets_autoscaled.png""]","4","",""
"before_SVSlide_prompt","html-button-response","40","1292831","0.0-40.0","","656776a7904ae00d6b91d1dd","6568aa63267e0448c2576f49","11","","","","","","","","","","","","1101","Click [Next] to see the next neighborhood!","0","","","","","","","","","","","",""
"street view slide show","image-button-response","41","1293841","0.0-41.0","","656776a7904ae00d6b91d1dd","6568aa63267e0448c2576f49","11","","","","","","","","","","","","null","stimulus/SV_PolicingMSA/NJ_979/IMG_2_979.jpg","null","","","","","","0","","","","","",""
"street view slide show","image-button-response","42","1294846","0.0-42.0","","656776a7904ae00d6b91d1dd","6568aa63267e0448c2576f49","11","","","","","","","","","","","","null","stimulus/SV_PolicingMSA/NJ_979/IMG_1_979.jpg","null","","","","","","0","","","","","",""
"street view slide show","image-button-response","43","1295854","0.0-43.0","","656776a7904ae00d6b91d1dd","6568aa63267e0448c2576f49","11","","","","","","","","","","","","null","stimulus/SV_PolicingMSA/NJ_979/IMG_3_979.jpg","null","","","","","","0","","","","","",""
"street view slide show","image-button-response","44","1296871","0.0-44.0","","656776a7904ae00d6b91d1dd","6568aa63267e0448c2576f49","11","","","","","","","","","","","","null","stimulus/SV_PolicingMSA/NJ_979/IMG_10_979.jpg","null","","","","","","0","","","","","",""
"street view slide show","image-button-response","45","1297888","0.0-45.0","","656776a7904ae00d6b91d1dd","6568aa63267e0448c2576f49","11","","","","","","","","","","","","null","stimulus/SV_PolicingMSA/NJ_979/IMG_8_979.jpg","null","","","","","","0","","","","","",""
"street view slide show","image-button-response","46","1298894","0.0-46.0","","656776a7904ae00d6b91d1dd","6568aa63267e0448c2576f49","11","","","","","","","","","","","","null","stimulus/SV_PolicingMSA/NJ_979/IMG_13_979.jpg","null","","","","","","0","","","","","",""
"street view slide show","image-button-response","47","1299898","0.0-47.0","","656776a7904ae00d6b91d1dd","6568aa63267e0448c2576f49","11","","","","","","","","","","","","null","stimulus/SV_PolicingMSA/NJ_979/IMG_7_979.jpg","null","","","","","","0","","","","","",""
"street view slide show","image-button-response","48","1300902","0.0-48.0","","656776a7904ae00d6b91d1dd","6568aa63267e0448c2576f49","11","","","","","","","","","","","","null","stimulus/SV_PolicingMSA/NJ_979/IMG_12_979.jpg","null","","","","","","0","","","","","",""
"dot matrix survey1","survey","49","1310133","0.0-49.0","","656776a7904ae00d6b91d1dd","6568aa63267e0448c2576f49","11","","","","","","","","","","","","9208","","{""P0_Q0"":null,""P0_Q1"":{""diverse"":3,""traditional"":3,""walkable"":3,""safe"":3,""wealthy"":3}}","","","","","","0","[]","","","","",""
"dot matrix survey2","survey","50","1313389","0.0-50.0","","656776a7904ae00d6b91d1dd","6568aa63267e0448c2576f49","11","","","","","","","","","","","","3246","","{""P0_Q0"":null,""P0_Q1"":{""violence"":3,""crime"":3,""drug"":3,""schools"":3,""opportunities"":3}}","","","","","","0","[]","","","","",""
"dot matrix survey3","survey","51","1318054","0.0-51.0","","656776a7904ae00d6b91d1dd","6568aa63267e0448c2576f49","11","","","","","","","","","","","","4657","","{""P0_Q0"":null,""P0_Q1"":{""moveout"":3,""movein"":3,""shopping"":3,""walk"":3,""park"":3,""school"":3}}","","","","","","0","[]","","","","",""
"sliderTrial","html-slider-response","52","1319336","0.0-52.0","","656776a7904ae00d6b91d1dd","6568aa63267e0448c2576f49","11","","","","","","","","","","","","1280","[""SV_PolicingMSA/NJ_979/IMG_2_979.jpg"",""SV_PolicingMSA/NJ_979/IMG_1_979.jpg"",""SV_PolicingMSA/NJ_979/IMG_3_979.jpg"",""SV_PolicingMSA/NJ_979/IMG_10_979.jpg"",""SV_PolicingMSA/NJ_979/IMG_8_979.jpg"",""SV_PolicingMSA/NJ_979/IMG_13_979.jpg"",""SV_PolicingMSA/NJ_979/IMG_7_979.jpg"",""SV_PolicingMSA/NJ_979/IMG_12_979.jpg""]","4","","","","","","0","","4","[""./rc_img/cop_condGroup_9_SafeStreets_autoscaled.png"",""./rc_img/cop_condGroup_9_CommunitySafety_autoscaled.png""]","4","",""
"sliderTrial_attention","html-slider-response","53","1329352","0.0-53.0","","656776a7904ae00d6b91d1dd","6568aa63267e0448c2576f49","11","","","","","","","","","","","","null","[""SV_PolicingMSA/NJ_979/IMG_2_979.jpg"",""SV_PolicingMSA/NJ_979/IMG_1_979.jpg"",""SV_PolicingMSA/NJ_979/IMG_3_979.jpg"",""SV_PolicingMSA/NJ_979/IMG_10_979.jpg"",""SV_PolicingMSA/NJ_979/IMG_8_979.jpg"",""SV_PolicingMSA/NJ_979/IMG_13_979.jpg"",""SV_PolicingMSA/NJ_979/IMG_7_979.jpg"",""SV_PolicingMSA/NJ_979/IMG_12_979.jpg""]","null","","","","","","0","","4","[""./assets/img/attnchk.png"",""./assets/img/attnchk.png""]","","true",""
"sliderTrial","html-slider-response","54","1353679","0.0-54.0","","656776a7904ae00d6b91d1dd","6568aa63267e0448c2576f49","11","","","","","","","","","","","","24323","[""SV_PolicingMSA/NJ_979/IMG_2_979.jpg"",""SV_PolicingMSA/NJ_979/IMG_1_979.jpg"",""SV_PolicingMSA/NJ_979/IMG_3_979.jpg"",""SV_PolicingMSA/NJ_979/IMG_10_979.jpg"",""SV_PolicingMSA/NJ_979/IMG_8_979.jpg"",""SV_PolicingMSA/NJ_979/IMG_13_979.jpg"",""SV_PolicingMSA/NJ_979/IMG_7_979.jpg"",""SV_PolicingMSA/NJ_979/IMG_12_979.jpg""]","4","","","","","","0","","4","[""./rc_img/cop_condGroup_12_SafeStreets_autoscaled.png"",""./rc_img/cop_condGroup_12_CommunitySafety_autoscaled.png""]","4","",""
"sliderTrial","html-slider-response","55","1354017","0.0-55.0","","656776a7904ae00d6b91d1dd","6568aa63267e0448c2576f49","11","","","","","","","","","","","","337","[""SV_PolicingMSA/NJ_979/IMG_2_979.jpg"",""SV_PolicingMSA/NJ_979/IMG_1_979.jpg"",""SV_PolicingMSA/NJ_979/IMG_3_979.jpg"",""SV_PolicingMSA/NJ_979/IMG_10_979.jpg"",""SV_PolicingMSA/NJ_979/IMG_8_979.jpg"",""SV_PolicingMSA/NJ_979/IMG_13_979.jpg"",""SV_PolicingMSA/NJ_979/IMG_7_979.jpg"",""SV_PolicingMSA/NJ_979/IMG_12_979.jpg""]","4","","","","","","0","","4","[""./rc_img/cop_condGroup_1_SafeStreets_autoscaled.png"",""./rc_img/cop_condGroup_1_CommunitySafety_autoscaled.png""]","4","",""
"sliderTrial","html-slider-response","56","1354234","0.0-56.0","","656776a7904ae00d6b91d1dd","6568aa63267e0448c2576f49","11","","","","","","","","","","","","215","[""SV_PolicingMSA/NJ_979/IMG_2_979.jpg"",""SV_PolicingMSA/NJ_979/IMG_1_979.jpg"",""SV_PolicingMSA/NJ_979/IMG_3_979.jpg"",""SV_PolicingMSA/NJ_979/IMG_10_979.jpg"",""SV_PolicingMSA/NJ_979/IMG_8_979.jpg"",""SV_PolicingMSA/NJ_979/IMG_13_979.jpg"",""SV_PolicingMSA/NJ_979/IMG_7_979.jpg"",""SV_PolicingMSA/NJ_979/IMG_12_979.jpg""]","4","","","","","","0","","4","[""./rc_img/cop_condGroup_4_CommunitySafety_autoscaled.png"",""./rc_img/cop_condGroup_4_SafeStreets_autoscaled.png""]","4","",""
"sliderTrial","html-slider-response","57","1354445","0.0-57.0","","656776a7904ae00d6b91d1dd","6568aa63267e0448c2576f49","11","","","","","","","","","","","","209","[""SV_PolicingMSA/NJ_979/IMG_2_979.jpg"",""SV_PolicingMSA/NJ_979/IMG_1_979.jpg"",""SV_PolicingMSA/NJ_979/IMG_3_979.jpg"",""SV_PolicingMSA/NJ_979/IMG_10_979.jpg"",""SV_PolicingMSA/NJ_979/IMG_8_979.jpg"",""SV_PolicingMSA/NJ_979/IMG_13_979.jpg"",""SV_PolicingMSA/NJ_979/IMG_7_979.jpg"",""SV_PolicingMSA/NJ_979/IMG_12_979.jpg""]","4","","","","","","0","","4","[""./rc_img/cop_condGroup_13_SafeStreets_autoscaled.png"",""./rc_img/cop_condGroup_13_CommunitySafety_autoscaled.png""]","4","",""
"before_SVSlide_prompt","html-button-response","58","1355652","0.0-58.0","","656776a7904ae00d6b91d1dd","6568aa63267e0448c2576f49","11","","","","","","","","","","","","1206","Click [Next] to see the next neighborhood!","0","","","","","","","","","","","",""
"street view slide show","image-button-response","59","1356660","0.0-59.0","","656776a7904ae00d6b91d1dd","6568aa63267e0448c2576f49","11","","","","","","","","","","","","null","stimulus/SV_PolicingMSA/NY_5291/IMG_14_5291.jpg","null","","","","","","4","","","","","",""
"street view slide show","image-button-response","60","1357670","0.0-60.0","","656776a7904ae00d6b91d1dd","6568aa63267e0448c2576f49","11","","","","","","","","","","","","null","stimulus/SV_PolicingMSA/NY_5291/IMG_6_5291.jpg","null","","","","","","4","","","","","",""
"street view slide show","image-button-response","61","1358674","0.0-61.0","","656776a7904ae00d6b91d1dd","6568aa63267e0448c2576f49","11","","","","","","","","","","","","null","stimulus/SV_PolicingMSA/NY_5291/IMG_3_5291.jpg","null","","","","","","4","","","","","",""
"street view slide show","image-button-response","62","1359688","0.0-62.0","","656776a7904ae00d6b91d1dd","6568aa63267e0448c2576f49","11","","","","","","","","","","","","null","stimulus/SV_PolicingMSA/NY_5291/IMG_5_5291.jpg","null","","","","","","4","","","","","",""
"street view slide show","image-button-response","63","1360690","0.0-63.0","","656776a7904ae00d6b91d1dd","6568aa63267e0448c2576f49","11","","","","","","","","","","","","null","stimulus/SV_PolicingMSA/NY_5291/IMG_8_5291.jpg","null","","","","","","4","","","","","",""
"street view slide show","image-button-response","64","1361699","0.0-64.0","","656776a7904ae00d6b91d1dd","6568aa63267e0448c2576f49","11","","","","","","","","","","","","null","stimulus/SV_PolicingMSA/NY_5291/IMG_9_5291.jpg","null","","","","","","4","","","","","",""
"street view slide show","image-button-response","65","1363317","0.0-65.0","","656776a7904ae00d6b91d1dd","6568aa63267e0448c2576f49","11","","","","","","","","","","","","null","stimulus/SV_PolicingMSA/NY_5291/IMG_4_5291.jpg","null","","","","","","4","","","","","",""
"street view slide show","image-button-response","66","1365322","0.0-66.0","","656776a7904ae00d6b91d1dd","6568aa63267e0448c2576f49","11","","","","","","","","","","","","null","stimulus/SV_PolicingMSA/NY_5291/IMG_2_5291.jpg","null","","","","","","4","","","","","",""
"dot matrix survey1","survey","67","1372169","0.0-67.0","","656776a7904ae00d6b91d1dd","6568aa63267e0448c2576f49","11","","","","","","","","","","","","6830","","{""P0_Q0"":null,""P0_Q1"":{""wealthy"":3,""safe"":3,""traditional"":3,""walkable"":3,""diverse"":3}}","","","","","","4","[]","","","","",""
"dot matrix survey2","survey","68","1382817","0.0-68.0","","656776a7904ae00d6b91d1dd","6568aa63267e0448c2576f49","11","","","","","","","","","","","","10644","","{""P0_Q0"":null,""P0_Q1"":{""schools"":3,""drug"":3,""crime"":3,""violence"":3,""opportunities"":3}}","","","","","","4","[]","","","","",""
"dot matrix survey3","survey","69","1394016","0.0-69.0","","656776a7904ae00d6b91d1dd","6568aa63267e0448c2576f49","11","","","","","","","","","","","","11191","","{""P0_Q0"":null,""P0_Q1"":{""school"":3,""park"":3,""movein"":3,""moveout"":3,""shopping"":3,""walk"":3}}","","","","","","4","[]","","","","",""
"sliderTrial","html-slider-response","70","1395419","0.0-70.0","","656776a7904ae00d6b91d1dd","6568aa63267e0448c2576f49","11","","","","","","","","","","","","1401","[""SV_PolicingMSA/NY_5291/IMG_14_5291.jpg"",""SV_PolicingMSA/NY_5291/IMG_6_5291.jpg"",""SV_PolicingMSA/NY_5291/IMG_3_5291.jpg"",""SV_PolicingMSA/NY_5291/IMG_5_5291.jpg"",""SV_PolicingMSA/NY_5291/IMG_8_5291.jpg"",""SV_PolicingMSA/NY_5291/IMG_9_5291.jpg"",""SV_PolicingMSA/NY_5291/IMG_4_5291.jpg"",""SV_PolicingMSA/NY_5291/IMG_2_5291.jpg""]","4","","","","","","4","","4","[""./rc_img/cop_condGroup_2_CommunitySafety_autoscaled.png"",""./rc_img/cop_condGroup_2_SafeStreets_autoscaled.png""]","4","",""
"sliderTrial","html-slider-response","71","1396185","0.0-71.0","","656776a7904ae00d6b91d1dd","6568aa63267e0448c2576f49","11","","","","","","","","","","","","764","[""SV_PolicingMSA/NY_5291/IMG_14_5291.jpg"",""SV_PolicingMSA/NY_5291/IMG_6_5291.jpg"",""SV_PolicingMSA/NY_5291/IMG_3_5291.jpg"",""SV_PolicingMSA/NY_5291/IMG_5_5291.jpg"",""SV_PolicingMSA/NY_5291/IMG_8_5291.jpg"",""SV_PolicingMSA/NY_5291/IMG_9_5291.jpg"",""SV_PolicingMSA/NY_5291/IMG_4_5291.jpg"",""SV_PolicingMSA/NY_5291/IMG_2_5291.jpg""]","4","","","","","","4","","4","[""./rc_img/cop_condGroup_14_SafeStreets_autoscaled.png"",""./rc_img/cop_condGroup_14_CommunitySafety_autoscaled.png""]","4","",""
"sliderTrial","html-slider-response","72","1397887","0.0-72.0","","656776a7904ae00d6b91d1dd","6568aa63267e0448c2576f49","11","","","","","","","","","","","","1700","[""SV_PolicingMSA/NY_5291/IMG_14_5291.jpg"",""SV_PolicingMSA/NY_5291/IMG_6_5291.jpg"",""SV_PolicingMSA/NY_5291/IMG_3_5291.jpg"",""SV_PolicingMSA/NY_5291/IMG_5_5291.jpg"",""SV_PolicingMSA/NY_5291/IMG_8_5291.jpg"",""SV_PolicingMSA/NY_5291/IMG_9_5291.jpg"",""SV_PolicingMSA/NY_5291/IMG_4_5291.jpg"",""SV_PolicingMSA/NY_5291/IMG_2_5291.jpg""]","4","","","","","","4","","4","[""./rc_img/cop_condGroup_7_SafeStreets_autoscaled.png"",""./rc_img/cop_condGroup_7_CommunitySafety_autoscaled.png""]","4","",""
"sliderTrial","html-slider-response","73","1398637","0.0-73.0","","656776a7904ae00d6b91d1dd","6568aa63267e0448c2576f49","11","","","","","","","","","","","","749","[""SV_PolicingMSA/NY_5291/IMG_14_5291.jpg"",""SV_PolicingMSA/NY_5291/IMG_6_5291.jpg"",""SV_PolicingMSA/NY_5291/IMG_3_5291.jpg"",""SV_PolicingMSA/NY_5291/IMG_5_5291.jpg"",""SV_PolicingMSA/NY_5291/IMG_8_5291.jpg"",""SV_PolicingMSA/NY_5291/IMG_9_5291.jpg"",""SV_PolicingMSA/NY_5291/IMG_4_5291.jpg"",""SV_PolicingMSA/NY_5291/IMG_2_5291.jpg""]","4","","","","","","4","","4","[""./rc_img/cop_condGroup_3_CommunitySafety_autoscaled.png"",""./rc_img/cop_condGroup_3_SafeStreets_autoscaled.png""]","4","",""
"sliderTrial","html-slider-response","74","1399454","0.0-74.0","","656776a7904ae00d6b91d1dd","6568aa63267e0448c2576f49","11","","","","","","","","","","","","815","[""SV_PolicingMSA/NY_5291/IMG_14_5291.jpg"",""SV_PolicingMSA/NY_5291/IMG_6_5291.jpg"",""SV_PolicingMSA/NY_5291/IMG_3_5291.jpg"",""SV_PolicingMSA/NY_5291/IMG_5_5291.jpg"",""SV_PolicingMSA/NY_5291/IMG_8_5291.jpg"",""SV_PolicingMSA/NY_5291/IMG_9_5291.jpg"",""SV_PolicingMSA/NY_5291/IMG_4_5291.jpg"",""SV_PolicingMSA/NY_5291/IMG_2_5291.jpg""]","4","","","","","","4","","4","[""./rc_img/cop_condGroup_20_CommunitySafety_autoscaled.png"",""./rc_img/cop_condGroup_20_SafeStreets_autoscaled.png""]","4","",""
"half-way","html-button-response","75","1400624","0.0-75.0","","656776a7904ae00d6b91d1dd","6568aa63267e0448c2576f49","11","","","","","","","","","","","","1169","
    <h3>You are now half way through the study.</h3>
    <p>Please take a quick, 15-second break before you continue.</p>
    <img src='assets/img/countdown-15.gif'>
    <p>The study will automatically advance forward after the countdown is complete. <br> However, you may click ""Next"" to advance forward now if you wish.</p>
    ","0","","","","","","","","","","","",""
"before_SVSlide_prompt","html-button-response","76","1403092","0.0-76.0","","656776a7904ae00d6b91d1dd","6568aa63267e0448c2576f49","11","","","","","","","","","","","","2468","Click [Next] to see the next neighborhood!","0","","","","","","","","","","","",""
"street view slide show","image-button-response","77","1404324","0.0-77.0","","656776a7904ae00d6b91d1dd","6568aa63267e0448c2576f49","11","","","","","","","","","","","","null","stimulus/SV_PolicingMSA/NY_5249/IMG_1_5249.jpg","null","","","","","","1","","","","","",""
"street view slide show","image-button-response","78","1406320","0.0-78.0","","656776a7904ae00d6b91d1dd","6568aa63267e0448c2576f49","11","","","","","","","","","","","","null","stimulus/SV_PolicingMSA/NY_5249/IMG_7_5249.jpg","null","","","","","","1","","","","","",""
"street view slide show","image-button-response","79","1408320","0.0-79.0","","656776a7904ae00d6b91d1dd","6568aa63267e0448c2576f49","11","","","","","","","","","","","","null","stimulus/SV_PolicingMSA/NY_5249/IMG_8_5249.jpg","null","","","","","","1","","","","","",""
"street view slide show","image-button-response","80","1410321","0.0-80.0","","656776a7904ae00d6b91d1dd","6568aa63267e0448c2576f49","11","","","","","","","","","","","","null","stimulus/SV_PolicingMSA/NY_5249/IMG_11_5249.jpg","null","","","","","","1","","","","","",""
"street view slide show","image-button-response","81","1411908","0.0-81.0","","656776a7904ae00d6b91d1dd","6568aa63267e0448c2576f49","11","","","","","","","","","","","","null","stimulus/SV_PolicingMSA/NY_5249/IMG_10_5249.jpg","null","","","","","","1","","","","","",""
"street view slide show","image-button-response","82","1412926","0.0-82.0","","656776a7904ae00d6b91d1dd","6568aa63267e0448c2576f49","11","","","","","","","","","","","","null","stimulus/SV_PolicingMSA/NY_5249/IMG_0_5249.jpg","null","","","","","","1","","","","","",""
"street view slide show","image-button-response","83","1413934","0.0-83.0","","656776a7904ae00d6b91d1dd","6568aa63267e0448c2576f49","11","","","","","","","","","","","","null","stimulus/SV_PolicingMSA/NY_5249/IMG_4_5249.jpg","null","","","","","","1","","","","","",""
"street view slide show","image-button-response","84","1414940","0.0-84.0","","656776a7904ae00d6b91d1dd","6568aa63267e0448c2576f49","11","","","","","","","","","","","","null","stimulus/SV_PolicingMSA/NY_5249/IMG_9_5249.jpg","null","","","","","","1","","","","","",""
"dot matrix survey1","survey","85","1419323","0.0-85.0","","656776a7904ae00d6b91d1dd","6568aa63267e0448c2576f49","11","","","","","","","","","","","","4358","","{""P0_Q0"":null,""P0_Q1"":{""diverse"":3,""traditional"":3,""safe"":3,""wealthy"":3,""walkable"":3}}","","","","","","1","[]","","","","",""
"dot matrix survey2","survey","86","1422885","0.0-86.0","","656776a7904ae00d6b91d1dd","6568aa63267e0448c2576f49","11","","","","","","","","","","","","3553","","{""P0_Q0"":null,""P0_Q1"":{""violence"":3,""crime"":3,""drug"":3,""schools"":3,""opportunities"":3}}","","","","","","1","[]","","","","",""
"dot matrix survey3","survey","87","1427190","0.0-87.0","","656776a7904ae00d6b91d1dd","6568aa63267e0448c2576f49","11","","","","","","","","","","","","4300","","{""P0_Q0"":null,""P0_Q1"":{""movein"":3,""moveout"":3,""shopping"":3,""walk"":3,""park"":3,""school"":3}}","","","","","","1","[]","","","","",""
"sliderTrial","html-slider-response","88","1428961","0.0-88.0","","656776a7904ae00d6b91d1dd","6568aa63267e0448c2576f49","11","","","","","","","","","","","","1769","[""SV_PolicingMSA/NY_5249/IMG_1_5249.jpg"",""SV_PolicingMSA/NY_5249/IMG_7_5249.jpg"",""SV_PolicingMSA/NY_5249/IMG_8_5249.jpg"",""SV_PolicingMSA/NY_5249/IMG_11_5249.jpg"",""SV_PolicingMSA/NY_5249/IMG_10_5249.jpg"",""SV_PolicingMSA/NY_5249/IMG_0_5249.jpg"",""SV_PolicingMSA/NY_5249/IMG_4_5249.jpg"",""SV_PolicingMSA/NY_5249/IMG_9_5249.jpg""]","4","","","","","","1","","4","[""./rc_img/cop_condGroup_17_SafeStreets_autoscaled.png"",""./rc_img/cop_condGroup_17_CommunitySafety_autoscaled.png""]","4","",""
"sliderTrial","html-slider-response","89","1429838","0.0-89.0","","656776a7904ae00d6b91d1dd","6568aa63267e0448c2576f49","11","","","","","","","","","","","","876","[""SV_PolicingMSA/NY_5249/IMG_1_5249.jpg"",""SV_PolicingMSA/NY_5249/IMG_7_5249.jpg"",""SV_PolicingMSA/NY_5249/IMG_8_5249.jpg"",""SV_PolicingMSA/NY_5249/IMG_11_5249.jpg"",""SV_PolicingMSA/NY_5249/IMG_10_5249.jpg"",""SV_PolicingMSA/NY_5249/IMG_0_5249.jpg"",""SV_PolicingMSA/NY_5249/IMG_4_5249.jpg"",""SV_PolicingMSA/NY_5249/IMG_9_5249.jpg""]","4","","","","","","1","","4","[""./rc_img/cop_condGroup_10_SafeStreets_autoscaled.png"",""./rc_img/cop_condGroup_10_CommunitySafety_autoscaled.png""]","4","",""
"sliderTrial","html-slider-response","90","1430709","0.0-90.0","","656776a7904ae00d6b91d1dd","6568aa63267e0448c2576f49","11","","","","","","","","","","","","869","[""SV_PolicingMSA/NY_5249/IMG_1_5249.jpg"",""SV_PolicingMSA/NY_5249/IMG_7_5249.jpg"",""SV_PolicingMSA/NY_5249/IMG_8_5249.jpg"",""SV_PolicingMSA/NY_5249/IMG_11_5249.jpg"",""SV_PolicingMSA/NY_5249/IMG_10_5249.jpg"",""SV_PolicingMSA/NY_5249/IMG_0_5249.jpg"",""SV_PolicingMSA/NY_5249/IMG_4_5249.jpg"",""SV_PolicingMSA/NY_5249/IMG_9_5249.jpg""]","4","","","","","","1","","4","[""./rc_img/cop_condGroup_19_CommunitySafety_autoscaled.png"",""./rc_img/cop_condGroup_19_SafeStreets_autoscaled.png""]","4","",""
"sliderTrial","html-slider-response","91","1431316","0.0-91.0","","656776a7904ae00d6b91d1dd","6568aa63267e0448c2576f49","11","","","","","","","","","","","","605","[""SV_PolicingMSA/NY_5249/IMG_1_5249.jpg"",""SV_PolicingMSA/NY_5249/IMG_7_5249.jpg"",""SV_PolicingMSA/NY_5249/IMG_8_5249.jpg"",""SV_PolicingMSA/NY_5249/IMG_11_5249.jpg"",""SV_PolicingMSA/NY_5249/IMG_10_5249.jpg"",""SV_PolicingMSA/NY_5249/IMG_0_5249.jpg"",""SV_PolicingMSA/NY_5249/IMG_4_5249.jpg"",""SV_PolicingMSA/NY_5249/IMG_9_5249.jpg""]","4","","","","","","1","","4","[""./rc_img/cop_condGroup_11_CommunitySafety_autoscaled.png"",""./rc_img/cop_condGroup_11_SafeStreets_autoscaled.png""]","4","",""
"sliderTrial_attention","html-slider-response","92","1441322","0.0-92.0","","656776a7904ae00d6b91d1dd","6568aa63267e0448c2576f49","11","","","","","","","","","","","","null","[""SV_PolicingMSA/NY_5249/IMG_1_5249.jpg"",""SV_PolicingMSA/NY_5249/IMG_7_5249.jpg"",""SV_PolicingMSA/NY_5249/IMG_8_5249.jpg"",""SV_PolicingMSA/NY_5249/IMG_11_5249.jpg"",""SV_PolicingMSA/NY_5249/IMG_10_5249.jpg"",""SV_PolicingMSA/NY_5249/IMG_0_5249.jpg"",""SV_PolicingMSA/NY_5249/IMG_4_5249.jpg"",""SV_PolicingMSA/NY_5249/IMG_9_5249.jpg""]","null","","","","","","1","","4","[""./assets/img/attnchk.png"",""./assets/img/attnchk.png""]","","true",""
"sliderTrial","html-slider-response","93","1451169","0.0-93.0","","656776a7904ae00d6b91d1dd","6568aa63267e0448c2576f49","11","","","","","","","","","","","","9837","[""SV_PolicingMSA/NY_5249/IMG_1_5249.jpg"",""SV_PolicingMSA/NY_5249/IMG_7_5249.jpg"",""SV_PolicingMSA/NY_5249/IMG_8_5249.jpg"",""SV_PolicingMSA/NY_5249/IMG_11_5249.jpg"",""SV_PolicingMSA/NY_5249/IMG_10_5249.jpg"",""SV_PolicingMSA/NY_5249/IMG_0_5249.jpg"",""SV_PolicingMSA/NY_5249/IMG_4_5249.jpg"",""SV_PolicingMSA/NY_5249/IMG_9_5249.jpg""]","4","","","","","","1","","4","[""./rc_img/cop_condGroup_6_CommunitySafety_autoscaled.png"",""./rc_img/cop_condGroup_6_SafeStreets_autoscaled.png""]","4","",""
"before_SVSlide_prompt","html-button-response","94","1452227","0.0-94.0","","656776a7904ae00d6b91d1dd","6568aa63267e0448c2576f49","11","","","","","","","","","","","","1057","Click [Next] to see the next neighborhood!","0","","","","","","","","","","","",""
"street view slide show","image-button-response","95","1453235","0.0-95.0","","656776a7904ae00d6b91d1dd","6568aa63267e0448c2576f49","11","","","","","","","","","","","","null","stimulus/SV_PolicingMSA/NJ_1052/IMG_10_1052.jpg","null","","","","","","3","","","","","",""
"street view slide show","image-button-response","96","1454240","0.0-96.0","","656776a7904ae00d6b91d1dd","6568aa63267e0448c2576f49","11","","","","","","","","","","","","null","stimulus/SV_PolicingMSA/NJ_1052/IMG_13_1052.jpg","null","","","","","","3","","","","","",""
"street view slide show","image-button-response","97","1455256","0.0-97.0","","656776a7904ae00d6b91d1dd","6568aa63267e0448c2576f49","11","","","","","","","","","","","","null","stimulus/SV_PolicingMSA/NJ_1052/IMG_5_1052.jpg","null","","","","","","3","","","","","",""
"street view slide show","image-button-response","98","1456273","0.0-98.0","","656776a7904ae00d6b91d1dd","6568aa63267e0448c2576f49","11","","","","","","","","","","","","null","stimulus/SV_PolicingMSA/NJ_1052/IMG_11_1052.jpg","null","","","","","","3","","","","","",""
"street view slide show","image-button-response","99","1457278","0.0-99.0","","656776a7904ae00d6b91d1dd","6568aa63267e0448c2576f49","11","","","","","","","","","","","","null","stimulus/SV_PolicingMSA/NJ_1052/IMG_12_1052.jpg","null","","","","","","3","","","","","",""
"street view slide show","image-button-response","100","1458295","0.0-100.0","","656776a7904ae00d6b91d1dd","6568aa63267e0448c2576f49","11","","","","","","","","","","","","null","stimulus/SV_PolicingMSA/NJ_1052/IMG_4_1052.jpg","null","","","","","","3","","","","","",""
"street view slide show","image-button-response","101","1459303","0.0-101.0","","656776a7904ae00d6b91d1dd","6568aa63267e0448c2576f49","11","","","","","","","","","","","","null","stimulus/SV_PolicingMSA/NJ_1052/IMG_3_1052.jpg","null","","","","","","3","","","","","",""
"street view slide show","image-button-response","102","1460310","0.0-102.0","","656776a7904ae00d6b91d1dd","6568aa63267e0448c2576f49","11","","","","","","","","","","","","null","stimulus/SV_PolicingMSA/NJ_1052/IMG_0_1052.jpg","null","","","","","","3","","","","","",""
"dot matrix survey1","survey","103","1467729","0.0-103.0","","656776a7904ae00d6b91d1dd","6568aa63267e0448c2576f49","11","","","","","","","","","","","","7387","","{""P0_Q0"":null,""P0_Q1"":{""traditional"":3,""walkable"":3,""wealthy"":3,""safe"":3,""diverse"":3}}","","","","","","3","[]","","","","",""
"dot matrix survey2","survey","104","1471924","0.0-104.0","","656776a7904ae00d6b91d1dd","6568aa63267e0448c2576f49","11","","","","","","","","","","","","4188","","{""P0_Q0"":null,""P0_Q1"":{""violence"":3,""crime"":3,""drug"":3,""schools"":3,""opportunities"":3}}","","","","","","3","[]","","","","",""
"dot matrix survey3","survey","105","1488885","0.0-105.0","","656776a7904ae00d6b91d1dd","6568aa63267e0448c2576f49","11","","","","","","","","","","","","16955","","{""P0_Q0"":null,""P0_Q1"":{""school"":3,""park"":3,""walk"":3,""shopping"":3,""moveout"":3,""movein"":3}}","","","","","","3","[]","","","","",""
"sliderTrial","html-slider-response","106","1507415","0.0-106.0","","656776a7904ae00d6b91d1dd","6568aa63267e0448c2576f49","11","","","","","","","","","","","","18527","[""SV_PolicingMSA/NJ_1052/IMG_10_1052.jpg"",""SV_PolicingMSA/NJ_1052/IMG_13_1052.jpg"",""SV_PolicingMSA/NJ_1052/IMG_5_1052.jpg"",""SV_PolicingMSA/NJ_1052/IMG_11_1052.jpg"",""SV_PolicingMSA/NJ_1052/IMG_12_1052.jpg"",""SV_PolicingMSA/NJ_1052/IMG_4_1052.jpg"",""SV_PolicingMSA/NJ_1052/IMG_3_1052.jpg"",""SV_PolicingMSA/NJ_1052/IMG_0_1052.jpg""]","4","","","","","","3","","4","[""./rc_img/cop_condGroup_17_SafeStreets_autoscaled.png"",""./rc_img/cop_condGroup_17_CommunitySafety_autoscaled.png""]","4","",""
"sliderTrial","html-slider-response","107","1508044","0.0-107.0","","656776a7904ae00d6b91d1dd","6568aa63267e0448c2576f49","11","","","","","","","","","","","","628","[""SV_PolicingMSA/NJ_1052/IMG_10_1052.jpg"",""SV_PolicingMSA/NJ_1052/IMG_13_1052.jpg"",""SV_PolicingMSA/NJ_1052/IMG_5_1052.jpg"",""SV_PolicingMSA/NJ_1052/IMG_11_1052.jpg"",""SV_PolicingMSA/NJ_1052/IMG_12_1052.jpg"",""SV_PolicingMSA/NJ_1052/IMG_4_1052.jpg"",""SV_PolicingMSA/NJ_1052/IMG_3_1052.jpg"",""SV_PolicingMSA/NJ_1052/IMG_0_1052.jpg""]","4","","","","","","3","","4","[""./rc_img/cop_condGroup_10_SafeStreets_autoscaled.png"",""./rc_img/cop_condGroup_10_CommunitySafety_autoscaled.png""]","4","",""
"sliderTrial","html-slider-response","108","1508689","0.0-108.0","","656776a7904ae00d6b91d1dd","6568aa63267e0448c2576f49","11","","","","","","","","","","","","643","[""SV_PolicingMSA/NJ_1052/IMG_10_1052.jpg"",""SV_PolicingMSA/NJ_1052/IMG_13_1052.jpg"",""SV_PolicingMSA/NJ_1052/IMG_5_1052.jpg"",""SV_PolicingMSA/NJ_1052/IMG_11_1052.jpg"",""SV_PolicingMSA/NJ_1052/IMG_12_1052.jpg"",""SV_PolicingMSA/NJ_1052/IMG_4_1052.jpg"",""SV_PolicingMSA/NJ_1052/IMG_3_1052.jpg"",""SV_PolicingMSA/NJ_1052/IMG_0_1052.jpg""]","4","","","","","","3","","4","[""./rc_img/cop_condGroup_19_CommunitySafety_autoscaled.png"",""./rc_img/cop_condGroup_19_SafeStreets_autoscaled.png""]","4","",""
"sliderTrial","html-slider-response","109","1509297","0.0-109.0","","656776a7904ae00d6b91d1dd","6568aa63267e0448c2576f49","11","","","","","","","","","","","","606","[""SV_PolicingMSA/NJ_1052/IMG_10_1052.jpg"",""SV_PolicingMSA/NJ_1052/IMG_13_1052.jpg"",""SV_PolicingMSA/NJ_1052/IMG_5_1052.jpg"",""SV_PolicingMSA/NJ_1052/IMG_11_1052.jpg"",""SV_PolicingMSA/NJ_1052/IMG_12_1052.jpg"",""SV_PolicingMSA/NJ_1052/IMG_4_1052.jpg"",""SV_PolicingMSA/NJ_1052/IMG_3_1052.jpg"",""SV_PolicingMSA/NJ_1052/IMG_0_1052.jpg""]","4","","","","","","3","","4","[""./rc_img/cop_condGroup_11_CommunitySafety_autoscaled.png"",""./rc_img/cop_condGroup_11_SafeStreets_autoscaled.png""]","4","",""
"sliderTrial","html-slider-response","110","1509844","0.0-110.0","","656776a7904ae00d6b91d1dd","6568aa63267e0448c2576f49","11","","","","","","","","","","","","545","[""SV_PolicingMSA/NJ_1052/IMG_10_1052.jpg"",""SV_PolicingMSA/NJ_1052/IMG_13_1052.jpg"",""SV_PolicingMSA/NJ_1052/IMG_5_1052.jpg"",""SV_PolicingMSA/NJ_1052/IMG_11_1052.jpg"",""SV_PolicingMSA/NJ_1052/IMG_12_1052.jpg"",""SV_PolicingMSA/NJ_1052/IMG_4_1052.jpg"",""SV_PolicingMSA/NJ_1052/IMG_3_1052.jpg"",""SV_PolicingMSA/NJ_1052/IMG_0_1052.jpg""]","4","","","","","","3","","4","[""./rc_img/cop_condGroup_6_CommunitySafety_autoscaled.png"",""./rc_img/cop_condGroup_6_SafeStreets_autoscaled.png""]","4","",""
"before_SVSlide_prompt","html-button-response","111","1511096","0.0-111.0","","656776a7904ae00d6b91d1dd","6568aa63267e0448c2576f49","11","","","","","","","","","","","","1251","Click [Next] to see the next neighborhood!","0","","","","","","","","","","","",""
"street view slide show","image-button-response","112","1512102","0.0-112.0","","656776a7904ae00d6b91d1dd","6568aa63267e0448c2576f49","11","","","","","","","","","","","","null","stimulus/SV_PolicingMSA/NJ_1880/IMG_10_1880.jpg","null","","","","","","2","","","","","",""
"street view slide show","image-button-response","113","1513120","0.0-113.0","","656776a7904ae00d6b91d1dd","6568aa63267e0448c2576f49","11","","","","","","","","","","","","null","stimulus/SV_PolicingMSA/NJ_1880/IMG_12_1880.jpg","null","","","","","","2","","","","","",""
"street view slide show","image-button-response","114","1514127","0.0-114.0","","656776a7904ae00d6b91d1dd","6568aa63267e0448c2576f49","11","","","","","","","","","","","","null","stimulus/SV_PolicingMSA/NJ_1880/IMG_3_1880.jpg","null","","","","","","2","","","","","",""
"street view slide show","image-button-response","115","1515141","0.0-115.0","","656776a7904ae00d6b91d1dd","6568aa63267e0448c2576f49","11","","","","","","","","","","","","null","stimulus/SV_PolicingMSA/NJ_1880/IMG_2_1880.jpg","null","","","","","","2","","","","","",""
"street view slide show","image-button-response","116","1516144","0.0-116.0","","656776a7904ae00d6b91d1dd","6568aa63267e0448c2576f49","11","","","","","","","","","","","","null","stimulus/SV_PolicingMSA/NJ_1880/IMG_8_1880.jpg","null","","","","","","2","","","","","",""
"street view slide show","image-button-response","117","1517150","0.0-117.0","","656776a7904ae00d6b91d1dd","6568aa63267e0448c2576f49","11","","","","","","","","","","","","null","stimulus/SV_PolicingMSA/NJ_1880/IMG_13_1880.jpg","null","","","","","","2","","","","","",""
"street view slide show","image-button-response","118","1518168","0.0-118.0","","656776a7904ae00d6b91d1dd","6568aa63267e0448c2576f49","11","","","","","","","","","","","","null","stimulus/SV_PolicingMSA/NJ_1880/IMG_6_1880.jpg","null","","","","","","2","","","","","",""
"street view slide show","image-button-response","119","1519178","0.0-119.0","","656776a7904ae00d6b91d1dd","6568aa63267e0448c2576f49","11","","","","","","","","","","","","null","stimulus/SV_PolicingMSA/NJ_1880/IMG_11_1880.jpg","null","","","","","","2","","","","","",""
"dot matrix survey1","survey","120","1531210","0.0-120.0","","656776a7904ae00d6b91d1dd","6568aa63267e0448c2576f49","11","","","","","","","","","","","","12024","","{""P0_Q0"":null,""P0_Q1"":{""diverse"":3,""traditional"":3,""walkable"":3,""safe"":3,""wealthy"":3}}","","","","","","2","[]","","","","",""
"dot matrix survey2","survey","121","1535322","0.0-121.0","","656776a7904ae00d6b91d1dd","6568aa63267e0448c2576f49","11","","","","","","","","","","","","4103","","{""P0_Q0"":null,""P0_Q1"":{""opportunities"":3,""schools"":3,""drug"":3,""violence"":3,""crime"":3}}","","","","","","2","[]","","","","",""
"dot matrix survey3","survey","122","1541487","0.0-122.0","","656776a7904ae00d6b91d1dd","6568aa63267e0448c2576f49","11","","","","","","","","","","","","6158","","{""P0_Q0"":null,""P0_Q1"":{""school"":3,""walk"":3,""moveout"":3,""movein"":3,""shopping"":3,""park"":3}}","","","","","","2","[]","","","","",""
"sliderTrial","html-slider-response","123","1548457","0.0-123.0","","656776a7904ae00d6b91d1dd","6568aa63267e0448c2576f49","11","","","","","","","","","","","","6968","[""SV_PolicingMSA/NJ_1880/IMG_10_1880.jpg"",""SV_PolicingMSA/NJ_1880/IMG_12_1880.jpg"",""SV_PolicingMSA/NJ_1880/IMG_3_1880.jpg"",""SV_PolicingMSA/NJ_1880/IMG_2_1880.jpg"",""SV_PolicingMSA/NJ_1880/IMG_8_1880.jpg"",""SV_PolicingMSA/NJ_1880/IMG_13_1880.jpg"",""SV_PolicingMSA/NJ_1880/IMG_6_1880.jpg"",""SV_PolicingMSA/NJ_1880/IMG_11_1880.jpg""]","4","","","","","","2","","4","[""./rc_img/cop_condGroup_9_SafeStreets_autoscaled.png"",""./rc_img/cop_condGroup_9_CommunitySafety_autoscaled.png""]","4","",""
"sliderTrial","html-slider-response","124","1549310","0.0-124.0","","656776a7904ae00d6b91d1dd","6568aa63267e0448c2576f49","11","","","","","","","","","","","","852","[""SV_PolicingMSA/NJ_1880/IMG_10_1880.jpg"",""SV_PolicingMSA/NJ_1880/IMG_12_1880.jpg"",""SV_PolicingMSA/NJ_1880/IMG_3_1880.jpg"",""SV_PolicingMSA/NJ_1880/IMG_2_1880.jpg"",""SV_PolicingMSA/NJ_1880/IMG_8_1880.jpg"",""SV_PolicingMSA/NJ_1880/IMG_13_1880.jpg"",""SV_PolicingMSA/NJ_1880/IMG_6_1880.jpg"",""SV_PolicingMSA/NJ_1880/IMG_11_1880.jpg""]","4","","","","","","2","","4","[""./rc_img/cop_condGroup_12_SafeStreets_autoscaled.png"",""./rc_img/cop_condGroup_12_CommunitySafety_autoscaled.png""]","4","",""
"sliderTrial","html-slider-response","125","1550084","0.0-125.0","","656776a7904ae00d6b91d1dd","6568aa63267e0448c2576f49","11","","","","","","","","","","","","772","[""SV_PolicingMSA/NJ_1880/IMG_10_1880.jpg"",""SV_PolicingMSA/NJ_1880/IMG_12_1880.jpg"",""SV_PolicingMSA/NJ_1880/IMG_3_1880.jpg"",""SV_PolicingMSA/NJ_1880/IMG_2_1880.jpg"",""SV_PolicingMSA/NJ_1880/IMG_8_1880.jpg"",""SV_PolicingMSA/NJ_1880/IMG_13_1880.jpg"",""SV_PolicingMSA/NJ_1880/IMG_6_1880.jpg"",""SV_PolicingMSA/NJ_1880/IMG_11_1880.jpg""]","4","","","","","","2","","4","[""./rc_img/cop_condGroup_1_SafeStreets_autoscaled.png"",""./rc_img/cop_condGroup_1_CommunitySafety_autoscaled.png""]","4","",""
"sliderTrial","html-slider-response","126","1550840","0.0-126.0","","656776a7904ae00d6b91d1dd","6568aa63267e0448c2576f49","11","","","","","","","","","","","","755","[""SV_PolicingMSA/NJ_1880/IMG_10_1880.jpg"",""SV_PolicingMSA/NJ_1880/IMG_12_1880.jpg"",""SV_PolicingMSA/NJ_1880/IMG_3_1880.jpg"",""SV_PolicingMSA/NJ_1880/IMG_2_1880.jpg"",""SV_PolicingMSA/NJ_1880/IMG_8_1880.jpg"",""SV_PolicingMSA/NJ_1880/IMG_13_1880.jpg"",""SV_PolicingMSA/NJ_1880/IMG_6_1880.jpg"",""SV_PolicingMSA/NJ_1880/IMG_11_1880.jpg""]","4","","","","","","2","","4","[""./rc_img/cop_condGroup_4_CommunitySafety_autoscaled.png"",""./rc_img/cop_condGroup_4_SafeStreets_autoscaled.png""]","4","",""
"sliderTrial","html-slider-response","127","1551622","0.0-127.0","","656776a7904ae00d6b91d1dd","6568aa63267e0448c2576f49","11","","","","","","","","","","","","780","[""SV_PolicingMSA/NJ_1880/IMG_10_1880.jpg"",""SV_PolicingMSA/NJ_1880/IMG_12_1880.jpg"",""SV_PolicingMSA/NJ_1880/IMG_3_1880.jpg"",""SV_PolicingMSA/NJ_1880/IMG_2_1880.jpg"",""SV_PolicingMSA/NJ_1880/IMG_8_1880.jpg"",""SV_PolicingMSA/NJ_1880/IMG_13_1880.jpg"",""SV_PolicingMSA/NJ_1880/IMG_6_1880.jpg"",""SV_PolicingMSA/NJ_1880/IMG_11_1880.jpg""]","4","","","","","","2","","4","[""./rc_img/cop_condGroup_13_SafeStreets_autoscaled.png"",""./rc_img/cop_condGroup_13_CommunitySafety_autoscaled.png""]","4","",""
"before_SVSlide_prompt","html-button-response","128","1553234","0.0-128.0","","656776a7904ae00d6b91d1dd","6568aa63267e0448c2576f49","11","","","","","","","","","","","","1612","Click [Next] to see the next neighborhood!","0","","","","","","","","","","","",""
"street view slide show","image-button-response","129","1554238","0.0-129.0","","656776a7904ae00d6b91d1dd","6568aa63267e0448c2576f49","11","","","","","","","","","","","","null","stimulus/SV_PolicingMSA/NY_2726/IMG_11_2726.jpg","null","","","","","","2","","","","","",""
"street view slide show","image-button-response","130","1555241","0.0-130.0","","656776a7904ae00d6b91d1dd","6568aa63267e0448c2576f49","11","","","","","","","","","","","","null","stimulus/SV_PolicingMSA/NY_2726/IMG_14_2726.jpg","null","","","","","","2","","","","","",""
"street view slide show","image-button-response","131","1556251","0.0-131.0","","656776a7904ae00d6b91d1dd","6568aa63267e0448c2576f49","11","","","","","","","","","","","","null","stimulus/SV_PolicingMSA/NY_2726/IMG_3_2726.jpg","null","","","","","","2","","","","","",""
"street view slide show","image-button-response","132","1557267","0.0-132.0","","656776a7904ae00d6b91d1dd","6568aa63267e0448c2576f49","11","","","","","","","","","","","","null","stimulus/SV_PolicingMSA/NY_2726/IMG_1_2726.jpg","null","","","","","","2","","","","","",""
"street view slide show","image-button-response","133","1558278","0.0-133.0","","656776a7904ae00d6b91d1dd","6568aa63267e0448c2576f49","11","","","","","","","","","","","","null","stimulus/SV_PolicingMSA/NY_2726/IMG_10_2726.jpg","null","","","","","","2","","","","","",""
"street view slide show","image-button-response","134","1559280","0.0-134.0","","656776a7904ae00d6b91d1dd","6568aa63267e0448c2576f49","11","","","","","","","","","","","","null","stimulus/SV_PolicingMSA/NY_2726/IMG_12_2726.jpg","null","","","","","","2","","","","","",""
"street view slide show","image-button-response","135","1560297","0.0-135.0","","656776a7904ae00d6b91d1dd","6568aa63267e0448c2576f49","11","","","","","","","","","","","","null","stimulus/SV_PolicingMSA/NY_2726/IMG_7_2726.jpg","null","","","","","","2","","","","","",""
"street view slide show","image-button-response","136","1561305","0.0-136.0","","656776a7904ae00d6b91d1dd","6568aa63267e0448c2576f49","11","","","","","","","","","","","","null","stimulus/SV_PolicingMSA/NY_2726/IMG_2_2726.jpg","null","","","","","","2","","","","","",""
"dot matrix survey1","survey","137","1574999","0.0-137.0","","656776a7904ae00d6b91d1dd","6568aa63267e0448c2576f49","11","","","","","","","","","","","","13686","","{""P0_Q0"":null,""P0_Q1"":{""diverse"":3,""traditional"":3,""walkable"":3,""safe"":3,""wealthy"":3}}","","","","","","2","[]","","","","",""
"dot matrix survey2","survey","138","1580302","0.0-138.0","","656776a7904ae00d6b91d1dd","6568aa63267e0448c2576f49","11","","","","","","","","","","","","5296","","{""P0_Q0"":null,""P0_Q1"":{""opportunities"":3,""schools"":3,""drug"":3,""crime"":3,""violence"":3}}","","","","","","2","[]","","","","",""
"dot matrix survey3","survey","139","1601873","0.0-139.0","","656776a7904ae00d6b91d1dd","6568aa63267e0448c2576f49","11","","","","","","","","","","","","21563","","{""P0_Q0"":null,""P0_Q1"":{""school"":3,""walk"":3,""park"":3,""shopping"":3,""moveout"":3,""movein"":3}}","","","","","","2","[]","","","","",""
"sliderTrial","html-slider-response","140","1603118","0.0-140.0","","656776a7904ae00d6b91d1dd","6568aa63267e0448c2576f49","11","","","","","","","","","","","","1244","[""SV_PolicingMSA/NY_2726/IMG_11_2726.jpg"",""SV_PolicingMSA/NY_2726/IMG_14_2726.jpg"",""SV_PolicingMSA/NY_2726/IMG_3_2726.jpg"",""SV_PolicingMSA/NY_2726/IMG_1_2726.jpg"",""SV_PolicingMSA/NY_2726/IMG_10_2726.jpg"",""SV_PolicingMSA/NY_2726/IMG_12_2726.jpg"",""SV_PolicingMSA/NY_2726/IMG_7_2726.jpg"",""SV_PolicingMSA/NY_2726/IMG_2_2726.jpg""]","4","","","","","","2","","4","[""./rc_img/cop_condGroup_2_CommunitySafety_autoscaled.png"",""./rc_img/cop_condGroup_2_SafeStreets_autoscaled.png""]","4","",""
"sliderTrial","html-slider-response","141","1603741","0.0-141.0","","656776a7904ae00d6b91d1dd","6568aa63267e0448c2576f49","11","","","","","","","","","","","","621","[""SV_PolicingMSA/NY_2726/IMG_11_2726.jpg"",""SV_PolicingMSA/NY_2726/IMG_14_2726.jpg"",""SV_PolicingMSA/NY_2726/IMG_3_2726.jpg"",""SV_PolicingMSA/NY_2726/IMG_1_2726.jpg"",""SV_PolicingMSA/NY_2726/IMG_10_2726.jpg"",""SV_PolicingMSA/NY_2726/IMG_12_2726.jpg"",""SV_PolicingMSA/NY_2726/IMG_7_2726.jpg"",""SV_PolicingMSA/NY_2726/IMG_2_2726.jpg""]","4","","","","","","2","","4","[""./rc_img/cop_condGroup_14_SafeStreets_autoscaled.png"",""./rc_img/cop_condGroup_14_CommunitySafety_autoscaled.png""]","4","",""
"sliderTrial","html-slider-response","142","1604371","0.0-142.0","","656776a7904ae00d6b91d1dd","6568aa63267e0448c2576f49","11","","","","","","","","","","","","628","[""SV_PolicingMSA/NY_2726/IMG_11_2726.jpg"",""SV_PolicingMSA/NY_2726/IMG_14_2726.jpg"",""SV_PolicingMSA/NY_2726/IMG_3_2726.jpg"",""SV_PolicingMSA/NY_2726/IMG_1_2726.jpg"",""SV_PolicingMSA/NY_2726/IMG_10_2726.jpg"",""SV_PolicingMSA/NY_2726/IMG_12_2726.jpg"",""SV_PolicingMSA/NY_2726/IMG_7_2726.jpg"",""SV_PolicingMSA/NY_2726/IMG_2_2726.jpg""]","4","","","","","","2","","4","[""./rc_img/cop_condGroup_7_SafeStreets_autoscaled.png"",""./rc_img/cop_condGroup_7_CommunitySafety_autoscaled.png""]","4","",""
"sliderTrial","html-slider-response","143","1604971","0.0-143.0","","656776a7904ae00d6b91d1dd","6568aa63267e0448c2576f49","11","","","","","","","","","","","","598","[""SV_PolicingMSA/NY_2726/IMG_11_2726.jpg"",""SV_PolicingMSA/NY_2726/IMG_14_2726.jpg"",""SV_PolicingMSA/NY_2726/IMG_3_2726.jpg"",""SV_PolicingMSA/NY_2726/IMG_1_2726.jpg"",""SV_PolicingMSA/NY_2726/IMG_10_2726.jpg"",""SV_PolicingMSA/NY_2726/IMG_12_2726.jpg"",""SV_PolicingMSA/NY_2726/IMG_7_2726.jpg"",""SV_PolicingMSA/NY_2726/IMG_2_2726.jpg""]","4","","","","","","2","","4","[""./rc_img/cop_condGroup_3_CommunitySafety_autoscaled.png"",""./rc_img/cop_condGroup_3_SafeStreets_autoscaled.png""]","4","",""
"sliderTrial","html-slider-response","144","1605991","0.0-144.0","","656776a7904ae00d6b91d1dd","6568aa63267e0448c2576f49","11","","","","","","","","","","","","1019","[""SV_PolicingMSA/NY_2726/IMG_11_2726.jpg"",""SV_PolicingMSA/NY_2726/IMG_14_2726.jpg"",""SV_PolicingMSA/NY_2726/IMG_3_2726.jpg"",""SV_PolicingMSA/NY_2726/IMG_1_2726.jpg"",""SV_PolicingMSA/NY_2726/IMG_10_2726.jpg"",""SV_PolicingMSA/NY_2726/IMG_12_2726.jpg"",""SV_PolicingMSA/NY_2726/IMG_7_2726.jpg"",""SV_PolicingMSA/NY_2726/IMG_2_2726.jpg""]","4","","","","","","2","","4","[""./rc_img/cop_condGroup_20_CommunitySafety_autoscaled.png"",""./rc_img/cop_condGroup_20_SafeStreets_autoscaled.png""]","4","",""
"demographics","survey-html-form","145","1615698","0.0-145.0","","656776a7904ae00d6b91d1dd","6568aa63267e0448c2576f49","11","","","","","","","","","","","","9706","","{""age"":""24"",""sex"":""male"",""gender"":""man"",""gender-self-describe"":"""",""zipcode"":""20149""}","","","","","","","","","","","",""
"demographics-list","survey","146","1629219","0.0-146.0","","656776a7904ae00d6b91d1dd","6568aa63267e0448c2576f49","11","","","","","","","","","","","","13489","","{""P0_Q0"":null,""race-ethnicity"":[""Black or of African ancestry""],""education"":""Bachelor’s degree"",""P1_Q0"":null,""ideology"":""Liberal"",""P2_Q0"":null,""num-moves"":0,""P3_Q0"":null,""social-ladder"":4}","","","","","","","[]","","","","",""
"end-survey","survey-text","147","1631830","0.0-147.0","","656776a7904ae00d6b91d1dd","6568aa63267e0448c2576f49","11","","","","","","","","","","","","2602","","{""Q0"":""""}","","","","","","","","","","","","2"
"end-survey","html-button-response","148","1636667","0.0-148.0","","656776a7904ae00d6b91d1dd","6568aa63267e0448c2576f49","11","","","","","","","","","","","","4836","
    You've reached the end of the survey. <br><br> 
    <b>Do not close or refresh this window.</b><br>
    On the next page, you will be automatically redirected to Prolific. <br><br>

    <div class=""alert alert-warning""><b>
    </div>
","0","","","","","","","","","","","",""
