"task","trial_type","trial_index","time_elapsed","internal_node_id","subject_id","study_id","session_id","section","width","height","webaudio","browser","browser_version","mobile","os","fullscreen","vsync_rate","webcam","microphone","rt","stimulus","response","success","timeout","failed_images","failed_audio","failed_video","block","accuracy","slider_start","choices","standardized_response","correct","num_attention_checks_correct"
"pavlovia-init","pavlovia","0","2049","0.0-0.0","","656776a7904ae00d6b91d1dd","6568a5e1f02565f56978d629","15","","","","","","","","","","","","","","","","","","","","","","","","","",""
"browser-check","browser-check","1","3718","0.0-1.0","","656776a7904ae00d6b91d1dd","6568a5e1f02565f56978d629","15","865","1576","true","firefox","120.0.0","true","Android OS","true","36.14","true","true","","","","","","","","","","","","","","",""
"consent","html-button-response","2","6730","0.0-2.0","","656776a7904ae00d6b91d1dd","6568a5e1f02565f56978d629","15","","","","","","","","","","","","3004","
        <div style=""font-size: 80%; max-width:700px"">
            <h2>CONSENT FORM</h2>
        
            <div style=""text-align: left"">
            <h4>DESCRIPTION</h4>
            <p>
            You will complete a short task where you give your impressions of various neighborhoods and assign individuals to those spaces, and answer some questions about your thoughts and opinions.<br>
            The University of Michigan Institutional Review Board Health Sciences and Behavioral Sciences has determined that this study is exempt from IRB oversight.
            </p>

            <h4>TIME INVOLVEMENT</h4>
            <p>Your participation will take approximately 15 minutes. You will receive $3.15 upon completion of the study.</p>
        
            <h4>RISKS AND BENEFITS</h4>
            <p>
            The risks associated with this study are minimal. The benefits which may reasonably be expected to result from this study are none. We cannot and do not guarantee or promise that you will receive any benefits from this study.
            </p>
          
            <h4>SUBJECT'S RIGHTS</h4>
            <p>
            If you have read this form and have decided to participate in this project, please understand your participation is voluntary and you have the right to withdraw your consent or discontinue participation at any time without penalty or loss of benefits to which you are otherwise entitled. The alternative is not to participate. You have the right to refuse to answer particular questions. Your individual privacy will be maintained in all published and written data resulting from the study.
            </p>

            <h4>HUMAN SUBJECT APPROVAL</h4>
            <p>
            This study is exempt from ongoing IRB review.
            </p>

            <h4>CONTACT INFORMATION</h4>
            If you have any questions, concerns or complaints about this research, its procedures, risks and benefits, contact the Protocol Director, Nicholas Camp, npcamp@umich.edu, (443) 851-6783. <br>

            If you have questions about your rights as a research participant, or wish to obtain information, ask questions or discuss any concerns about this study with someone other than the researcher(s), please contact the following:<br><br>
            University of Michigan<br>
            Health Sciences and Behavioral Sciences Institutional Review Board (IRB-HSBS)<br>
            2800 Plymouth Road<br>
            Building 520, Room 1169Ann Arbor, MI 48109-2800<br>
            Telephone: 734-936-0933 or toll free (866) 936-0933<br>
            Fax: 734-936-1852<br>
            E-mail: irbhsbs@umich.edu<br><br>

            You can also contact the University of Michigan Compliance Hotline at 1-866-990-0111. You may also print this consent form to keep.
            <br><br>
            <div class=""alert alert-warning""><b>
            Do you consent to participate in this study? If you consent to participate in this study, please click “Accept and Continue”. If you select ""Decline and Exit"", you will be exited from the survey. <br>
            </b></div>
            </div>
        </div>
    ","1","","","","","","","","","","","",""
"","preload","3","9164","0.0-3.0","","656776a7904ae00d6b91d1dd","6568a5e1f02565f56978d629","15","","","","","","","","","","","","","","","true","false","[]","[]","[]","","","","","","",""
"instructions","html-button-response","4","27337","0.0-4.0","","656776a7904ae00d6b91d1dd","6568a5e1f02565f56978d629","15","","","","","","","","","","","","18171","
        <div class=""text-container"">
        <h1>Welcome to the study!</h1>
        
        <div class=""text-left"">
            <p>
                In this study, we are interested in what people can tell about spaces from Google Street View images. <br> Google Street View takes pictures of streets used for Google Earth and Google Maps. <br>You’ll see Google Street View images of different places and answer some questions about each one.<br>
            </p>
        </div>
        <img src = ""assets/img/example.png"" width = 500px, height = auto>
        <br>
    <br>
    ","0","","","","","","","","","","","",""
"instructions","html-button-response","5","29646","0.0-5.0","","656776a7904ae00d6b91d1dd","6568a5e1f02565f56978d629","15","","","","","","","","","","","","2306","
    <div class=""text-container"">
        <div class=""text-center"">
            <p>Please remember that your answers are completely anonymous.<br>Go with your gut response- there are no right or wrong answers!</p>
        </div>
    <br>
","0","","","","","","","","","","","",""
"before_SVSlide_prompt","html-button-response","6","34145","0.0-6.0","","656776a7904ae00d6b91d1dd","6568a5e1f02565f56978d629","15","","","","","","","","","","","","4495","Click [Next] to see the next neighborhood!","0","","","","","","","","","","","",""
"street view slide show","image-button-response","7","35179","0.0-7.0","","656776a7904ae00d6b91d1dd","6568a5e1f02565f56978d629","15","","","","","","","","","","","","null","stimulus/SV_PolicingMSA/MA_855/IMG_11_855.jpg","null","","","","","","2","","","","","",""
"street view slide show","image-button-response","8","36195","0.0-8.0","","656776a7904ae00d6b91d1dd","6568a5e1f02565f56978d629","15","","","","","","","","","","","","null","stimulus/SV_PolicingMSA/MA_855/IMG_14_855.jpg","null","","","","","","2","","","","","",""
"street view slide show","image-button-response","9","37211","0.0-9.0","","656776a7904ae00d6b91d1dd","6568a5e1f02565f56978d629","15","","","","","","","","","","","","null","stimulus/SV_PolicingMSA/MA_855/IMG_12_855.jpg","null","","","","","","2","","","","","",""
"street view slide show","image-button-response","10","38226","0.0-10.0","","656776a7904ae00d6b91d1dd","6568a5e1f02565f56978d629","15","","","","","","","","","","","","null","stimulus/SV_PolicingMSA/MA_855/IMG_9_855.jpg","null","","","","","","2","","","","","",""
"street view slide show","image-button-response","11","39242","0.0-11.0","","656776a7904ae00d6b91d1dd","6568a5e1f02565f56978d629","15","","","","","","","","","","","","null","stimulus/SV_PolicingMSA/MA_855/IMG_1_855.jpg","null","","","","","","2","","","","","",""
"street view slide show","image-button-response","12","40256","0.0-12.0","","656776a7904ae00d6b91d1dd","6568a5e1f02565f56978d629","15","","","","","","","","","","","","null","stimulus/SV_PolicingMSA/MA_855/IMG_5_855.jpg","null","","","","","","2","","","","","",""
"street view slide show","image-button-response","13","41270","0.0-13.0","","656776a7904ae00d6b91d1dd","6568a5e1f02565f56978d629","15","","","","","","","","","","","","null","stimulus/SV_PolicingMSA/MA_855/IMG_0_855.jpg","null","","","","","","2","","","","","",""
"street view slide show","image-button-response","14","42278","0.0-14.0","","656776a7904ae00d6b91d1dd","6568a5e1f02565f56978d629","15","","","","","","","","","","","","null","stimulus/SV_PolicingMSA/MA_855/IMG_8_855.jpg","null","","","","","","2","","","","","",""
"dot matrix survey1","survey","15","70042","0.0-15.0","","656776a7904ae00d6b91d1dd","6568a5e1f02565f56978d629","15","","","","","","","","","","","","27689","","{""P0_Q0"":null,""P0_Q1"":{""wealthy"":1,""safe"":2,""walkable"":3,""traditional"":4,""diverse"":3}}","","","","","","2","[]","","","","",""
"dot matrix survey2","survey","16","94207","0.0-16.0","","656776a7904ae00d6b91d1dd","6568a5e1f02565f56978d629","15","","","","","","","","","","","","24145","","{""P0_Q0"":null,""P0_Q1"":{""crime"":2,""violence"":2,""drug"":2,""schools"":2,""opportunities"":1}}","","","","","","2","[]","","","","",""
"dot matrix survey3","survey","17","134031","0.0-17.0","","656776a7904ae00d6b91d1dd","6568a5e1f02565f56978d629","15","","","","","","","","","","","","39806","","{""P0_Q0"":null,""P0_Q1"":{""movein"":0,""moveout"":4,""shopping"":2,""walk"":0,""park"":2,""school"":0}}","","","","","","2","[]","","","","",""
"sliderTrial","html-slider-response","18","147023","0.0-18.0","","656776a7904ae00d6b91d1dd","6568a5e1f02565f56978d629","15","","","","","","","","","","","","12986","[""SV_PolicingMSA/MA_855/IMG_11_855.jpg"",""SV_PolicingMSA/MA_855/IMG_14_855.jpg"",""SV_PolicingMSA/MA_855/IMG_12_855.jpg"",""SV_PolicingMSA/MA_855/IMG_9_855.jpg"",""SV_PolicingMSA/MA_855/IMG_1_855.jpg"",""SV_PolicingMSA/MA_855/IMG_5_855.jpg"",""SV_PolicingMSA/MA_855/IMG_0_855.jpg"",""SV_PolicingMSA/MA_855/IMG_8_855.jpg""]","1","","","","","","2","","4","[""./rc_img/cop_condGroup_15_CommunitySafety_autoscaled.png"",""./rc_img/cop_condGroup_15_SafeStreets_autoscaled.png""]","1","",""
"sliderTrial","html-slider-response","19","155020","0.0-19.0","","656776a7904ae00d6b91d1dd","6568a5e1f02565f56978d629","15","","","","","","","","","","","","7993","[""SV_PolicingMSA/MA_855/IMG_11_855.jpg"",""SV_PolicingMSA/MA_855/IMG_14_855.jpg"",""SV_PolicingMSA/MA_855/IMG_12_855.jpg"",""SV_PolicingMSA/MA_855/IMG_9_855.jpg"",""SV_PolicingMSA/MA_855/IMG_1_855.jpg"",""SV_PolicingMSA/MA_855/IMG_5_855.jpg"",""SV_PolicingMSA/MA_855/IMG_0_855.jpg"",""SV_PolicingMSA/MA_855/IMG_8_855.jpg""]","7","","","","","","2","","4","[""./rc_img/cop_condGroup_8_SafeStreets_autoscaled.png"",""./rc_img/cop_condGroup_8_CommunitySafety_autoscaled.png""]","1","",""
"sliderTrial","html-slider-response","20","158514","0.0-20.0","","656776a7904ae00d6b91d1dd","6568a5e1f02565f56978d629","15","","","","","","","","","","","","3489","[""SV_PolicingMSA/MA_855/IMG_11_855.jpg"",""SV_PolicingMSA/MA_855/IMG_14_855.jpg"",""SV_PolicingMSA/MA_855/IMG_12_855.jpg"",""SV_PolicingMSA/MA_855/IMG_9_855.jpg"",""SV_PolicingMSA/MA_855/IMG_1_855.jpg"",""SV_PolicingMSA/MA_855/IMG_5_855.jpg"",""SV_PolicingMSA/MA_855/IMG_0_855.jpg"",""SV_PolicingMSA/MA_855/IMG_8_855.jpg""]","2","","","","","","2","","4","[""./rc_img/cop_condGroup_13_CommunitySafety_autoscaled.png"",""./rc_img/cop_condGroup_13_SafeStreets_autoscaled.png""]","2","",""
"sliderTrial","html-slider-response","21","161877","0.0-21.0","","656776a7904ae00d6b91d1dd","6568a5e1f02565f56978d629","15","","","","","","","","","","","","3360","[""SV_PolicingMSA/MA_855/IMG_11_855.jpg"",""SV_PolicingMSA/MA_855/IMG_14_855.jpg"",""SV_PolicingMSA/MA_855/IMG_12_855.jpg"",""SV_PolicingMSA/MA_855/IMG_9_855.jpg"",""SV_PolicingMSA/MA_855/IMG_1_855.jpg"",""SV_PolicingMSA/MA_855/IMG_5_855.jpg"",""SV_PolicingMSA/MA_855/IMG_0_855.jpg"",""SV_PolicingMSA/MA_855/IMG_8_855.jpg""]","7","","","","","","2","","4","[""./rc_img/cop_condGroup_10_SafeStreets_autoscaled.png"",""./rc_img/cop_condGroup_10_CommunitySafety_autoscaled.png""]","1","",""
"sliderTrial","html-slider-response","22","162293","0.0-22.0","","656776a7904ae00d6b91d1dd","6568a5e1f02565f56978d629","15","","","","","","","","","","","","412","[""SV_PolicingMSA/MA_855/IMG_11_855.jpg"",""SV_PolicingMSA/MA_855/IMG_14_855.jpg"",""SV_PolicingMSA/MA_855/IMG_12_855.jpg"",""SV_PolicingMSA/MA_855/IMG_9_855.jpg"",""SV_PolicingMSA/MA_855/IMG_1_855.jpg"",""SV_PolicingMSA/MA_855/IMG_5_855.jpg"",""SV_PolicingMSA/MA_855/IMG_0_855.jpg"",""SV_PolicingMSA/MA_855/IMG_8_855.jpg""]","4","","","","","","2","","4","[""./rc_img/cop_condGroup_14_SafeStreets_autoscaled.png"",""./rc_img/cop_condGroup_14_CommunitySafety_autoscaled.png""]","4","",""
"before_SVSlide_prompt","html-button-response","23","163522","0.0-23.0","","656776a7904ae00d6b91d1dd","6568a5e1f02565f56978d629","15","","","","","","","","","","","","1225","Click [Next] to see the next neighborhood!","0","","","","","","","","","","","",""
"street view slide show","image-button-response","24","164533","0.0-24.0","","656776a7904ae00d6b91d1dd","6568a5e1f02565f56978d629","15","","","","","","","","","","","","null","stimulus/SV_PolicingMSA/MA_181/IMG_5_181.jpg","null","","","","","","3","","","","","",""
"street view slide show","image-button-response","25","165549","0.0-25.0","","656776a7904ae00d6b91d1dd","6568a5e1f02565f56978d629","15","","","","","","","","","","","","null","stimulus/SV_PolicingMSA/MA_181/IMG_8_181.jpg","null","","","","","","3","","","","","",""
"street view slide show","image-button-response","26","166563","0.0-26.0","","656776a7904ae00d6b91d1dd","6568a5e1f02565f56978d629","15","","","","","","","","","","","","null","stimulus/SV_PolicingMSA/MA_181/IMG_7_181.jpg","null","","","","","","3","","","","","",""
"street view slide show","image-button-response","27","167579","0.0-27.0","","656776a7904ae00d6b91d1dd","6568a5e1f02565f56978d629","15","","","","","","","","","","","","null","stimulus/SV_PolicingMSA/MA_181/IMG_10_181.jpg","null","","","","","","3","","","","","",""
"street view slide show","image-button-response","28","168594","0.0-28.0","","656776a7904ae00d6b91d1dd","6568a5e1f02565f56978d629","15","","","","","","","","","","","","null","stimulus/SV_PolicingMSA/MA_181/IMG_6_181.jpg","null","","","","","","3","","","","","",""
"street view slide show","image-button-response","29","169607","0.0-29.0","","656776a7904ae00d6b91d1dd","6568a5e1f02565f56978d629","15","","","","","","","","","","","","null","stimulus/SV_PolicingMSA/MA_181/IMG_4_181.jpg","null","","","","","","3","","","","","",""
"street view slide show","image-button-response","30","170619","0.0-30.0","","656776a7904ae00d6b91d1dd","6568a5e1f02565f56978d629","15","","","","","","","","","","","","null","stimulus/SV_PolicingMSA/MA_181/IMG_2_181.jpg","null","","","","","","3","","","","","",""
"street view slide show","image-button-response","31","171635","0.0-31.0","","656776a7904ae00d6b91d1dd","6568a5e1f02565f56978d629","15","","","","","","","","","","","","null","stimulus/SV_PolicingMSA/MA_181/IMG_3_181.jpg","null","","","","","","3","","","","","",""
"dot matrix survey1","survey","32","187907","0.0-32.0","","656776a7904ae00d6b91d1dd","6568a5e1f02565f56978d629","15","","","","","","","","","","","","16248","","{""P0_Q0"":null,""P0_Q1"":{""wealthy"":3,""safe"":4,""walkable"":3,""traditional"":4,""diverse"":3}}","","","","","","3","[]","","","","",""
"dot matrix survey2","survey","33","201100","0.0-33.0","","656776a7904ae00d6b91d1dd","6568a5e1f02565f56978d629","15","","","","","","","","","","","","13171","","{""P0_Q0"":null,""P0_Q1"":{""violence"":1,""crime"":1,""drug"":2,""schools"":3,""opportunities"":3}}","","","","","","3","[]","","","","",""
"dot matrix survey3","survey","34","227606","0.0-34.0","","656776a7904ae00d6b91d1dd","6568a5e1f02565f56978d629","15","","","","","","","","","","","","26495","","{""P0_Q0"":null,""P0_Q1"":{""movein"":0,""moveout"":4,""shopping"":2,""walk"":1,""park"":2,""school"":0}}","","","","","","3","[]","","","","",""
"sliderTrial","html-slider-response","35","232253","0.0-35.0","","656776a7904ae00d6b91d1dd","6568a5e1f02565f56978d629","15","","","","","","","","","","","","4643","[""SV_PolicingMSA/MA_181/IMG_5_181.jpg"",""SV_PolicingMSA/MA_181/IMG_8_181.jpg"",""SV_PolicingMSA/MA_181/IMG_7_181.jpg"",""SV_PolicingMSA/MA_181/IMG_10_181.jpg"",""SV_PolicingMSA/MA_181/IMG_6_181.jpg"",""SV_PolicingMSA/MA_181/IMG_4_181.jpg"",""SV_PolicingMSA/MA_181/IMG_2_181.jpg"",""SV_PolicingMSA/MA_181/IMG_3_181.jpg""]","7","","","","","","3","","4","[""./rc_img/cop_condGroup_18_CommunitySafety_autoscaled.png"",""./rc_img/cop_condGroup_18_SafeStreets_autoscaled.png""]","7","",""
"sliderTrial","html-slider-response","36","234660","0.0-36.0","","656776a7904ae00d6b91d1dd","6568a5e1f02565f56978d629","15","","","","","","","","","","","","2401","[""SV_PolicingMSA/MA_181/IMG_5_181.jpg"",""SV_PolicingMSA/MA_181/IMG_8_181.jpg"",""SV_PolicingMSA/MA_181/IMG_7_181.jpg"",""SV_PolicingMSA/MA_181/IMG_10_181.jpg"",""SV_PolicingMSA/MA_181/IMG_6_181.jpg"",""SV_PolicingMSA/MA_181/IMG_4_181.jpg"",""SV_PolicingMSA/MA_181/IMG_2_181.jpg"",""SV_PolicingMSA/MA_181/IMG_3_181.jpg""]","1","","","","","","3","","4","[""./rc_img/cop_condGroup_17_SafeStreets_autoscaled.png"",""./rc_img/cop_condGroup_17_CommunitySafety_autoscaled.png""]","7","",""
"sliderTrial","html-slider-response","37","236811","0.0-37.0","","656776a7904ae00d6b91d1dd","6568a5e1f02565f56978d629","15","","","","","","","","","","","","2148","[""SV_PolicingMSA/MA_181/IMG_5_181.jpg"",""SV_PolicingMSA/MA_181/IMG_8_181.jpg"",""SV_PolicingMSA/MA_181/IMG_7_181.jpg"",""SV_PolicingMSA/MA_181/IMG_10_181.jpg"",""SV_PolicingMSA/MA_181/IMG_6_181.jpg"",""SV_PolicingMSA/MA_181/IMG_4_181.jpg"",""SV_PolicingMSA/MA_181/IMG_2_181.jpg"",""SV_PolicingMSA/MA_181/IMG_3_181.jpg""]","7","","","","","","3","","4","[""./rc_img/cop_condGroup_19_CommunitySafety_autoscaled.png"",""./rc_img/cop_condGroup_19_SafeStreets_autoscaled.png""]","7","",""
"sliderTrial","html-slider-response","38","238620","0.0-38.0","","656776a7904ae00d6b91d1dd","6568a5e1f02565f56978d629","15","","","","","","","","","","","","1804","[""SV_PolicingMSA/MA_181/IMG_5_181.jpg"",""SV_PolicingMSA/MA_181/IMG_8_181.jpg"",""SV_PolicingMSA/MA_181/IMG_7_181.jpg"",""SV_PolicingMSA/MA_181/IMG_10_181.jpg"",""SV_PolicingMSA/MA_181/IMG_6_181.jpg"",""SV_PolicingMSA/MA_181/IMG_4_181.jpg"",""SV_PolicingMSA/MA_181/IMG_2_181.jpg"",""SV_PolicingMSA/MA_181/IMG_3_181.jpg""]","1","","","","","","3","","4","[""./rc_img/cop_condGroup_16_SafeStreets_autoscaled.png"",""./rc_img/cop_condGroup_16_CommunitySafety_autoscaled.png""]","7","",""
"sliderTrial","html-slider-response","39","240542","0.0-39.0","","656776a7904ae00d6b91d1dd","6568a5e1f02565f56978d629","15","","","","","","","","","","","","1915","[""SV_PolicingMSA/MA_181/IMG_5_181.jpg"",""SV_PolicingMSA/MA_181/IMG_8_181.jpg"",""SV_PolicingMSA/MA_181/IMG_7_181.jpg"",""SV_PolicingMSA/MA_181/IMG_10_181.jpg"",""SV_PolicingMSA/MA_181/IMG_6_181.jpg"",""SV_PolicingMSA/MA_181/IMG_4_181.jpg"",""SV_PolicingMSA/MA_181/IMG_2_181.jpg"",""SV_PolicingMSA/MA_181/IMG_3_181.jpg""]","7","","","","","","3","","4","[""./rc_img/cop_condGroup_20_CommunitySafety_autoscaled.png"",""./rc_img/cop_condGroup_20_SafeStreets_autoscaled.png""]","7","",""
"before_SVSlide_prompt","html-button-response","40","241603","0.0-40.0","","656776a7904ae00d6b91d1dd","6568a5e1f02565f56978d629","15","","","","","","","","","","","","1059","Click [Next] to see the next neighborhood!","0","","","","","","","","","","","",""
"street view slide show","image-button-response","41","242616","0.0-41.0","","656776a7904ae00d6b91d1dd","6568a5e1f02565f56978d629","15","","","","","","","","","","","","null","stimulus/SV_PolicingMSA/MA_854/IMG_11_854.jpg","null","","","","","","1","","","","","",""
"street view slide show","image-button-response","42","243633","0.0-42.0","","656776a7904ae00d6b91d1dd","6568a5e1f02565f56978d629","15","","","","","","","","","","","","null","stimulus/SV_PolicingMSA/MA_854/IMG_7_854.jpg","null","","","","","","1","","","","","",""
"street view slide show","image-button-response","43","244648","0.0-43.0","","656776a7904ae00d6b91d1dd","6568a5e1f02565f56978d629","15","","","","","","","","","","","","null","stimulus/SV_PolicingMSA/MA_854/IMG_13_854.jpg","null","","","","","","1","","","","","",""
"street view slide show","image-button-response","44","245664","0.0-44.0","","656776a7904ae00d6b91d1dd","6568a5e1f02565f56978d629","15","","","","","","","","","","","","null","stimulus/SV_PolicingMSA/MA_854/IMG_12_854.jpg","null","","","","","","1","","","","","",""
"street view slide show","image-button-response","45","246679","0.0-45.0","","656776a7904ae00d6b91d1dd","6568a5e1f02565f56978d629","15","","","","","","","","","","","","null","stimulus/SV_PolicingMSA/MA_854/IMG_0_854.jpg","null","","","","","","1","","","","","",""
"street view slide show","image-button-response","46","247694","0.0-46.0","","656776a7904ae00d6b91d1dd","6568a5e1f02565f56978d629","15","","","","","","","","","","","","null","stimulus/SV_PolicingMSA/MA_854/IMG_10_854.jpg","null","","","","","","1","","","","","",""
"street view slide show","image-button-response","47","248721","0.0-47.0","","656776a7904ae00d6b91d1dd","6568a5e1f02565f56978d629","15","","","","","","","","","","","","null","stimulus/SV_PolicingMSA/MA_854/IMG_3_854.jpg","null","","","","","","1","","","","","",""
"street view slide show","image-button-response","48","249738","0.0-48.0","","656776a7904ae00d6b91d1dd","6568a5e1f02565f56978d629","15","","","","","","","","","","","","null","stimulus/SV_PolicingMSA/MA_854/IMG_5_854.jpg","null","","","","","","1","","","","","",""
"dot matrix survey1","survey","49","263084","0.0-49.0","","656776a7904ae00d6b91d1dd","6568a5e1f02565f56978d629","15","","","","","","","","","","","","13321","","{""P0_Q0"":null,""P0_Q1"":{""wealthy"":1,""walkable"":1,""safe"":1,""traditional"":2,""diverse"":2}}","","","","","","1","[]","","","","",""
"dot matrix survey2","survey","50","297667","0.0-50.0","","656776a7904ae00d6b91d1dd","6568a5e1f02565f56978d629","15","","","","","","","","","","","","34571","","{""P0_Q0"":null,""P0_Q1"":{""violence"":3,""crime"":3,""drug"":3,""schools"":0,""opportunities"":0}}","","","","","","1","[]","","","","",""
"dot matrix survey3","survey","51","310113","0.0-51.0","","656776a7904ae00d6b91d1dd","6568a5e1f02565f56978d629","15","","","","","","","","","","","","12431","","{""P0_Q0"":null,""P0_Q1"":{""movein"":0,""moveout"":4,""shopping"":2,""walk"":0,""park"":0,""school"":0}}","","","","","","1","[]","","","","",""
"sliderTrial","html-slider-response","52","315088","0.0-52.0","","656776a7904ae00d6b91d1dd","6568a5e1f02565f56978d629","15","","","","","","","","","","","","4972","[""SV_PolicingMSA/MA_854/IMG_11_854.jpg"",""SV_PolicingMSA/MA_854/IMG_7_854.jpg"",""SV_PolicingMSA/MA_854/IMG_13_854.jpg"",""SV_PolicingMSA/MA_854/IMG_12_854.jpg"",""SV_PolicingMSA/MA_854/IMG_0_854.jpg"",""SV_PolicingMSA/MA_854/IMG_10_854.jpg"",""SV_PolicingMSA/MA_854/IMG_3_854.jpg"",""SV_PolicingMSA/MA_854/IMG_5_854.jpg""]","7","","","","","","1","","4","[""./rc_img/cop_condGroup_7_CommunitySafety_autoscaled.png"",""./rc_img/cop_condGroup_7_SafeStreets_autoscaled.png""]","7","",""
"sliderTrial","html-slider-response","53","317599","0.0-53.0","","656776a7904ae00d6b91d1dd","6568a5e1f02565f56978d629","15","","","","","","","","","","","","2507","[""SV_PolicingMSA/MA_854/IMG_11_854.jpg"",""SV_PolicingMSA/MA_854/IMG_7_854.jpg"",""SV_PolicingMSA/MA_854/IMG_13_854.jpg"",""SV_PolicingMSA/MA_854/IMG_12_854.jpg"",""SV_PolicingMSA/MA_854/IMG_0_854.jpg"",""SV_PolicingMSA/MA_854/IMG_10_854.jpg"",""SV_PolicingMSA/MA_854/IMG_3_854.jpg"",""SV_PolicingMSA/MA_854/IMG_5_854.jpg""]","7","","","","","","1","","4","[""./rc_img/cop_condGroup_5_SafeStreets_autoscaled.png"",""./rc_img/cop_condGroup_5_CommunitySafety_autoscaled.png""]","1","",""
"sliderTrial","html-slider-response","54","320708","0.0-54.0","","656776a7904ae00d6b91d1dd","6568a5e1f02565f56978d629","15","","","","","","","","","","","","3105","[""SV_PolicingMSA/MA_854/IMG_11_854.jpg"",""SV_PolicingMSA/MA_854/IMG_7_854.jpg"",""SV_PolicingMSA/MA_854/IMG_13_854.jpg"",""SV_PolicingMSA/MA_854/IMG_12_854.jpg"",""SV_PolicingMSA/MA_854/IMG_0_854.jpg"",""SV_PolicingMSA/MA_854/IMG_10_854.jpg"",""SV_PolicingMSA/MA_854/IMG_3_854.jpg"",""SV_PolicingMSA/MA_854/IMG_5_854.jpg""]","7","","","","","","1","","4","[""./rc_img/cop_condGroup_11_SafeStreets_autoscaled.png"",""./rc_img/cop_condGroup_11_CommunitySafety_autoscaled.png""]","1","",""
"sliderTrial","html-slider-response","55","322844","0.0-55.0","","656776a7904ae00d6b91d1dd","6568a5e1f02565f56978d629","15","","","","","","","","","","","","2130","[""SV_PolicingMSA/MA_854/IMG_11_854.jpg"",""SV_PolicingMSA/MA_854/IMG_7_854.jpg"",""SV_PolicingMSA/MA_854/IMG_13_854.jpg"",""SV_PolicingMSA/MA_854/IMG_12_854.jpg"",""SV_PolicingMSA/MA_854/IMG_0_854.jpg"",""SV_PolicingMSA/MA_854/IMG_10_854.jpg"",""SV_PolicingMSA/MA_854/IMG_3_854.jpg"",""SV_PolicingMSA/MA_854/IMG_5_854.jpg""]","1","","","","","","1","","4","[""./rc_img/cop_condGroup_12_SafeStreets_autoscaled.png"",""./rc_img/cop_condGroup_12_CommunitySafety_autoscaled.png""]","7","",""
"sliderTrial_attention","html-slider-response","56","332853","0.0-56.0","","656776a7904ae00d6b91d1dd","6568a5e1f02565f56978d629","15","","","","","","","","","","","","null","[""SV_PolicingMSA/MA_854/IMG_11_854.jpg"",""SV_PolicingMSA/MA_854/IMG_7_854.jpg"",""SV_PolicingMSA/MA_854/IMG_13_854.jpg"",""SV_PolicingMSA/MA_854/IMG_12_854.jpg"",""SV_PolicingMSA/MA_854/IMG_0_854.jpg"",""SV_PolicingMSA/MA_854/IMG_10_854.jpg"",""SV_PolicingMSA/MA_854/IMG_3_854.jpg"",""SV_PolicingMSA/MA_854/IMG_5_854.jpg""]","null","","","","","","1","","4","[""./assets/img/attnchk.png"",""./assets/img/attnchk.png""]","","true",""
"sliderTrial","html-slider-response","57","337463","0.0-57.0","","656776a7904ae00d6b91d1dd","6568a5e1f02565f56978d629","15","","","","","","","","","","","","4599","[""SV_PolicingMSA/MA_854/IMG_11_854.jpg"",""SV_PolicingMSA/MA_854/IMG_7_854.jpg"",""SV_PolicingMSA/MA_854/IMG_13_854.jpg"",""SV_PolicingMSA/MA_854/IMG_12_854.jpg"",""SV_PolicingMSA/MA_854/IMG_0_854.jpg"",""SV_PolicingMSA/MA_854/IMG_10_854.jpg"",""SV_PolicingMSA/MA_854/IMG_3_854.jpg"",""SV_PolicingMSA/MA_854/IMG_5_854.jpg""]","1","","","","","","1","","4","[""./rc_img/cop_condGroup_9_SafeStreets_autoscaled.png"",""./rc_img/cop_condGroup_9_CommunitySafety_autoscaled.png""]","7","",""
"before_SVSlide_prompt","html-button-response","58","338574","0.0-58.0","","656776a7904ae00d6b91d1dd","6568a5e1f02565f56978d629","15","","","","","","","","","","","","1109","Click [Next] to see the next neighborhood!","0","","","","","","","","","","","",""
"street view slide show","image-button-response","59","339583","0.0-59.0","","656776a7904ae00d6b91d1dd","6568a5e1f02565f56978d629","15","","","","","","","","","","","","null","stimulus/SV_PolicingMSA/MA_159/IMG_7_159.jpg","null","","","","","","4","","","","","",""
"street view slide show","image-button-response","60","340607","0.0-60.0","","656776a7904ae00d6b91d1dd","6568a5e1f02565f56978d629","15","","","","","","","","","","","","null","stimulus/SV_PolicingMSA/MA_159/IMG_14_159.jpg","null","","","","","","4","","","","","",""
"street view slide show","image-button-response","61","341621","0.0-61.0","","656776a7904ae00d6b91d1dd","6568a5e1f02565f56978d629","15","","","","","","","","","","","","null","stimulus/SV_PolicingMSA/MA_159/IMG_4_159.jpg","null","","","","","","4","","","","","",""
"street view slide show","image-button-response","62","342639","0.0-62.0","","656776a7904ae00d6b91d1dd","6568a5e1f02565f56978d629","15","","","","","","","","","","","","null","stimulus/SV_PolicingMSA/MA_159/IMG_11_159.jpg","null","","","","","","4","","","","","",""
"street view slide show","image-button-response","63","343653","0.0-63.0","","656776a7904ae00d6b91d1dd","6568a5e1f02565f56978d629","15","","","","","","","","","","","","null","stimulus/SV_PolicingMSA/MA_159/IMG_10_159.jpg","null","","","","","","4","","","","","",""
"street view slide show","image-button-response","64","344668","0.0-64.0","","656776a7904ae00d6b91d1dd","6568a5e1f02565f56978d629","15","","","","","","","","","","","","null","stimulus/SV_PolicingMSA/MA_159/IMG_5_159.jpg","null","","","","","","4","","","","","",""
"street view slide show","image-button-response","65","345688","0.0-65.0","","656776a7904ae00d6b91d1dd","6568a5e1f02565f56978d629","15","","","","","","","","","","","","null","stimulus/SV_PolicingMSA/MA_159/IMG_13_159.jpg","null","","","","","","4","","","","","",""
"street view slide show","image-button-response","66","346703","0.0-66.0","","656776a7904ae00d6b91d1dd","6568a5e1f02565f56978d629","15","","","","","","","","","","","","null","stimulus/SV_PolicingMSA/MA_159/IMG_9_159.jpg","null","","","","","","4","","","","","",""
"dot matrix survey1","survey","67","441737","0.0-67.0","","656776a7904ae00d6b91d1dd","6568a5e1f02565f56978d629","15","","","","","","","","","","","","95016","","{""P0_Q0"":null,""P0_Q1"":{""wealthy"":3,""safe"":4,""walkable"":2,""traditional"":4}}","","","","","","4","[]","","","","",""
"dot matrix survey2","survey","68","465480","0.0-68.0","","656776a7904ae00d6b91d1dd","6568a5e1f02565f56978d629","15","","","","","","","","","","","","23729","","{""P0_Q0"":null,""P0_Q1"":{""violence"":1,""crime"":1,""drug"":2,""schools"":3,""opportunities"":4}}","","","","","","4","[]","","","","",""
"dot matrix survey3","survey","69","486600","0.0-69.0","","656776a7904ae00d6b91d1dd","6568a5e1f02565f56978d629","15","","","","","","","","","","","","21104","","{""P0_Q0"":null,""P0_Q1"":{""movein"":1,""moveout"":3,""shopping"":2,""walk"":2,""park"":2,""school"":2}}","","","","","","4","[]","","","","",""
"sliderTrial","html-slider-response","70","490974","0.0-70.0","","656776a7904ae00d6b91d1dd","6568a5e1f02565f56978d629","15","","","","","","","","","","","","4371","[""SV_PolicingMSA/MA_159/IMG_7_159.jpg"",""SV_PolicingMSA/MA_159/IMG_14_159.jpg"",""SV_PolicingMSA/MA_159/IMG_4_159.jpg"",""SV_PolicingMSA/MA_159/IMG_11_159.jpg"",""SV_PolicingMSA/MA_159/IMG_10_159.jpg"",""SV_PolicingMSA/MA_159/IMG_5_159.jpg"",""SV_PolicingMSA/MA_159/IMG_13_159.jpg"",""SV_PolicingMSA/MA_159/IMG_9_159.jpg""]","4","","","","","","4","","4","[""./rc_img/cop_condGroup_15_CommunitySafety_autoscaled.png"",""./rc_img/cop_condGroup_15_SafeStreets_autoscaled.png""]","4","",""
"sliderTrial","html-slider-response","71","495407","0.0-71.0","","656776a7904ae00d6b91d1dd","6568a5e1f02565f56978d629","15","","","","","","","","","","","","4429","[""SV_PolicingMSA/MA_159/IMG_7_159.jpg"",""SV_PolicingMSA/MA_159/IMG_14_159.jpg"",""SV_PolicingMSA/MA_159/IMG_4_159.jpg"",""SV_PolicingMSA/MA_159/IMG_11_159.jpg"",""SV_PolicingMSA/MA_159/IMG_10_159.jpg"",""SV_PolicingMSA/MA_159/IMG_5_159.jpg"",""SV_PolicingMSA/MA_159/IMG_13_159.jpg"",""SV_PolicingMSA/MA_159/IMG_9_159.jpg""]","5","","","","","","4","","4","[""./rc_img/cop_condGroup_8_SafeStreets_autoscaled.png"",""./rc_img/cop_condGroup_8_CommunitySafety_autoscaled.png""]","3","",""
"sliderTrial","html-slider-response","72","497765","0.0-72.0","","656776a7904ae00d6b91d1dd","6568a5e1f02565f56978d629","15","","","","","","","","","","","","2354","[""SV_PolicingMSA/MA_159/IMG_7_159.jpg"",""SV_PolicingMSA/MA_159/IMG_14_159.jpg"",""SV_PolicingMSA/MA_159/IMG_4_159.jpg"",""SV_PolicingMSA/MA_159/IMG_11_159.jpg"",""SV_PolicingMSA/MA_159/IMG_10_159.jpg"",""SV_PolicingMSA/MA_159/IMG_5_159.jpg"",""SV_PolicingMSA/MA_159/IMG_13_159.jpg"",""SV_PolicingMSA/MA_159/IMG_9_159.jpg""]","2","","","","","","4","","4","[""./rc_img/cop_condGroup_13_CommunitySafety_autoscaled.png"",""./rc_img/cop_condGroup_13_SafeStreets_autoscaled.png""]","2","",""
"sliderTrial","html-slider-response","73","500600","0.0-73.0","","656776a7904ae00d6b91d1dd","6568a5e1f02565f56978d629","15","","","","","","","","","","","","2830","[""SV_PolicingMSA/MA_159/IMG_7_159.jpg"",""SV_PolicingMSA/MA_159/IMG_14_159.jpg"",""SV_PolicingMSA/MA_159/IMG_4_159.jpg"",""SV_PolicingMSA/MA_159/IMG_11_159.jpg"",""SV_PolicingMSA/MA_159/IMG_10_159.jpg"",""SV_PolicingMSA/MA_159/IMG_5_159.jpg"",""SV_PolicingMSA/MA_159/IMG_13_159.jpg"",""SV_PolicingMSA/MA_159/IMG_9_159.jpg""]","5","","","","","","4","","4","[""./rc_img/cop_condGroup_10_SafeStreets_autoscaled.png"",""./rc_img/cop_condGroup_10_CommunitySafety_autoscaled.png""]","3","",""
"sliderTrial","html-slider-response","74","502985","0.0-74.0","","656776a7904ae00d6b91d1dd","6568a5e1f02565f56978d629","15","","","","","","","","","","","","2379","[""SV_PolicingMSA/MA_159/IMG_7_159.jpg"",""SV_PolicingMSA/MA_159/IMG_14_159.jpg"",""SV_PolicingMSA/MA_159/IMG_4_159.jpg"",""SV_PolicingMSA/MA_159/IMG_11_159.jpg"",""SV_PolicingMSA/MA_159/IMG_10_159.jpg"",""SV_PolicingMSA/MA_159/IMG_5_159.jpg"",""SV_PolicingMSA/MA_159/IMG_13_159.jpg"",""SV_PolicingMSA/MA_159/IMG_9_159.jpg""]","5","","","","","","4","","4","[""./rc_img/cop_condGroup_14_SafeStreets_autoscaled.png"",""./rc_img/cop_condGroup_14_CommunitySafety_autoscaled.png""]","3","",""
"half-way","html-button-response","75","517175","0.0-75.0","","656776a7904ae00d6b91d1dd","6568a5e1f02565f56978d629","15","","","","","","","","","","","","14186","
    <h3>You are now half way through the study.</h3>
    <p>Please take a quick, 15-second break before you continue.</p>
    <img src='assets/img/countdown-15.gif'>
    <p>The study will automatically advance forward after the countdown is complete. <br> However, you may click ""Next"" to advance forward now if you wish.</p>
    ","0","","","","","","","","","","","",""
"before_SVSlide_prompt","html-button-response","76","518679","0.0-76.0","","656776a7904ae00d6b91d1dd","6568a5e1f02565f56978d629","15","","","","","","","","","","","","1501","Click [Next] to see the next neighborhood!","0","","","","","","","","","","","",""
"street view slide show","image-button-response","77","519689","0.0-77.0","","656776a7904ae00d6b91d1dd","6568a5e1f02565f56978d629","15","","","","","","","","","","","","null","stimulus/SV_PolicingMSA/MA_1486/IMG_8_1486.jpg","null","","","","","","2","","","","","",""
"street view slide show","image-button-response","78","520713","0.0-78.0","","656776a7904ae00d6b91d1dd","6568a5e1f02565f56978d629","15","","","","","","","","","","","","null","stimulus/SV_PolicingMSA/MA_1486/IMG_9_1486.jpg","null","","","","","","2","","","","","",""
"street view slide show","image-button-response","79","521735","0.0-79.0","","656776a7904ae00d6b91d1dd","6568a5e1f02565f56978d629","15","","","","","","","","","","","","null","stimulus/SV_PolicingMSA/MA_1486/IMG_5_1486.jpg","null","","","","","","2","","","","","",""
"street view slide show","image-button-response","80","522748","0.0-80.0","","656776a7904ae00d6b91d1dd","6568a5e1f02565f56978d629","15","","","","","","","","","","","","null","stimulus/SV_PolicingMSA/MA_1486/IMG_4_1486.jpg","null","","","","","","2","","","","","",""
"street view slide show","image-button-response","81","523776","0.0-81.0","","656776a7904ae00d6b91d1dd","6568a5e1f02565f56978d629","15","","","","","","","","","","","","null","stimulus/SV_PolicingMSA/MA_1486/IMG_0_1486.jpg","null","","","","","","2","","","","","",""
"street view slide show","image-button-response","82","524876","0.0-82.0","","656776a7904ae00d6b91d1dd","6568a5e1f02565f56978d629","15","","","","","","","","","","","","null","stimulus/SV_PolicingMSA/MA_1486/IMG_12_1486.jpg","null","","","","","","2","","","","","",""
"street view slide show","image-button-response","83","525890","0.0-83.0","","656776a7904ae00d6b91d1dd","6568a5e1f02565f56978d629","15","","","","","","","","","","","","null","stimulus/SV_PolicingMSA/MA_1486/IMG_11_1486.jpg","null","","","","","","2","","","","","",""
"street view slide show","image-button-response","84","526903","0.0-84.0","","656776a7904ae00d6b91d1dd","6568a5e1f02565f56978d629","15","","","","","","","","","","","","null","stimulus/SV_PolicingMSA/MA_1486/IMG_13_1486.jpg","null","","","","","","2","","","","","",""
"dot matrix survey1","survey","85","566581","0.0-85.0","","656776a7904ae00d6b91d1dd","6568a5e1f02565f56978d629","15","","","","","","","","","","","","39622","","{""P0_Q0"":null,""P0_Q1"":{""wealthy"":1,""safe"":0,""walkable"":0,""traditional"":2,""diverse"":2}}","","","","","","2","[]","","","","",""
"dot matrix survey2","survey","86","575580","0.0-86.0","","656776a7904ae00d6b91d1dd","6568a5e1f02565f56978d629","15","","","","","","","","","","","","8980","","{""P0_Q0"":null,""P0_Q1"":{""violence"":3,""crime"":3,""drug"":3,""schools"":0,""opportunities"":1}}","","","","","","2","[]","","","","",""
"dot matrix survey3","survey","87","586143","0.0-87.0","","656776a7904ae00d6b91d1dd","6568a5e1f02565f56978d629","15","","","","","","","","","","","","10548","","{""P0_Q0"":null,""P0_Q1"":{""movein"":0,""moveout"":4,""shopping"":0,""walk"":0,""park"":0,""school"":0}}","","","","","","2","[]","","","","",""
"sliderTrial","html-slider-response","88","590855","0.0-88.0","","656776a7904ae00d6b91d1dd","6568a5e1f02565f56978d629","15","","","","","","","","","","","","4708","[""SV_PolicingMSA/MA_1486/IMG_8_1486.jpg"",""SV_PolicingMSA/MA_1486/IMG_9_1486.jpg"",""SV_PolicingMSA/MA_1486/IMG_5_1486.jpg"",""SV_PolicingMSA/MA_1486/IMG_4_1486.jpg"",""SV_PolicingMSA/MA_1486/IMG_0_1486.jpg"",""SV_PolicingMSA/MA_1486/IMG_12_1486.jpg"",""SV_PolicingMSA/MA_1486/IMG_11_1486.jpg"",""SV_PolicingMSA/MA_1486/IMG_13_1486.jpg""]","1","","","","","","2","","4","[""./rc_img/cop_condGroup_3_SafeStreets_autoscaled.png"",""./rc_img/cop_condGroup_3_CommunitySafety_autoscaled.png""]","7","",""
"sliderTrial","html-slider-response","89","593449","0.0-89.0","","656776a7904ae00d6b91d1dd","6568a5e1f02565f56978d629","15","","","","","","","","","","","","2588","[""SV_PolicingMSA/MA_1486/IMG_8_1486.jpg"",""SV_PolicingMSA/MA_1486/IMG_9_1486.jpg"",""SV_PolicingMSA/MA_1486/IMG_5_1486.jpg"",""SV_PolicingMSA/MA_1486/IMG_4_1486.jpg"",""SV_PolicingMSA/MA_1486/IMG_0_1486.jpg"",""SV_PolicingMSA/MA_1486/IMG_12_1486.jpg"",""SV_PolicingMSA/MA_1486/IMG_11_1486.jpg"",""SV_PolicingMSA/MA_1486/IMG_13_1486.jpg""]","1","","","","","","2","","4","[""./rc_img/cop_condGroup_2_SafeStreets_autoscaled.png"",""./rc_img/cop_condGroup_2_CommunitySafety_autoscaled.png""]","7","",""
"sliderTrial","html-slider-response","90","596400","0.0-90.0","","656776a7904ae00d6b91d1dd","6568a5e1f02565f56978d629","15","","","","","","","","","","","","2947","[""SV_PolicingMSA/MA_1486/IMG_8_1486.jpg"",""SV_PolicingMSA/MA_1486/IMG_9_1486.jpg"",""SV_PolicingMSA/MA_1486/IMG_5_1486.jpg"",""SV_PolicingMSA/MA_1486/IMG_4_1486.jpg"",""SV_PolicingMSA/MA_1486/IMG_0_1486.jpg"",""SV_PolicingMSA/MA_1486/IMG_12_1486.jpg"",""SV_PolicingMSA/MA_1486/IMG_11_1486.jpg"",""SV_PolicingMSA/MA_1486/IMG_13_1486.jpg""]","7","","","","","","2","","4","[""./rc_img/cop_condGroup_1_CommunitySafety_autoscaled.png"",""./rc_img/cop_condGroup_1_SafeStreets_autoscaled.png""]","7","",""
"sliderTrial","html-slider-response","91","599440","0.0-91.0","","656776a7904ae00d6b91d1dd","6568a5e1f02565f56978d629","15","","","","","","","","","","","","3034","[""SV_PolicingMSA/MA_1486/IMG_8_1486.jpg"",""SV_PolicingMSA/MA_1486/IMG_9_1486.jpg"",""SV_PolicingMSA/MA_1486/IMG_5_1486.jpg"",""SV_PolicingMSA/MA_1486/IMG_4_1486.jpg"",""SV_PolicingMSA/MA_1486/IMG_0_1486.jpg"",""SV_PolicingMSA/MA_1486/IMG_12_1486.jpg"",""SV_PolicingMSA/MA_1486/IMG_11_1486.jpg"",""SV_PolicingMSA/MA_1486/IMG_13_1486.jpg""]","7","","","","","","2","","4","[""./rc_img/cop_condGroup_6_CommunitySafety_autoscaled.png"",""./rc_img/cop_condGroup_6_SafeStreets_autoscaled.png""]","7","",""
"sliderTrial","html-slider-response","92","602565","0.0-92.0","","656776a7904ae00d6b91d1dd","6568a5e1f02565f56978d629","15","","","","","","","","","","","","3117","[""SV_PolicingMSA/MA_1486/IMG_8_1486.jpg"",""SV_PolicingMSA/MA_1486/IMG_9_1486.jpg"",""SV_PolicingMSA/MA_1486/IMG_5_1486.jpg"",""SV_PolicingMSA/MA_1486/IMG_4_1486.jpg"",""SV_PolicingMSA/MA_1486/IMG_0_1486.jpg"",""SV_PolicingMSA/MA_1486/IMG_12_1486.jpg"",""SV_PolicingMSA/MA_1486/IMG_11_1486.jpg"",""SV_PolicingMSA/MA_1486/IMG_13_1486.jpg""]","4","","","","","","2","","4","[""./rc_img/cop_condGroup_4_CommunitySafety_autoscaled.png"",""./rc_img/cop_condGroup_4_SafeStreets_autoscaled.png""]","4","",""
"before_SVSlide_prompt","html-button-response","93","603732","0.0-93.0","","656776a7904ae00d6b91d1dd","6568a5e1f02565f56978d629","15","","","","","","","","","","","","1163","Click [Next] to see the next neighborhood!","0","","","","","","","","","","","",""
"street view slide show","image-button-response","94","604742","0.0-94.0","","656776a7904ae00d6b91d1dd","6568a5e1f02565f56978d629","15","","","","","","","","","","","","null","stimulus/SV_PolicingMSA/MA_185/IMG_13_185.jpg","null","","","","","","0","","","","","",""
"street view slide show","image-button-response","95","605758","0.0-95.0","","656776a7904ae00d6b91d1dd","6568a5e1f02565f56978d629","15","","","","","","","","","","","","null","stimulus/SV_PolicingMSA/MA_185/IMG_1_185.jpg","null","","","","","","0","","","","","",""
"street view slide show","image-button-response","96","606775","0.0-96.0","","656776a7904ae00d6b91d1dd","6568a5e1f02565f56978d629","15","","","","","","","","","","","","null","stimulus/SV_PolicingMSA/MA_185/IMG_8_185.jpg","null","","","","","","0","","","","","",""
"street view slide show","image-button-response","97","607791","0.0-97.0","","656776a7904ae00d6b91d1dd","6568a5e1f02565f56978d629","15","","","","","","","","","","","","null","stimulus/SV_PolicingMSA/MA_185/IMG_5_185.jpg","null","","","","","","0","","","","","",""
"street view slide show","image-button-response","98","608807","0.0-98.0","","656776a7904ae00d6b91d1dd","6568a5e1f02565f56978d629","15","","","","","","","","","","","","null","stimulus/SV_PolicingMSA/MA_185/IMG_6_185.jpg","null","","","","","","0","","","","","",""
"street view slide show","image-button-response","99","609825","0.0-99.0","","656776a7904ae00d6b91d1dd","6568a5e1f02565f56978d629","15","","","","","","","","","","","","null","stimulus/SV_PolicingMSA/MA_185/IMG_11_185.jpg","null","","","","","","0","","","","","",""
"street view slide show","image-button-response","100","610848","0.0-100.0","","656776a7904ae00d6b91d1dd","6568a5e1f02565f56978d629","15","","","","","","","","","","","","null","stimulus/SV_PolicingMSA/MA_185/IMG_2_185.jpg","null","","","","","","0","","","","","",""
"street view slide show","image-button-response","101","611865","0.0-101.0","","656776a7904ae00d6b91d1dd","6568a5e1f02565f56978d629","15","","","","","","","","","","","","null","stimulus/SV_PolicingMSA/MA_185/IMG_3_185.jpg","null","","","","","","0","","","","","",""
"dot matrix survey1","survey","102","665065","0.0-102.0","","656776a7904ae00d6b91d1dd","6568a5e1f02565f56978d629","15","","","","","","","","","","","","53148","","{""P0_Q0"":null,""P0_Q1"":{""wealthy"":2,""safe"":2,""walkable"":2,""traditional"":3,""diverse"":2}}","","","","","","0","[]","","","","",""
"dot matrix survey2","survey","103","675464","0.0-103.0","","656776a7904ae00d6b91d1dd","6568a5e1f02565f56978d629","15","","","","","","","","","","","","10375","","{""P0_Q0"":null,""P0_Q1"":{""violence"":1,""crime"":2,""drug"":2,""schools"":2,""opportunities"":2}}","","","","","","0","[]","","","","",""
"dot matrix survey3","survey","104","692918","0.0-104.0","","656776a7904ae00d6b91d1dd","6568a5e1f02565f56978d629","15","","","","","","","","","","","","17442","","{""P0_Q0"":null,""P0_Q1"":{""movein"":0,""moveout"":4,""shopping"":2,""walk"":2,""park"":2,""school"":0}}","","","","","","0","[]","","","","",""
"sliderTrial_attention","html-slider-response","105","702930","0.0-105.0","","656776a7904ae00d6b91d1dd","6568a5e1f02565f56978d629","15","","","","","","","","","","","","null","[""SV_PolicingMSA/MA_185/IMG_13_185.jpg"",""SV_PolicingMSA/MA_185/IMG_1_185.jpg"",""SV_PolicingMSA/MA_185/IMG_8_185.jpg"",""SV_PolicingMSA/MA_185/IMG_5_185.jpg"",""SV_PolicingMSA/MA_185/IMG_6_185.jpg"",""SV_PolicingMSA/MA_185/IMG_11_185.jpg"",""SV_PolicingMSA/MA_185/IMG_2_185.jpg"",""SV_PolicingMSA/MA_185/IMG_3_185.jpg""]","null","","","","","","0","","4","[""./assets/img/attnchk.png"",""./assets/img/attnchk.png""]","","true",""
"sliderTrial","html-slider-response","106","726661","0.0-106.0","","656776a7904ae00d6b91d1dd","6568a5e1f02565f56978d629","15","","","","","","","","","","","","23719","[""SV_PolicingMSA/MA_185/IMG_13_185.jpg"",""SV_PolicingMSA/MA_185/IMG_1_185.jpg"",""SV_PolicingMSA/MA_185/IMG_8_185.jpg"",""SV_PolicingMSA/MA_185/IMG_5_185.jpg"",""SV_PolicingMSA/MA_185/IMG_6_185.jpg"",""SV_PolicingMSA/MA_185/IMG_11_185.jpg"",""SV_PolicingMSA/MA_185/IMG_2_185.jpg"",""SV_PolicingMSA/MA_185/IMG_3_185.jpg""]","5","","","","","","0","","4","[""./rc_img/cop_condGroup_3_SafeStreets_autoscaled.png"",""./rc_img/cop_condGroup_3_CommunitySafety_autoscaled.png""]","3","",""
"sliderTrial","html-slider-response","107","764544","0.0-107.0","","656776a7904ae00d6b91d1dd","6568a5e1f02565f56978d629","15","","","","","","","","","","","","37877","[""SV_PolicingMSA/MA_185/IMG_13_185.jpg"",""SV_PolicingMSA/MA_185/IMG_1_185.jpg"",""SV_PolicingMSA/MA_185/IMG_8_185.jpg"",""SV_PolicingMSA/MA_185/IMG_5_185.jpg"",""SV_PolicingMSA/MA_185/IMG_6_185.jpg"",""SV_PolicingMSA/MA_185/IMG_11_185.jpg"",""SV_PolicingMSA/MA_185/IMG_2_185.jpg"",""SV_PolicingMSA/MA_185/IMG_3_185.jpg""]","3","","","","","","0","","4","[""./rc_img/cop_condGroup_2_SafeStreets_autoscaled.png"",""./rc_img/cop_condGroup_2_CommunitySafety_autoscaled.png""]","5","",""
"sliderTrial","html-slider-response","108","766960","0.0-108.0","","656776a7904ae00d6b91d1dd","6568a5e1f02565f56978d629","15","","","","","","","","","","","","2412","[""SV_PolicingMSA/MA_185/IMG_13_185.jpg"",""SV_PolicingMSA/MA_185/IMG_1_185.jpg"",""SV_PolicingMSA/MA_185/IMG_8_185.jpg"",""SV_PolicingMSA/MA_185/IMG_5_185.jpg"",""SV_PolicingMSA/MA_185/IMG_6_185.jpg"",""SV_PolicingMSA/MA_185/IMG_11_185.jpg"",""SV_PolicingMSA/MA_185/IMG_2_185.jpg"",""SV_PolicingMSA/MA_185/IMG_3_185.jpg""]","4","","","","","","0","","4","[""./rc_img/cop_condGroup_1_CommunitySafety_autoscaled.png"",""./rc_img/cop_condGroup_1_SafeStreets_autoscaled.png""]","4","",""
"sliderTrial","html-slider-response","109","770969","0.0-109.0","","656776a7904ae00d6b91d1dd","6568a5e1f02565f56978d629","15","","","","","","","","","","","","4005","[""SV_PolicingMSA/MA_185/IMG_13_185.jpg"",""SV_PolicingMSA/MA_185/IMG_1_185.jpg"",""SV_PolicingMSA/MA_185/IMG_8_185.jpg"",""SV_PolicingMSA/MA_185/IMG_5_185.jpg"",""SV_PolicingMSA/MA_185/IMG_6_185.jpg"",""SV_PolicingMSA/MA_185/IMG_11_185.jpg"",""SV_PolicingMSA/MA_185/IMG_2_185.jpg"",""SV_PolicingMSA/MA_185/IMG_3_185.jpg""]","5","","","","","","0","","4","[""./rc_img/cop_condGroup_6_CommunitySafety_autoscaled.png"",""./rc_img/cop_condGroup_6_SafeStreets_autoscaled.png""]","5","",""
"sliderTrial","html-slider-response","110","773616","0.0-110.0","","656776a7904ae00d6b91d1dd","6568a5e1f02565f56978d629","15","","","","","","","","","","","","2641","[""SV_PolicingMSA/MA_185/IMG_13_185.jpg"",""SV_PolicingMSA/MA_185/IMG_1_185.jpg"",""SV_PolicingMSA/MA_185/IMG_8_185.jpg"",""SV_PolicingMSA/MA_185/IMG_5_185.jpg"",""SV_PolicingMSA/MA_185/IMG_6_185.jpg"",""SV_PolicingMSA/MA_185/IMG_11_185.jpg"",""SV_PolicingMSA/MA_185/IMG_2_185.jpg"",""SV_PolicingMSA/MA_185/IMG_3_185.jpg""]","3","","","","","","0","","4","[""./rc_img/cop_condGroup_4_CommunitySafety_autoscaled.png"",""./rc_img/cop_condGroup_4_SafeStreets_autoscaled.png""]","3","",""
"before_SVSlide_prompt","html-button-response","111","774671","0.0-111.0","","656776a7904ae00d6b91d1dd","6568a5e1f02565f56978d629","15","","","","","","","","","","","","1050","Click [Next] to see the next neighborhood!","0","","","","","","","","","","","",""
"street view slide show","image-button-response","112","775691","0.0-112.0","","656776a7904ae00d6b91d1dd","6568a5e1f02565f56978d629","15","","","","","","","","","","","","null","stimulus/SV_PolicingMSA/MA_157/IMG_0_157.jpg","null","","","","","","3","","","","","",""
"street view slide show","image-button-response","113","776714","0.0-113.0","","656776a7904ae00d6b91d1dd","6568a5e1f02565f56978d629","15","","","","","","","","","","","","null","stimulus/SV_PolicingMSA/MA_157/IMG_3_157.jpg","null","","","","","","3","","","","","",""
"street view slide show","image-button-response","114","777727","0.0-114.0","","656776a7904ae00d6b91d1dd","6568a5e1f02565f56978d629","15","","","","","","","","","","","","null","stimulus/SV_PolicingMSA/MA_157/IMG_13_157.jpg","null","","","","","","3","","","","","",""
"street view slide show","image-button-response","115","778742","0.0-115.0","","656776a7904ae00d6b91d1dd","6568a5e1f02565f56978d629","15","","","","","","","","","","","","null","stimulus/SV_PolicingMSA/MA_157/IMG_4_157.jpg","null","","","","","","3","","","","","",""
"street view slide show","image-button-response","116","779762","0.0-116.0","","656776a7904ae00d6b91d1dd","6568a5e1f02565f56978d629","15","","","","","","","","","","","","null","stimulus/SV_PolicingMSA/MA_157/IMG_1_157.jpg","null","","","","","","3","","","","","",""
"street view slide show","image-button-response","117","780775","0.0-117.0","","656776a7904ae00d6b91d1dd","6568a5e1f02565f56978d629","15","","","","","","","","","","","","null","stimulus/SV_PolicingMSA/MA_157/IMG_2_157.jpg","null","","","","","","3","","","","","",""
"street view slide show","image-button-response","118","781796","0.0-118.0","","656776a7904ae00d6b91d1dd","6568a5e1f02565f56978d629","15","","","","","","","","","","","","null","stimulus/SV_PolicingMSA/MA_157/IMG_5_157.jpg","null","","","","","","3","","","","","",""
"street view slide show","image-button-response","119","782810","0.0-119.0","","656776a7904ae00d6b91d1dd","6568a5e1f02565f56978d629","15","","","","","","","","","","","","null","stimulus/SV_PolicingMSA/MA_157/IMG_7_157.jpg","null","","","","","","3","","","","","",""
"dot matrix survey1","survey","120","820455","0.0-120.0","","656776a7904ae00d6b91d1dd","6568a5e1f02565f56978d629","15","","","","","","","","","","","","37580","","{""P0_Q0"":null,""P0_Q1"":{""wealthy"":0,""safe"":1,""walkable"":1,""traditional"":3}}","","","","","","3","[]","","","","",""
"dot matrix survey2","survey","121","833965","0.0-121.0","","656776a7904ae00d6b91d1dd","6568a5e1f02565f56978d629","15","","","","","","","","","","","","13493","","{""P0_Q0"":null,""P0_Q1"":{""violence"":2,""crime"":2,""drug"":2,""schools"":1,""opportunities"":2}}","","","","","","3","[]","","","","",""
"dot matrix survey3","survey","122","867447","0.0-122.0","","656776a7904ae00d6b91d1dd","6568a5e1f02565f56978d629","15","","","","","","","","","","","","33467","","{""P0_Q0"":null,""P0_Q1"":{""movein"":0,""moveout"":4,""shopping"":2,""walk"":2,""park"":2,""school"":0}}","","","","","","3","[]","","","","",""
"sliderTrial","html-slider-response","123","877128","0.0-123.0","","656776a7904ae00d6b91d1dd","6568a5e1f02565f56978d629","15","","","","","","","","","","","","9678","[""SV_PolicingMSA/MA_157/IMG_0_157.jpg"",""SV_PolicingMSA/MA_157/IMG_3_157.jpg"",""SV_PolicingMSA/MA_157/IMG_13_157.jpg"",""SV_PolicingMSA/MA_157/IMG_4_157.jpg"",""SV_PolicingMSA/MA_157/IMG_1_157.jpg"",""SV_PolicingMSA/MA_157/IMG_2_157.jpg"",""SV_PolicingMSA/MA_157/IMG_5_157.jpg"",""SV_PolicingMSA/MA_157/IMG_7_157.jpg""]","6","","","","","","3","","4","[""./rc_img/cop_condGroup_7_CommunitySafety_autoscaled.png"",""./rc_img/cop_condGroup_7_SafeStreets_autoscaled.png""]","6","",""
"sliderTrial","html-slider-response","124","879949","0.0-124.0","","656776a7904ae00d6b91d1dd","6568a5e1f02565f56978d629","15","","","","","","","","","","","","2815","[""SV_PolicingMSA/MA_157/IMG_0_157.jpg"",""SV_PolicingMSA/MA_157/IMG_3_157.jpg"",""SV_PolicingMSA/MA_157/IMG_13_157.jpg"",""SV_PolicingMSA/MA_157/IMG_4_157.jpg"",""SV_PolicingMSA/MA_157/IMG_1_157.jpg"",""SV_PolicingMSA/MA_157/IMG_2_157.jpg"",""SV_PolicingMSA/MA_157/IMG_5_157.jpg"",""SV_PolicingMSA/MA_157/IMG_7_157.jpg""]","2","","","","","","3","","4","[""./rc_img/cop_condGroup_5_SafeStreets_autoscaled.png"",""./rc_img/cop_condGroup_5_CommunitySafety_autoscaled.png""]","6","",""
"sliderTrial","html-slider-response","125","882871","0.0-125.0","","656776a7904ae00d6b91d1dd","6568a5e1f02565f56978d629","15","","","","","","","","","","","","2919","[""SV_PolicingMSA/MA_157/IMG_0_157.jpg"",""SV_PolicingMSA/MA_157/IMG_3_157.jpg"",""SV_PolicingMSA/MA_157/IMG_13_157.jpg"",""SV_PolicingMSA/MA_157/IMG_4_157.jpg"",""SV_PolicingMSA/MA_157/IMG_1_157.jpg"",""SV_PolicingMSA/MA_157/IMG_2_157.jpg"",""SV_PolicingMSA/MA_157/IMG_5_157.jpg"",""SV_PolicingMSA/MA_157/IMG_7_157.jpg""]","5","","","","","","3","","4","[""./rc_img/cop_condGroup_11_SafeStreets_autoscaled.png"",""./rc_img/cop_condGroup_11_CommunitySafety_autoscaled.png""]","3","",""
"sliderTrial","html-slider-response","126","886732","0.0-126.0","","656776a7904ae00d6b91d1dd","6568a5e1f02565f56978d629","15","","","","","","","","","","","","3857","[""SV_PolicingMSA/MA_157/IMG_0_157.jpg"",""SV_PolicingMSA/MA_157/IMG_3_157.jpg"",""SV_PolicingMSA/MA_157/IMG_13_157.jpg"",""SV_PolicingMSA/MA_157/IMG_4_157.jpg"",""SV_PolicingMSA/MA_157/IMG_1_157.jpg"",""SV_PolicingMSA/MA_157/IMG_2_157.jpg"",""SV_PolicingMSA/MA_157/IMG_5_157.jpg"",""SV_PolicingMSA/MA_157/IMG_7_157.jpg""]","5","","","","","","3","","4","[""./rc_img/cop_condGroup_12_SafeStreets_autoscaled.png"",""./rc_img/cop_condGroup_12_CommunitySafety_autoscaled.png""]","3","",""
"sliderTrial","html-slider-response","127","889757","0.0-127.0","","656776a7904ae00d6b91d1dd","6568a5e1f02565f56978d629","15","","","","","","","","","","","","3023","[""SV_PolicingMSA/MA_157/IMG_0_157.jpg"",""SV_PolicingMSA/MA_157/IMG_3_157.jpg"",""SV_PolicingMSA/MA_157/IMG_13_157.jpg"",""SV_PolicingMSA/MA_157/IMG_4_157.jpg"",""SV_PolicingMSA/MA_157/IMG_1_157.jpg"",""SV_PolicingMSA/MA_157/IMG_2_157.jpg"",""SV_PolicingMSA/MA_157/IMG_5_157.jpg"",""SV_PolicingMSA/MA_157/IMG_7_157.jpg""]","5","","","","","","3","","4","[""./rc_img/cop_condGroup_9_SafeStreets_autoscaled.png"",""./rc_img/cop_condGroup_9_CommunitySafety_autoscaled.png""]","3","",""
"before_SVSlide_prompt","html-button-response","128","890749","0.0-128.0","","656776a7904ae00d6b91d1dd","6568a5e1f02565f56978d629","15","","","","","","","","","","","","991","Click [Next] to see the next neighborhood!","0","","","","","","","","","","","",""
"street view slide show","image-button-response","129","891760","0.0-129.0","","656776a7904ae00d6b91d1dd","6568a5e1f02565f56978d629","15","","","","","","","","","","","","null","stimulus/SV_PolicingMSA/MA_659/IMG_12_659.jpg","null","","","","","","5","","","","","",""
"street view slide show","image-button-response","130","892783","0.0-130.0","","656776a7904ae00d6b91d1dd","6568a5e1f02565f56978d629","15","","","","","","","","","","","","null","stimulus/SV_PolicingMSA/MA_659/IMG_4_659.jpg","null","","","","","","5","","","","","",""
"street view slide show","image-button-response","131","893799","0.0-131.0","","656776a7904ae00d6b91d1dd","6568a5e1f02565f56978d629","15","","","","","","","","","","","","null","stimulus/SV_PolicingMSA/MA_659/IMG_11_659.jpg","null","","","","","","5","","","","","",""
"street view slide show","image-button-response","132","894815","0.0-132.0","","656776a7904ae00d6b91d1dd","6568a5e1f02565f56978d629","15","","","","","","","","","","","","null","stimulus/SV_PolicingMSA/MA_659/IMG_3_659.jpg","null","","","","","","5","","","","","",""
"street view slide show","image-button-response","133","895832","0.0-133.0","","656776a7904ae00d6b91d1dd","6568a5e1f02565f56978d629","15","","","","","","","","","","","","null","stimulus/SV_PolicingMSA/MA_659/IMG_14_659.jpg","null","","","","","","5","","","","","",""
"street view slide show","image-button-response","134","896847","0.0-134.0","","656776a7904ae00d6b91d1dd","6568a5e1f02565f56978d629","15","","","","","","","","","","","","null","stimulus/SV_PolicingMSA/MA_659/IMG_0_659.jpg","null","","","","","","5","","","","","",""
"street view slide show","image-button-response","135","897866","0.0-135.0","","656776a7904ae00d6b91d1dd","6568a5e1f02565f56978d629","15","","","","","","","","","","","","null","stimulus/SV_PolicingMSA/MA_659/IMG_1_659.jpg","null","","","","","","5","","","","","",""
"street view slide show","image-button-response","136","898883","0.0-136.0","","656776a7904ae00d6b91d1dd","6568a5e1f02565f56978d629","15","","","","","","","","","","","","null","stimulus/SV_PolicingMSA/MA_659/IMG_13_659.jpg","null","","","","","","5","","","","","",""
"dot matrix survey1","survey","137","922316","0.0-137.0","","656776a7904ae00d6b91d1dd","6568a5e1f02565f56978d629","15","","","","","","","","","","","","23407","","{""P0_Q0"":null,""P0_Q1"":{""wealthy"":2,""safe"":3,""walkable"":0,""traditional"":4,""diverse"":1}}","","","","","","5","[]","","","","",""
"dot matrix survey2","survey","138","932618","0.0-138.0","","656776a7904ae00d6b91d1dd","6568a5e1f02565f56978d629","15","","","","","","","","","","","","10288","","{""P0_Q0"":null,""P0_Q1"":{""violence"":2,""crime"":2,""drug"":2,""schools"":2,""opportunities"":2}}","","","","","","5","[]","","","","",""
"dot matrix survey3","survey","139","950785","0.0-139.0","","656776a7904ae00d6b91d1dd","6568a5e1f02565f56978d629","15","","","","","","","","","","","","18158","","{""P0_Q0"":null,""P0_Q1"":{""movein"":0,""moveout"":4,""shopping"":3,""walk"":3,""park"":3,""school"":2}}","","","","","","5","[]","","","","",""
"sliderTrial","html-slider-response","140","954429","0.0-140.0","","656776a7904ae00d6b91d1dd","6568a5e1f02565f56978d629","15","","","","","","","","","","","","3640","[""SV_PolicingMSA/MA_659/IMG_12_659.jpg"",""SV_PolicingMSA/MA_659/IMG_4_659.jpg"",""SV_PolicingMSA/MA_659/IMG_11_659.jpg"",""SV_PolicingMSA/MA_659/IMG_3_659.jpg"",""SV_PolicingMSA/MA_659/IMG_14_659.jpg"",""SV_PolicingMSA/MA_659/IMG_0_659.jpg"",""SV_PolicingMSA/MA_659/IMG_1_659.jpg"",""SV_PolicingMSA/MA_659/IMG_13_659.jpg""]","5","","","","","","5","","4","[""./rc_img/cop_condGroup_18_CommunitySafety_autoscaled.png"",""./rc_img/cop_condGroup_18_SafeStreets_autoscaled.png""]","5","",""
"sliderTrial","html-slider-response","141","957101","0.0-141.0","","656776a7904ae00d6b91d1dd","6568a5e1f02565f56978d629","15","","","","","","","","","","","","2668","[""SV_PolicingMSA/MA_659/IMG_12_659.jpg"",""SV_PolicingMSA/MA_659/IMG_4_659.jpg"",""SV_PolicingMSA/MA_659/IMG_11_659.jpg"",""SV_PolicingMSA/MA_659/IMG_3_659.jpg"",""SV_PolicingMSA/MA_659/IMG_14_659.jpg"",""SV_PolicingMSA/MA_659/IMG_0_659.jpg"",""SV_PolicingMSA/MA_659/IMG_1_659.jpg"",""SV_PolicingMSA/MA_659/IMG_13_659.jpg""]","5","","","","","","5","","4","[""./rc_img/cop_condGroup_17_SafeStreets_autoscaled.png"",""./rc_img/cop_condGroup_17_CommunitySafety_autoscaled.png""]","3","",""
"sliderTrial","html-slider-response","142","959823","0.0-142.0","","656776a7904ae00d6b91d1dd","6568a5e1f02565f56978d629","15","","","","","","","","","","","","2717","[""SV_PolicingMSA/MA_659/IMG_12_659.jpg"",""SV_PolicingMSA/MA_659/IMG_4_659.jpg"",""SV_PolicingMSA/MA_659/IMG_11_659.jpg"",""SV_PolicingMSA/MA_659/IMG_3_659.jpg"",""SV_PolicingMSA/MA_659/IMG_14_659.jpg"",""SV_PolicingMSA/MA_659/IMG_0_659.jpg"",""SV_PolicingMSA/MA_659/IMG_1_659.jpg"",""SV_PolicingMSA/MA_659/IMG_13_659.jpg""]","6","","","","","","5","","4","[""./rc_img/cop_condGroup_19_CommunitySafety_autoscaled.png"",""./rc_img/cop_condGroup_19_SafeStreets_autoscaled.png""]","6","",""
"sliderTrial","html-slider-response","143","961846","0.0-143.0","","656776a7904ae00d6b91d1dd","6568a5e1f02565f56978d629","15","","","","","","","","","","","","2019","[""SV_PolicingMSA/MA_659/IMG_12_659.jpg"",""SV_PolicingMSA/MA_659/IMG_4_659.jpg"",""SV_PolicingMSA/MA_659/IMG_11_659.jpg"",""SV_PolicingMSA/MA_659/IMG_3_659.jpg"",""SV_PolicingMSA/MA_659/IMG_14_659.jpg"",""SV_PolicingMSA/MA_659/IMG_0_659.jpg"",""SV_PolicingMSA/MA_659/IMG_1_659.jpg"",""SV_PolicingMSA/MA_659/IMG_13_659.jpg""]","2","","","","","","5","","4","[""./rc_img/cop_condGroup_16_SafeStreets_autoscaled.png"",""./rc_img/cop_condGroup_16_CommunitySafety_autoscaled.png""]","6","",""
"sliderTrial","html-slider-response","144","964413","0.0-144.0","","656776a7904ae00d6b91d1dd","6568a5e1f02565f56978d629","15","","","","","","","","","","","","2565","[""SV_PolicingMSA/MA_659/IMG_12_659.jpg"",""SV_PolicingMSA/MA_659/IMG_4_659.jpg"",""SV_PolicingMSA/MA_659/IMG_11_659.jpg"",""SV_PolicingMSA/MA_659/IMG_3_659.jpg"",""SV_PolicingMSA/MA_659/IMG_14_659.jpg"",""SV_PolicingMSA/MA_659/IMG_0_659.jpg"",""SV_PolicingMSA/MA_659/IMG_1_659.jpg"",""SV_PolicingMSA/MA_659/IMG_13_659.jpg""]","4","","","","","","5","","4","[""./rc_img/cop_condGroup_20_CommunitySafety_autoscaled.png"",""./rc_img/cop_condGroup_20_SafeStreets_autoscaled.png""]","4","",""
"demographics","survey-html-form","145","978090","0.0-145.0","","656776a7904ae00d6b91d1dd","6568a5e1f02565f56978d629","15","","","","","","","","","","","","13670","","{""age"":""21"",""sex"":""female"",""gender"":""woman"",""gender-self-describe"":"""",""zipcode"":""63050""}","","","","","","","","","","","",""
"demographics-list","survey","146","1000576","0.0-146.0","","656776a7904ae00d6b91d1dd","6568a5e1f02565f56978d629","15","","","","","","","","","","","","22446","","{""P0_Q0"":null,""race-ethnicity"":[""White or of European ancestry""],""education"":""High school diploma or equivalent"",""P1_Q0"":null,""ideology"":""Moderate"",""P2_Q0"":null,""num-moves"":0,""P3_Q0"":null,""social-ladder"":null}","","","","","","","[]","","","","",""
"end-survey","survey-text","147","1003008","0.0-147.0","","656776a7904ae00d6b91d1dd","6568a5e1f02565f56978d629","15","","","","","","","","","","","","2422","","{""Q0"":""""}","","","","","","","","","","","","2"
"end-survey","html-button-response","148","1008327","0.0-148.0","","656776a7904ae00d6b91d1dd","6568a5e1f02565f56978d629","15","","","","","","","","","","","","5315","
    You've reached the end of the survey. <br><br> 
    <b>Do not close or refresh this window.</b><br>
    On the next page, you will be automatically redirected to Prolific. <br><br>

    <div class=""alert alert-warning""><b>
    </div>
","0","","","","","","","","","","","",""
