"task","trial_type","trial_index","time_elapsed","internal_node_id","subject_id","study_id","session_id","section","width","height","webaudio","browser","browser_version","mobile","os","fullscreen","vsync_rate","webcam","microphone","rt","stimulus","response","success","timeout","failed_images","failed_audio","failed_video","block","accuracy","slider_start","choices","standardized_response","correct","num_attention_checks_correct"
"pavlovia-init","pavlovia","0","946","0.0-0.0","","656776a7904ae00d6b91d1dd","6568aa21965e65deb9e70d5c","13","","","","","","","","","","","","","","","","","","","","","","","","","",""
"browser-check","browser-check","1","1747","0.0-1.0","","656776a7904ae00d6b91d1dd","6568aa21965e65deb9e70d5c","13","1774","857","true","chrome","119.0.0","false","Windows 10","true","75.11","false","true","","","","","","","","","","","","","","",""
"consent","html-button-response","2","5231","0.0-2.0","","656776a7904ae00d6b91d1dd","6568aa21965e65deb9e70d5c","13","","","","","","","","","","","","3483","
        <div style=""font-size: 80%; max-width:700px"">
            <h2>CONSENT FORM</h2>
        
            <div style=""text-align: left"">
            <h4>DESCRIPTION</h4>
            <p>
            You will complete a short task where you give your impressions of various neighborhoods and assign individuals to those spaces, and answer some questions about your thoughts and opinions.<br>
            The University of Michigan Institutional Review Board Health Sciences and Behavioral Sciences has determined that this study is exempt from IRB oversight.
            </p>

            <h4>TIME INVOLVEMENT</h4>
            <p>Your participation will take approximately 15 minutes. You will receive $3.15 upon completion of the study.</p>
        
            <h4>RISKS AND BENEFITS</h4>
            <p>
            The risks associated with this study are minimal. The benefits which may reasonably be expected to result from this study are none. We cannot and do not guarantee or promise that you will receive any benefits from this study.
            </p>
          
            <h4>SUBJECT'S RIGHTS</h4>
            <p>
            If you have read this form and have decided to participate in this project, please understand your participation is voluntary and you have the right to withdraw your consent or discontinue participation at any time without penalty or loss of benefits to which you are otherwise entitled. The alternative is not to participate. You have the right to refuse to answer particular questions. Your individual privacy will be maintained in all published and written data resulting from the study.
            </p>

            <h4>HUMAN SUBJECT APPROVAL</h4>
            <p>
            This study is exempt from ongoing IRB review.
            </p>

            <h4>CONTACT INFORMATION</h4>
            If you have any questions, concerns or complaints about this research, its procedures, risks and benefits, contact the Protocol Director, Nicholas Camp, npcamp@umich.edu, (443) 851-6783. <br>

            If you have questions about your rights as a research participant, or wish to obtain information, ask questions or discuss any concerns about this study with someone other than the researcher(s), please contact the following:<br><br>
            University of Michigan<br>
            Health Sciences and Behavioral Sciences Institutional Review Board (IRB-HSBS)<br>
            2800 Plymouth Road<br>
            Building 520, Room 1169Ann Arbor, MI 48109-2800<br>
            Telephone: 734-936-0933 or toll free (866) 936-0933<br>
            Fax: 734-936-1852<br>
            E-mail: irbhsbs@umich.edu<br><br>

            You can also contact the University of Michigan Compliance Hotline at 1-866-990-0111. You may also print this consent form to keep.
            <br><br>
            <div class=""alert alert-warning""><b>
            Do you consent to participate in this study? If you consent to participate in this study, please click “Accept and Continue”. If you select ""Decline and Exit"", you will be exited from the survey. <br>
            </b></div>
            </div>
        </div>
    ","1","","","","","","","","","","","",""
"","preload","3","8380","0.0-3.0","","656776a7904ae00d6b91d1dd","6568aa21965e65deb9e70d5c","13","","","","","","","","","","","","","","","true","false","[]","[]","[]","","","","","","",""
"instructions","html-button-response","4","26481","0.0-4.0","","656776a7904ae00d6b91d1dd","6568aa21965e65deb9e70d5c","13","","","","","","","","","","","","18100","
        <div class=""text-container"">
        <h1>Welcome to the study!</h1>
        
        <div class=""text-left"">
            <p>
                In this study, we are interested in what people can tell about spaces from Google Street View images. <br> Google Street View takes pictures of streets used for Google Earth and Google Maps. <br>You’ll see Google Street View images of different places and answer some questions about each one.<br>
            </p>
        </div>
        <img src = ""assets/img/example.png"" width = 500px, height = auto>
        <br>
    <br>
    ","0","","","","","","","","","","","",""
"instructions","html-button-response","5","29633","0.0-5.0","","656776a7904ae00d6b91d1dd","6568aa21965e65deb9e70d5c","13","","","","","","","","","","","","3152","
    <div class=""text-container"">
        <div class=""text-center"">
            <p>Please remember that your answers are completely anonymous.<br>Go with your gut response- there are no right or wrong answers!</p>
        </div>
    <br>
","0","","","","","","","","","","","",""
"before_SVSlide_prompt","html-button-response","6","30924","0.0-6.0","","656776a7904ae00d6b91d1dd","6568aa21965e65deb9e70d5c","13","","","","","","","","","","","","1291","Click [Next] to see the next neighborhood!","0","","","","","","","","","","","",""
"street view slide show","image-button-response","7","31931","0.0-7.0","","656776a7904ae00d6b91d1dd","6568aa21965e65deb9e70d5c","13","","","","","","","","","","","","null","stimulus/SV_PolicingMSA/CA_6489/IMG_1_6489.jpg","null","","","","","","2","","","","","",""
"street view slide show","image-button-response","8","32941","0.0-8.0","","656776a7904ae00d6b91d1dd","6568aa21965e65deb9e70d5c","13","","","","","","","","","","","","null","stimulus/SV_PolicingMSA/CA_6489/IMG_6_6489.jpg","null","","","","","","2","","","","","",""
"street view slide show","image-button-response","9","33952","0.0-9.0","","656776a7904ae00d6b91d1dd","6568aa21965e65deb9e70d5c","13","","","","","","","","","","","","null","stimulus/SV_PolicingMSA/CA_6489/IMG_7_6489.jpg","null","","","","","","2","","","","","",""
"street view slide show","image-button-response","10","34958","0.0-10.0","","656776a7904ae00d6b91d1dd","6568aa21965e65deb9e70d5c","13","","","","","","","","","","","","null","stimulus/SV_PolicingMSA/CA_6489/IMG_4_6489.jpg","null","","","","","","2","","","","","",""
"street view slide show","image-button-response","11","35969","0.0-11.0","","656776a7904ae00d6b91d1dd","6568aa21965e65deb9e70d5c","13","","","","","","","","","","","","null","stimulus/SV_PolicingMSA/CA_6489/IMG_12_6489.jpg","null","","","","","","2","","","","","",""
"street view slide show","image-button-response","12","36981","0.0-12.0","","656776a7904ae00d6b91d1dd","6568aa21965e65deb9e70d5c","13","","","","","","","","","","","","null","stimulus/SV_PolicingMSA/CA_6489/IMG_8_6489.jpg","null","","","","","","2","","","","","",""
"street view slide show","image-button-response","13","37992","0.0-13.0","","656776a7904ae00d6b91d1dd","6568aa21965e65deb9e70d5c","13","","","","","","","","","","","","null","stimulus/SV_PolicingMSA/CA_6489/IMG_0_6489.jpg","null","","","","","","2","","","","","",""
"street view slide show","image-button-response","14","39001","0.0-14.0","","656776a7904ae00d6b91d1dd","6568aa21965e65deb9e70d5c","13","","","","","","","","","","","","null","stimulus/SV_PolicingMSA/CA_6489/IMG_9_6489.jpg","null","","","","","","2","","","","","",""
"dot matrix survey1","survey","15","70942","0.0-15.0","","656776a7904ae00d6b91d1dd","6568aa21965e65deb9e70d5c","13","","","","","","","","","","","","31912","","{""P0_Q0"":null,""P0_Q1"":{""wealthy"":3,""safe"":4,""walkable"":4,""traditional"":2,""diverse"":2}}","","","","","","2","[]","","","","",""
"dot matrix survey2","survey","16","84470","0.0-16.0","","656776a7904ae00d6b91d1dd","6568aa21965e65deb9e70d5c","13","","","","","","","","","","","","13521","","{""P0_Q0"":null,""P0_Q1"":{""violence"":1,""crime"":1,""drug"":1,""schools"":3,""opportunities"":3}}","","","","","","2","[]","","","","",""
"dot matrix survey3","survey","17","106042","0.0-17.0","","656776a7904ae00d6b91d1dd","6568aa21965e65deb9e70d5c","13","","","","","","","","","","","","21568","","{""P0_Q0"":null,""P0_Q1"":{""movein"":3,""moveout"":1,""shopping"":3,""walk"":3,""park"":3,""school"":3}}","","","","","","2","[]","","","","",""
"sliderTrial","html-slider-response","18","122892","0.0-18.0","","656776a7904ae00d6b91d1dd","6568aa21965e65deb9e70d5c","13","","","","","","","","","","","","16849","[""SV_PolicingMSA/CA_6489/IMG_1_6489.jpg"",""SV_PolicingMSA/CA_6489/IMG_6_6489.jpg"",""SV_PolicingMSA/CA_6489/IMG_7_6489.jpg"",""SV_PolicingMSA/CA_6489/IMG_4_6489.jpg"",""SV_PolicingMSA/CA_6489/IMG_12_6489.jpg"",""SV_PolicingMSA/CA_6489/IMG_8_6489.jpg"",""SV_PolicingMSA/CA_6489/IMG_0_6489.jpg"",""SV_PolicingMSA/CA_6489/IMG_9_6489.jpg""]","4","","","","","","2","","4","[""./rc_img/cop_condGroup_17_SafeStreets_autoscaled.png"",""./rc_img/cop_condGroup_17_CommunitySafety_autoscaled.png""]","4","",""
"sliderTrial","html-slider-response","19","129305","0.0-19.0","","656776a7904ae00d6b91d1dd","6568aa21965e65deb9e70d5c","13","","","","","","","","","","","","6412","[""SV_PolicingMSA/CA_6489/IMG_1_6489.jpg"",""SV_PolicingMSA/CA_6489/IMG_6_6489.jpg"",""SV_PolicingMSA/CA_6489/IMG_7_6489.jpg"",""SV_PolicingMSA/CA_6489/IMG_4_6489.jpg"",""SV_PolicingMSA/CA_6489/IMG_12_6489.jpg"",""SV_PolicingMSA/CA_6489/IMG_8_6489.jpg"",""SV_PolicingMSA/CA_6489/IMG_0_6489.jpg"",""SV_PolicingMSA/CA_6489/IMG_9_6489.jpg""]","4","","","","","","2","","4","[""./rc_img/cop_condGroup_9_SafeStreets_autoscaled.png"",""./rc_img/cop_condGroup_9_CommunitySafety_autoscaled.png""]","4","",""
"sliderTrial","html-slider-response","20","130511","0.0-20.0","","656776a7904ae00d6b91d1dd","6568aa21965e65deb9e70d5c","13","","","","","","","","","","","","1204","[""SV_PolicingMSA/CA_6489/IMG_1_6489.jpg"",""SV_PolicingMSA/CA_6489/IMG_6_6489.jpg"",""SV_PolicingMSA/CA_6489/IMG_7_6489.jpg"",""SV_PolicingMSA/CA_6489/IMG_4_6489.jpg"",""SV_PolicingMSA/CA_6489/IMG_12_6489.jpg"",""SV_PolicingMSA/CA_6489/IMG_8_6489.jpg"",""SV_PolicingMSA/CA_6489/IMG_0_6489.jpg"",""SV_PolicingMSA/CA_6489/IMG_9_6489.jpg""]","4","","","","","","2","","4","[""./rc_img/cop_condGroup_12_CommunitySafety_autoscaled.png"",""./rc_img/cop_condGroup_12_SafeStreets_autoscaled.png""]","4","",""
"sliderTrial","html-slider-response","21","135019","0.0-21.0","","656776a7904ae00d6b91d1dd","6568aa21965e65deb9e70d5c","13","","","","","","","","","","","","4507","[""SV_PolicingMSA/CA_6489/IMG_1_6489.jpg"",""SV_PolicingMSA/CA_6489/IMG_6_6489.jpg"",""SV_PolicingMSA/CA_6489/IMG_7_6489.jpg"",""SV_PolicingMSA/CA_6489/IMG_4_6489.jpg"",""SV_PolicingMSA/CA_6489/IMG_12_6489.jpg"",""SV_PolicingMSA/CA_6489/IMG_8_6489.jpg"",""SV_PolicingMSA/CA_6489/IMG_0_6489.jpg"",""SV_PolicingMSA/CA_6489/IMG_9_6489.jpg""]","4","","","","","","2","","4","[""./rc_img/cop_condGroup_16_SafeStreets_autoscaled.png"",""./rc_img/cop_condGroup_16_CommunitySafety_autoscaled.png""]","4","",""
"sliderTrial","html-slider-response","22","136451","0.0-22.0","","656776a7904ae00d6b91d1dd","6568aa21965e65deb9e70d5c","13","","","","","","","","","","","","1431","[""SV_PolicingMSA/CA_6489/IMG_1_6489.jpg"",""SV_PolicingMSA/CA_6489/IMG_6_6489.jpg"",""SV_PolicingMSA/CA_6489/IMG_7_6489.jpg"",""SV_PolicingMSA/CA_6489/IMG_4_6489.jpg"",""SV_PolicingMSA/CA_6489/IMG_12_6489.jpg"",""SV_PolicingMSA/CA_6489/IMG_8_6489.jpg"",""SV_PolicingMSA/CA_6489/IMG_0_6489.jpg"",""SV_PolicingMSA/CA_6489/IMG_9_6489.jpg""]","4","","","","","","2","","4","[""./rc_img/cop_condGroup_6_SafeStreets_autoscaled.png"",""./rc_img/cop_condGroup_6_CommunitySafety_autoscaled.png""]","4","",""
"before_SVSlide_prompt","html-button-response","23","138118","0.0-23.0","","656776a7904ae00d6b91d1dd","6568aa21965e65deb9e70d5c","13","","","","","","","","","","","","1667","Click [Next] to see the next neighborhood!","0","","","","","","","","","","","",""
"street view slide show","image-button-response","24","139126","0.0-24.0","","656776a7904ae00d6b91d1dd","6568aa21965e65deb9e70d5c","13","","","","","","","","","","","","null","stimulus/SV_PolicingMSA/CA_5812/IMG_7_5812.jpg","null","","","","","","3","","","","","",""
"street view slide show","image-button-response","25","140135","0.0-25.0","","656776a7904ae00d6b91d1dd","6568aa21965e65deb9e70d5c","13","","","","","","","","","","","","null","stimulus/SV_PolicingMSA/CA_5812/IMG_2_5812.jpg","null","","","","","","3","","","","","",""
"street view slide show","image-button-response","26","141147","0.0-26.0","","656776a7904ae00d6b91d1dd","6568aa21965e65deb9e70d5c","13","","","","","","","","","","","","null","stimulus/SV_PolicingMSA/CA_5812/IMG_1_5812.jpg","null","","","","","","3","","","","","",""
"street view slide show","image-button-response","27","142154","0.0-27.0","","656776a7904ae00d6b91d1dd","6568aa21965e65deb9e70d5c","13","","","","","","","","","","","","null","stimulus/SV_PolicingMSA/CA_5812/IMG_4_5812.jpg","null","","","","","","3","","","","","",""
"street view slide show","image-button-response","28","143159","0.0-28.0","","656776a7904ae00d6b91d1dd","6568aa21965e65deb9e70d5c","13","","","","","","","","","","","","null","stimulus/SV_PolicingMSA/CA_5812/IMG_5_5812.jpg","null","","","","","","3","","","","","",""
"street view slide show","image-button-response","29","144166","0.0-29.0","","656776a7904ae00d6b91d1dd","6568aa21965e65deb9e70d5c","13","","","","","","","","","","","","null","stimulus/SV_PolicingMSA/CA_5812/IMG_9_5812.jpg","null","","","","","","3","","","","","",""
"street view slide show","image-button-response","30","145177","0.0-30.0","","656776a7904ae00d6b91d1dd","6568aa21965e65deb9e70d5c","13","","","","","","","","","","","","null","stimulus/SV_PolicingMSA/CA_5812/IMG_14_5812.jpg","null","","","","","","3","","","","","",""
"street view slide show","image-button-response","31","146183","0.0-31.0","","656776a7904ae00d6b91d1dd","6568aa21965e65deb9e70d5c","13","","","","","","","","","","","","null","stimulus/SV_PolicingMSA/CA_5812/IMG_11_5812.jpg","null","","","","","","3","","","","","",""
"dot matrix survey1","survey","32","157905","0.0-32.0","","656776a7904ae00d6b91d1dd","6568aa21965e65deb9e70d5c","13","","","","","","","","","","","","11711","","{""P0_Q0"":null,""P0_Q1"":{""wealthy"":1,""safe"":2,""walkable"":2,""traditional"":2,""diverse"":2}}","","","","","","3","[]","","","","",""
"dot matrix survey2","survey","33","164482","0.0-33.0","","656776a7904ae00d6b91d1dd","6568aa21965e65deb9e70d5c","13","","","","","","","","","","","","6573","","{""P0_Q0"":null,""P0_Q1"":{""violence"":2,""crime"":2,""drug"":2,""schools"":2,""opportunities"":2}}","","","","","","3","[]","","","","",""
"dot matrix survey3","survey","34","177837","0.0-34.0","","656776a7904ae00d6b91d1dd","6568aa21965e65deb9e70d5c","13","","","","","","","","","","","","13352","","{""P0_Q0"":null,""P0_Q1"":{""movein"":2,""moveout"":2,""shopping"":2,""walk"":2,""park"":2,""school"":2}}","","","","","","3","[]","","","","",""
"sliderTrial","html-slider-response","35","181224","0.0-35.0","","656776a7904ae00d6b91d1dd","6568aa21965e65deb9e70d5c","13","","","","","","","","","","","","3386","[""SV_PolicingMSA/CA_5812/IMG_7_5812.jpg"",""SV_PolicingMSA/CA_5812/IMG_2_5812.jpg"",""SV_PolicingMSA/CA_5812/IMG_1_5812.jpg"",""SV_PolicingMSA/CA_5812/IMG_4_5812.jpg"",""SV_PolicingMSA/CA_5812/IMG_5_5812.jpg"",""SV_PolicingMSA/CA_5812/IMG_9_5812.jpg"",""SV_PolicingMSA/CA_5812/IMG_14_5812.jpg"",""SV_PolicingMSA/CA_5812/IMG_11_5812.jpg""]","4","","","","","","3","","4","[""./rc_img/cop_condGroup_7_CommunitySafety_autoscaled.png"",""./rc_img/cop_condGroup_7_SafeStreets_autoscaled.png""]","4","",""
"sliderTrial","html-slider-response","36","183684","0.0-36.0","","656776a7904ae00d6b91d1dd","6568aa21965e65deb9e70d5c","13","","","","","","","","","","","","2459","[""SV_PolicingMSA/CA_5812/IMG_7_5812.jpg"",""SV_PolicingMSA/CA_5812/IMG_2_5812.jpg"",""SV_PolicingMSA/CA_5812/IMG_1_5812.jpg"",""SV_PolicingMSA/CA_5812/IMG_4_5812.jpg"",""SV_PolicingMSA/CA_5812/IMG_5_5812.jpg"",""SV_PolicingMSA/CA_5812/IMG_9_5812.jpg"",""SV_PolicingMSA/CA_5812/IMG_14_5812.jpg"",""SV_PolicingMSA/CA_5812/IMG_11_5812.jpg""]","4","","","","","","3","","4","[""./rc_img/cop_condGroup_11_SafeStreets_autoscaled.png"",""./rc_img/cop_condGroup_11_CommunitySafety_autoscaled.png""]","4","",""
"sliderTrial","html-slider-response","37","187157","0.0-37.0","","656776a7904ae00d6b91d1dd","6568aa21965e65deb9e70d5c","13","","","","","","","","","","","","3472","[""SV_PolicingMSA/CA_5812/IMG_7_5812.jpg"",""SV_PolicingMSA/CA_5812/IMG_2_5812.jpg"",""SV_PolicingMSA/CA_5812/IMG_1_5812.jpg"",""SV_PolicingMSA/CA_5812/IMG_4_5812.jpg"",""SV_PolicingMSA/CA_5812/IMG_5_5812.jpg"",""SV_PolicingMSA/CA_5812/IMG_9_5812.jpg"",""SV_PolicingMSA/CA_5812/IMG_14_5812.jpg"",""SV_PolicingMSA/CA_5812/IMG_11_5812.jpg""]","4","","","","","","3","","4","[""./rc_img/cop_condGroup_13_CommunitySafety_autoscaled.png"",""./rc_img/cop_condGroup_13_SafeStreets_autoscaled.png""]","4","",""
"sliderTrial","html-slider-response","38","187950","0.0-38.0","","656776a7904ae00d6b91d1dd","6568aa21965e65deb9e70d5c","13","","","","","","","","","","","","793","[""SV_PolicingMSA/CA_5812/IMG_7_5812.jpg"",""SV_PolicingMSA/CA_5812/IMG_2_5812.jpg"",""SV_PolicingMSA/CA_5812/IMG_1_5812.jpg"",""SV_PolicingMSA/CA_5812/IMG_4_5812.jpg"",""SV_PolicingMSA/CA_5812/IMG_5_5812.jpg"",""SV_PolicingMSA/CA_5812/IMG_9_5812.jpg"",""SV_PolicingMSA/CA_5812/IMG_14_5812.jpg"",""SV_PolicingMSA/CA_5812/IMG_11_5812.jpg""]","4","","","","","","3","","4","[""./rc_img/cop_condGroup_20_SafeStreets_autoscaled.png"",""./rc_img/cop_condGroup_20_CommunitySafety_autoscaled.png""]","4","",""
"sliderTrial","html-slider-response","39","188683","0.0-39.0","","656776a7904ae00d6b91d1dd","6568aa21965e65deb9e70d5c","13","","","","","","","","","","","","731","[""SV_PolicingMSA/CA_5812/IMG_7_5812.jpg"",""SV_PolicingMSA/CA_5812/IMG_2_5812.jpg"",""SV_PolicingMSA/CA_5812/IMG_1_5812.jpg"",""SV_PolicingMSA/CA_5812/IMG_4_5812.jpg"",""SV_PolicingMSA/CA_5812/IMG_5_5812.jpg"",""SV_PolicingMSA/CA_5812/IMG_9_5812.jpg"",""SV_PolicingMSA/CA_5812/IMG_14_5812.jpg"",""SV_PolicingMSA/CA_5812/IMG_11_5812.jpg""]","4","","","","","","3","","4","[""./rc_img/cop_condGroup_10_CommunitySafety_autoscaled.png"",""./rc_img/cop_condGroup_10_SafeStreets_autoscaled.png""]","4","",""
"before_SVSlide_prompt","html-button-response","40","189983","0.0-40.0","","656776a7904ae00d6b91d1dd","6568aa21965e65deb9e70d5c","13","","","","","","","","","","","","1300","Click [Next] to see the next neighborhood!","0","","","","","","","","","","","",""
"street view slide show","image-button-response","41","190998","0.0-41.0","","656776a7904ae00d6b91d1dd","6568aa21965e65deb9e70d5c","13","","","","","","","","","","","","null","stimulus/SV_PolicingMSA/CA_2994/IMG_7_2994.jpg","null","","","","","","1","","","","","",""
"street view slide show","image-button-response","42","192989","0.0-42.0","","656776a7904ae00d6b91d1dd","6568aa21965e65deb9e70d5c","13","","","","","","","","","","","","null","stimulus/SV_PolicingMSA/CA_2994/IMG_10_2994.jpg","null","","","","","","1","","","","","",""
"street view slide show","image-button-response","43","194989","0.0-43.0","","656776a7904ae00d6b91d1dd","6568aa21965e65deb9e70d5c","13","","","","","","","","","","","","null","stimulus/SV_PolicingMSA/CA_2994/IMG_1_2994.jpg","null","","","","","","1","","","","","",""
"street view slide show","image-button-response","44","196987","0.0-44.0","","656776a7904ae00d6b91d1dd","6568aa21965e65deb9e70d5c","13","","","","","","","","","","","","null","stimulus/SV_PolicingMSA/CA_2994/IMG_11_2994.jpg","null","","","","","","1","","","","","",""
"street view slide show","image-button-response","45","197989","0.0-45.0","","656776a7904ae00d6b91d1dd","6568aa21965e65deb9e70d5c","13","","","","","","","","","","","","null","stimulus/SV_PolicingMSA/CA_2994/IMG_0_2994.jpg","null","","","","","","1","","","","","",""
"street view slide show","image-button-response","46","198990","0.0-46.0","","656776a7904ae00d6b91d1dd","6568aa21965e65deb9e70d5c","13","","","","","","","","","","","","null","stimulus/SV_PolicingMSA/CA_2994/IMG_12_2994.jpg","null","","","","","","1","","","","","",""
"street view slide show","image-button-response","47","200001","0.0-47.0","","656776a7904ae00d6b91d1dd","6568aa21965e65deb9e70d5c","13","","","","","","","","","","","","null","stimulus/SV_PolicingMSA/CA_2994/IMG_9_2994.jpg","null","","","","","","1","","","","","",""
"street view slide show","image-button-response","48","201010","0.0-48.0","","656776a7904ae00d6b91d1dd","6568aa21965e65deb9e70d5c","13","","","","","","","","","","","","null","stimulus/SV_PolicingMSA/CA_2994/IMG_14_2994.jpg","null","","","","","","1","","","","","",""
"dot matrix survey1","survey","49","210152","0.0-49.0","","656776a7904ae00d6b91d1dd","6568aa21965e65deb9e70d5c","13","","","","","","","","","","","","9132","","{""P0_Q0"":null,""P0_Q1"":{""wealthy"":2,""safe"":2,""walkable"":2,""traditional"":2,""diverse"":2}}","","","","","","1","[]","","","","",""
"dot matrix survey2","survey","50","224514","0.0-50.0","","656776a7904ae00d6b91d1dd","6568aa21965e65deb9e70d5c","13","","","","","","","","","","","","14359","","{""P0_Q0"":null,""P0_Q1"":{""violence"":2,""crime"":2,""drug"":2,""schools"":2,""opportunities"":2}}","","","","","","1","[]","","","","",""
"dot matrix survey3","survey","51","236420","0.0-51.0","","656776a7904ae00d6b91d1dd","6568aa21965e65deb9e70d5c","13","","","","","","","","","","","","11903","","{""P0_Q0"":null,""P0_Q1"":{""movein"":2,""moveout"":1,""shopping"":2,""walk"":2,""park"":2,""school"":2}}","","","","","","1","[]","","","","",""
"sliderTrial","html-slider-response","52","240439","0.0-52.0","","656776a7904ae00d6b91d1dd","6568aa21965e65deb9e70d5c","13","","","","","","","","","","","","4017","[""SV_PolicingMSA/CA_2994/IMG_7_2994.jpg"",""SV_PolicingMSA/CA_2994/IMG_10_2994.jpg"",""SV_PolicingMSA/CA_2994/IMG_1_2994.jpg"",""SV_PolicingMSA/CA_2994/IMG_11_2994.jpg"",""SV_PolicingMSA/CA_2994/IMG_0_2994.jpg"",""SV_PolicingMSA/CA_2994/IMG_12_2994.jpg"",""SV_PolicingMSA/CA_2994/IMG_9_2994.jpg"",""SV_PolicingMSA/CA_2994/IMG_14_2994.jpg""]","4","","","","","","1","","4","[""./rc_img/cop_condGroup_5_SafeStreets_autoscaled.png"",""./rc_img/cop_condGroup_5_CommunitySafety_autoscaled.png""]","4","",""
"sliderTrial","html-slider-response","53","241445","0.0-53.0","","656776a7904ae00d6b91d1dd","6568aa21965e65deb9e70d5c","13","","","","","","","","","","","","1006","[""SV_PolicingMSA/CA_2994/IMG_7_2994.jpg"",""SV_PolicingMSA/CA_2994/IMG_10_2994.jpg"",""SV_PolicingMSA/CA_2994/IMG_1_2994.jpg"",""SV_PolicingMSA/CA_2994/IMG_11_2994.jpg"",""SV_PolicingMSA/CA_2994/IMG_0_2994.jpg"",""SV_PolicingMSA/CA_2994/IMG_12_2994.jpg"",""SV_PolicingMSA/CA_2994/IMG_9_2994.jpg"",""SV_PolicingMSA/CA_2994/IMG_14_2994.jpg""]","4","","","","","","1","","4","[""./rc_img/cop_condGroup_19_CommunitySafety_autoscaled.png"",""./rc_img/cop_condGroup_19_SafeStreets_autoscaled.png""]","4","",""
"sliderTrial","html-slider-response","54","241997","0.0-54.0","","656776a7904ae00d6b91d1dd","6568aa21965e65deb9e70d5c","13","","","","","","","","","","","","551","[""SV_PolicingMSA/CA_2994/IMG_7_2994.jpg"",""SV_PolicingMSA/CA_2994/IMG_10_2994.jpg"",""SV_PolicingMSA/CA_2994/IMG_1_2994.jpg"",""SV_PolicingMSA/CA_2994/IMG_11_2994.jpg"",""SV_PolicingMSA/CA_2994/IMG_0_2994.jpg"",""SV_PolicingMSA/CA_2994/IMG_12_2994.jpg"",""SV_PolicingMSA/CA_2994/IMG_9_2994.jpg"",""SV_PolicingMSA/CA_2994/IMG_14_2994.jpg""]","4","","","","","","1","","4","[""./rc_img/cop_condGroup_3_CommunitySafety_autoscaled.png"",""./rc_img/cop_condGroup_3_SafeStreets_autoscaled.png""]","4","",""
"sliderTrial","html-slider-response","55","242479","0.0-55.0","","656776a7904ae00d6b91d1dd","6568aa21965e65deb9e70d5c","13","","","","","","","","","","","","481","[""SV_PolicingMSA/CA_2994/IMG_7_2994.jpg"",""SV_PolicingMSA/CA_2994/IMG_10_2994.jpg"",""SV_PolicingMSA/CA_2994/IMG_1_2994.jpg"",""SV_PolicingMSA/CA_2994/IMG_11_2994.jpg"",""SV_PolicingMSA/CA_2994/IMG_0_2994.jpg"",""SV_PolicingMSA/CA_2994/IMG_12_2994.jpg"",""SV_PolicingMSA/CA_2994/IMG_9_2994.jpg"",""SV_PolicingMSA/CA_2994/IMG_14_2994.jpg""]","4","","","","","","1","","4","[""./rc_img/cop_condGroup_15_CommunitySafety_autoscaled.png"",""./rc_img/cop_condGroup_15_SafeStreets_autoscaled.png""]","4","",""
"sliderTrial_attention","html-slider-response","56","252489","0.0-56.0","","656776a7904ae00d6b91d1dd","6568aa21965e65deb9e70d5c","13","","","","","","","","","","","","null","[""SV_PolicingMSA/CA_2994/IMG_7_2994.jpg"",""SV_PolicingMSA/CA_2994/IMG_10_2994.jpg"",""SV_PolicingMSA/CA_2994/IMG_1_2994.jpg"",""SV_PolicingMSA/CA_2994/IMG_11_2994.jpg"",""SV_PolicingMSA/CA_2994/IMG_0_2994.jpg"",""SV_PolicingMSA/CA_2994/IMG_12_2994.jpg"",""SV_PolicingMSA/CA_2994/IMG_9_2994.jpg"",""SV_PolicingMSA/CA_2994/IMG_14_2994.jpg""]","null","","","","","","1","","4","[""./assets/img/attnchk.png"",""./assets/img/attnchk.png""]","","true",""
"sliderTrial","html-slider-response","57","256846","0.0-57.0","","656776a7904ae00d6b91d1dd","6568aa21965e65deb9e70d5c","13","","","","","","","","","","","","4355","[""SV_PolicingMSA/CA_2994/IMG_7_2994.jpg"",""SV_PolicingMSA/CA_2994/IMG_10_2994.jpg"",""SV_PolicingMSA/CA_2994/IMG_1_2994.jpg"",""SV_PolicingMSA/CA_2994/IMG_11_2994.jpg"",""SV_PolicingMSA/CA_2994/IMG_0_2994.jpg"",""SV_PolicingMSA/CA_2994/IMG_12_2994.jpg"",""SV_PolicingMSA/CA_2994/IMG_9_2994.jpg"",""SV_PolicingMSA/CA_2994/IMG_14_2994.jpg""]","4","","","","","","1","","4","[""./rc_img/cop_condGroup_4_SafeStreets_autoscaled.png"",""./rc_img/cop_condGroup_4_CommunitySafety_autoscaled.png""]","4","",""
"before_SVSlide_prompt","html-button-response","58","258094","0.0-58.0","","656776a7904ae00d6b91d1dd","6568aa21965e65deb9e70d5c","13","","","","","","","","","","","","1247","Click [Next] to see the next neighborhood!","0","","","","","","","","","","","",""
"street view slide show","image-button-response","59","259101","0.0-59.0","","656776a7904ae00d6b91d1dd","6568aa21965e65deb9e70d5c","13","","","","","","","","","","","","null","stimulus/SV_PolicingMSA/CA_3476/IMG_12_3476.jpg","null","","","","","","2","","","","","",""
"street view slide show","image-button-response","60","260104","0.0-60.0","","656776a7904ae00d6b91d1dd","6568aa21965e65deb9e70d5c","13","","","","","","","","","","","","null","stimulus/SV_PolicingMSA/CA_3476/IMG_2_3476.jpg","null","","","","","","2","","","","","",""
"street view slide show","image-button-response","61","261109","0.0-61.0","","656776a7904ae00d6b91d1dd","6568aa21965e65deb9e70d5c","13","","","","","","","","","","","","null","stimulus/SV_PolicingMSA/CA_3476/IMG_7_3476.jpg","null","","","","","","2","","","","","",""
"street view slide show","image-button-response","62","262120","0.0-62.0","","656776a7904ae00d6b91d1dd","6568aa21965e65deb9e70d5c","13","","","","","","","","","","","","null","stimulus/SV_PolicingMSA/CA_3476/IMG_14_3476.jpg","null","","","","","","2","","","","","",""
"street view slide show","image-button-response","63","263132","0.0-63.0","","656776a7904ae00d6b91d1dd","6568aa21965e65deb9e70d5c","13","","","","","","","","","","","","null","stimulus/SV_PolicingMSA/CA_3476/IMG_1_3476.jpg","null","","","","","","2","","","","","",""
"street view slide show","image-button-response","64","264142","0.0-64.0","","656776a7904ae00d6b91d1dd","6568aa21965e65deb9e70d5c","13","","","","","","","","","","","","null","stimulus/SV_PolicingMSA/CA_3476/IMG_8_3476.jpg","null","","","","","","2","","","","","",""
"street view slide show","image-button-response","65","265152","0.0-65.0","","656776a7904ae00d6b91d1dd","6568aa21965e65deb9e70d5c","13","","","","","","","","","","","","null","stimulus/SV_PolicingMSA/CA_3476/IMG_10_3476.jpg","null","","","","","","2","","","","","",""
"street view slide show","image-button-response","66","266162","0.0-66.0","","656776a7904ae00d6b91d1dd","6568aa21965e65deb9e70d5c","13","","","","","","","","","","","","null","stimulus/SV_PolicingMSA/CA_3476/IMG_3_3476.jpg","null","","","","","","2","","","","","",""
"dot matrix survey1","survey","67","275245","0.0-67.0","","656776a7904ae00d6b91d1dd","6568aa21965e65deb9e70d5c","13","","","","","","","","","","","","9077","","{""P0_Q0"":null,""P0_Q1"":{""wealthy"":1,""safe"":2,""walkable"":2,""traditional"":2,""diverse"":2}}","","","","","","2","[]","","","","",""
"dot matrix survey2","survey","68","280756","0.0-68.0","","656776a7904ae00d6b91d1dd","6568aa21965e65deb9e70d5c","13","","","","","","","","","","","","5507","","{""P0_Q0"":null,""P0_Q1"":{""violence"":2,""crime"":2,""drug"":2,""schools"":2,""opportunities"":2}}","","","","","","2","[]","","","","",""
"dot matrix survey3","survey","69","291682","0.0-69.0","","656776a7904ae00d6b91d1dd","6568aa21965e65deb9e70d5c","13","","","","","","","","","","","","10922","","{""P0_Q0"":null,""P0_Q1"":{""movein"":2,""moveout"":2,""shopping"":2,""walk"":2,""park"":2,""school"":2}}","","","","","","2","[]","","","","",""
"sliderTrial","html-slider-response","70","294637","0.0-70.0","","656776a7904ae00d6b91d1dd","6568aa21965e65deb9e70d5c","13","","","","","","","","","","","","2953","[""SV_PolicingMSA/CA_3476/IMG_12_3476.jpg"",""SV_PolicingMSA/CA_3476/IMG_2_3476.jpg"",""SV_PolicingMSA/CA_3476/IMG_7_3476.jpg"",""SV_PolicingMSA/CA_3476/IMG_14_3476.jpg"",""SV_PolicingMSA/CA_3476/IMG_1_3476.jpg"",""SV_PolicingMSA/CA_3476/IMG_8_3476.jpg"",""SV_PolicingMSA/CA_3476/IMG_10_3476.jpg"",""SV_PolicingMSA/CA_3476/IMG_3_3476.jpg""]","4","","","","","","2","","4","[""./rc_img/cop_condGroup_18_SafeStreets_autoscaled.png"",""./rc_img/cop_condGroup_18_CommunitySafety_autoscaled.png""]","4","",""
"sliderTrial","html-slider-response","71","295523","0.0-71.0","","656776a7904ae00d6b91d1dd","6568aa21965e65deb9e70d5c","13","","","","","","","","","","","","886","[""SV_PolicingMSA/CA_3476/IMG_12_3476.jpg"",""SV_PolicingMSA/CA_3476/IMG_2_3476.jpg"",""SV_PolicingMSA/CA_3476/IMG_7_3476.jpg"",""SV_PolicingMSA/CA_3476/IMG_14_3476.jpg"",""SV_PolicingMSA/CA_3476/IMG_1_3476.jpg"",""SV_PolicingMSA/CA_3476/IMG_8_3476.jpg"",""SV_PolicingMSA/CA_3476/IMG_10_3476.jpg"",""SV_PolicingMSA/CA_3476/IMG_3_3476.jpg""]","4","","","","","","2","","4","[""./rc_img/cop_condGroup_14_SafeStreets_autoscaled.png"",""./rc_img/cop_condGroup_14_CommunitySafety_autoscaled.png""]","4","",""
"sliderTrial","html-slider-response","72","296427","0.0-72.0","","656776a7904ae00d6b91d1dd","6568aa21965e65deb9e70d5c","13","","","","","","","","","","","","903","[""SV_PolicingMSA/CA_3476/IMG_12_3476.jpg"",""SV_PolicingMSA/CA_3476/IMG_2_3476.jpg"",""SV_PolicingMSA/CA_3476/IMG_7_3476.jpg"",""SV_PolicingMSA/CA_3476/IMG_14_3476.jpg"",""SV_PolicingMSA/CA_3476/IMG_1_3476.jpg"",""SV_PolicingMSA/CA_3476/IMG_8_3476.jpg"",""SV_PolicingMSA/CA_3476/IMG_10_3476.jpg"",""SV_PolicingMSA/CA_3476/IMG_3_3476.jpg""]","4","","","","","","2","","4","[""./rc_img/cop_condGroup_1_CommunitySafety_autoscaled.png"",""./rc_img/cop_condGroup_1_SafeStreets_autoscaled.png""]","4","",""
"sliderTrial","html-slider-response","73","297632","0.0-73.0","","656776a7904ae00d6b91d1dd","6568aa21965e65deb9e70d5c","13","","","","","","","","","","","","1205","[""SV_PolicingMSA/CA_3476/IMG_12_3476.jpg"",""SV_PolicingMSA/CA_3476/IMG_2_3476.jpg"",""SV_PolicingMSA/CA_3476/IMG_7_3476.jpg"",""SV_PolicingMSA/CA_3476/IMG_14_3476.jpg"",""SV_PolicingMSA/CA_3476/IMG_1_3476.jpg"",""SV_PolicingMSA/CA_3476/IMG_8_3476.jpg"",""SV_PolicingMSA/CA_3476/IMG_10_3476.jpg"",""SV_PolicingMSA/CA_3476/IMG_3_3476.jpg""]","4","","","","","","2","","4","[""./rc_img/cop_condGroup_2_SafeStreets_autoscaled.png"",""./rc_img/cop_condGroup_2_CommunitySafety_autoscaled.png""]","4","",""
"sliderTrial","html-slider-response","74","298295","0.0-74.0","","656776a7904ae00d6b91d1dd","6568aa21965e65deb9e70d5c","13","","","","","","","","","","","","661","[""SV_PolicingMSA/CA_3476/IMG_12_3476.jpg"",""SV_PolicingMSA/CA_3476/IMG_2_3476.jpg"",""SV_PolicingMSA/CA_3476/IMG_7_3476.jpg"",""SV_PolicingMSA/CA_3476/IMG_14_3476.jpg"",""SV_PolicingMSA/CA_3476/IMG_1_3476.jpg"",""SV_PolicingMSA/CA_3476/IMG_8_3476.jpg"",""SV_PolicingMSA/CA_3476/IMG_10_3476.jpg"",""SV_PolicingMSA/CA_3476/IMG_3_3476.jpg""]","4","","","","","","2","","4","[""./rc_img/cop_condGroup_8_CommunitySafety_autoscaled.png"",""./rc_img/cop_condGroup_8_SafeStreets_autoscaled.png""]","4","",""
"half-way","html-button-response","75","314055","0.0-75.0","","656776a7904ae00d6b91d1dd","6568aa21965e65deb9e70d5c","13","","","","","","","","","","","","null","
    <h3>You are now half way through the study.</h3>
    <p>Please take a quick, 15-second break before you continue.</p>
    <img src='assets/img/countdown-15.gif'>
    <p>The study will automatically advance forward after the countdown is complete. <br> However, you may click ""Next"" to advance forward now if you wish.</p>
    ","null","","","","","","","","","","","",""
"before_SVSlide_prompt","html-button-response","76","316760","0.0-76.0","","656776a7904ae00d6b91d1dd","6568aa21965e65deb9e70d5c","13","","","","","","","","","","","","2704","Click [Next] to see the next neighborhood!","0","","","","","","","","","","","",""
"street view slide show","image-button-response","77","317765","0.0-77.0","","656776a7904ae00d6b91d1dd","6568aa21965e65deb9e70d5c","13","","","","","","","","","","","","null","stimulus/SV_PolicingMSA/CA_5476/IMG_3_5476.jpg","null","","","","","","5","","","","","",""
"street view slide show","image-button-response","78","318773","0.0-78.0","","656776a7904ae00d6b91d1dd","6568aa21965e65deb9e70d5c","13","","","","","","","","","","","","null","stimulus/SV_PolicingMSA/CA_5476/IMG_0_5476.jpg","null","","","","","","5","","","","","",""
"street view slide show","image-button-response","79","319782","0.0-79.0","","656776a7904ae00d6b91d1dd","6568aa21965e65deb9e70d5c","13","","","","","","","","","","","","null","stimulus/SV_PolicingMSA/CA_5476/IMG_9_5476.jpg","null","","","","","","5","","","","","",""
"street view slide show","image-button-response","80","320789","0.0-80.0","","656776a7904ae00d6b91d1dd","6568aa21965e65deb9e70d5c","13","","","","","","","","","","","","null","stimulus/SV_PolicingMSA/CA_5476/IMG_7_5476.jpg","null","","","","","","5","","","","","",""
"street view slide show","image-button-response","81","321790","0.0-81.0","","656776a7904ae00d6b91d1dd","6568aa21965e65deb9e70d5c","13","","","","","","","","","","","","null","stimulus/SV_PolicingMSA/CA_5476/IMG_11_5476.jpg","null","","","","","","5","","","","","",""
"street view slide show","image-button-response","82","322804","0.0-82.0","","656776a7904ae00d6b91d1dd","6568aa21965e65deb9e70d5c","13","","","","","","","","","","","","null","stimulus/SV_PolicingMSA/CA_5476/IMG_8_5476.jpg","null","","","","","","5","","","","","",""
"street view slide show","image-button-response","83","323812","0.0-83.0","","656776a7904ae00d6b91d1dd","6568aa21965e65deb9e70d5c","13","","","","","","","","","","","","null","stimulus/SV_PolicingMSA/CA_5476/IMG_14_5476.jpg","null","","","","","","5","","","","","",""
"street view slide show","image-button-response","84","324825","0.0-84.0","","656776a7904ae00d6b91d1dd","6568aa21965e65deb9e70d5c","13","","","","","","","","","","","","null","stimulus/SV_PolicingMSA/CA_5476/IMG_6_5476.jpg","null","","","","","","5","","","","","",""
"dot matrix survey1","survey","85","332041","0.0-85.0","","656776a7904ae00d6b91d1dd","6568aa21965e65deb9e70d5c","13","","","","","","","","","","","","7205","","{""P0_Q0"":null,""P0_Q1"":{""wealthy"":2,""safe"":2,""walkable"":2,""traditional"":2,""diverse"":2}}","","","","","","5","[]","","","","",""
"dot matrix survey2","survey","86","341909","0.0-86.0","","656776a7904ae00d6b91d1dd","6568aa21965e65deb9e70d5c","13","","","","","","","","","","","","9865","","{""P0_Q0"":null,""P0_Q1"":{""violence"":2,""crime"":2,""drug"":2,""schools"":2,""opportunities"":2}}","","","","","","5","[]","","","","",""
"dot matrix survey3","survey","87","356204","0.0-87.0","","656776a7904ae00d6b91d1dd","6568aa21965e65deb9e70d5c","13","","","","","","","","","","","","14291","","{""P0_Q0"":null,""P0_Q1"":{""movein"":3,""moveout"":1,""shopping"":3,""walk"":2,""park"":3,""school"":2}}","","","","","","5","[]","","","","",""
"sliderTrial","html-slider-response","88","359057","0.0-88.0","","656776a7904ae00d6b91d1dd","6568aa21965e65deb9e70d5c","13","","","","","","","","","","","","2852","[""SV_PolicingMSA/CA_5476/IMG_3_5476.jpg"",""SV_PolicingMSA/CA_5476/IMG_0_5476.jpg"",""SV_PolicingMSA/CA_5476/IMG_9_5476.jpg"",""SV_PolicingMSA/CA_5476/IMG_7_5476.jpg"",""SV_PolicingMSA/CA_5476/IMG_11_5476.jpg"",""SV_PolicingMSA/CA_5476/IMG_8_5476.jpg"",""SV_PolicingMSA/CA_5476/IMG_14_5476.jpg"",""SV_PolicingMSA/CA_5476/IMG_6_5476.jpg""]","4","","","","","","5","","4","[""./rc_img/cop_condGroup_7_CommunitySafety_autoscaled.png"",""./rc_img/cop_condGroup_7_SafeStreets_autoscaled.png""]","4","",""
"sliderTrial","html-slider-response","89","359826","0.0-89.0","","656776a7904ae00d6b91d1dd","6568aa21965e65deb9e70d5c","13","","","","","","","","","","","","769","[""SV_PolicingMSA/CA_5476/IMG_3_5476.jpg"",""SV_PolicingMSA/CA_5476/IMG_0_5476.jpg"",""SV_PolicingMSA/CA_5476/IMG_9_5476.jpg"",""SV_PolicingMSA/CA_5476/IMG_7_5476.jpg"",""SV_PolicingMSA/CA_5476/IMG_11_5476.jpg"",""SV_PolicingMSA/CA_5476/IMG_8_5476.jpg"",""SV_PolicingMSA/CA_5476/IMG_14_5476.jpg"",""SV_PolicingMSA/CA_5476/IMG_6_5476.jpg""]","4","","","","","","5","","4","[""./rc_img/cop_condGroup_11_SafeStreets_autoscaled.png"",""./rc_img/cop_condGroup_11_CommunitySafety_autoscaled.png""]","4","",""
"sliderTrial","html-slider-response","90","360543","0.0-90.0","","656776a7904ae00d6b91d1dd","6568aa21965e65deb9e70d5c","13","","","","","","","","","","","","715","[""SV_PolicingMSA/CA_5476/IMG_3_5476.jpg"",""SV_PolicingMSA/CA_5476/IMG_0_5476.jpg"",""SV_PolicingMSA/CA_5476/IMG_9_5476.jpg"",""SV_PolicingMSA/CA_5476/IMG_7_5476.jpg"",""SV_PolicingMSA/CA_5476/IMG_11_5476.jpg"",""SV_PolicingMSA/CA_5476/IMG_8_5476.jpg"",""SV_PolicingMSA/CA_5476/IMG_14_5476.jpg"",""SV_PolicingMSA/CA_5476/IMG_6_5476.jpg""]","4","","","","","","5","","4","[""./rc_img/cop_condGroup_13_CommunitySafety_autoscaled.png"",""./rc_img/cop_condGroup_13_SafeStreets_autoscaled.png""]","4","",""
"sliderTrial","html-slider-response","91","361237","0.0-91.0","","656776a7904ae00d6b91d1dd","6568aa21965e65deb9e70d5c","13","","","","","","","","","","","","693","[""SV_PolicingMSA/CA_5476/IMG_3_5476.jpg"",""SV_PolicingMSA/CA_5476/IMG_0_5476.jpg"",""SV_PolicingMSA/CA_5476/IMG_9_5476.jpg"",""SV_PolicingMSA/CA_5476/IMG_7_5476.jpg"",""SV_PolicingMSA/CA_5476/IMG_11_5476.jpg"",""SV_PolicingMSA/CA_5476/IMG_8_5476.jpg"",""SV_PolicingMSA/CA_5476/IMG_14_5476.jpg"",""SV_PolicingMSA/CA_5476/IMG_6_5476.jpg""]","4","","","","","","5","","4","[""./rc_img/cop_condGroup_20_SafeStreets_autoscaled.png"",""./rc_img/cop_condGroup_20_CommunitySafety_autoscaled.png""]","4","",""
"sliderTrial","html-slider-response","92","361829","0.0-92.0","","656776a7904ae00d6b91d1dd","6568aa21965e65deb9e70d5c","13","","","","","","","","","","","","591","[""SV_PolicingMSA/CA_5476/IMG_3_5476.jpg"",""SV_PolicingMSA/CA_5476/IMG_0_5476.jpg"",""SV_PolicingMSA/CA_5476/IMG_9_5476.jpg"",""SV_PolicingMSA/CA_5476/IMG_7_5476.jpg"",""SV_PolicingMSA/CA_5476/IMG_11_5476.jpg"",""SV_PolicingMSA/CA_5476/IMG_8_5476.jpg"",""SV_PolicingMSA/CA_5476/IMG_14_5476.jpg"",""SV_PolicingMSA/CA_5476/IMG_6_5476.jpg""]","4","","","","","","5","","4","[""./rc_img/cop_condGroup_10_CommunitySafety_autoscaled.png"",""./rc_img/cop_condGroup_10_SafeStreets_autoscaled.png""]","4","",""
"before_SVSlide_prompt","html-button-response","93","363097","0.0-93.0","","656776a7904ae00d6b91d1dd","6568aa21965e65deb9e70d5c","13","","","","","","","","","","","","1267","Click [Next] to see the next neighborhood!","0","","","","","","","","","","","",""
"street view slide show","image-button-response","94","364103","0.0-94.0","","656776a7904ae00d6b91d1dd","6568aa21965e65deb9e70d5c","13","","","","","","","","","","","","null","stimulus/SV_PolicingMSA/CA_5734/IMG_13_5734.jpg","null","","","","","","4","","","","","",""
"street view slide show","image-button-response","95","365116","0.0-95.0","","656776a7904ae00d6b91d1dd","6568aa21965e65deb9e70d5c","13","","","","","","","","","","","","null","stimulus/SV_PolicingMSA/CA_5734/IMG_4_5734.jpg","null","","","","","","4","","","","","",""
"street view slide show","image-button-response","96","366124","0.0-96.0","","656776a7904ae00d6b91d1dd","6568aa21965e65deb9e70d5c","13","","","","","","","","","","","","null","stimulus/SV_PolicingMSA/CA_5734/IMG_1_5734.jpg","null","","","","","","4","","","","","",""
"street view slide show","image-button-response","97","367131","0.0-97.0","","656776a7904ae00d6b91d1dd","6568aa21965e65deb9e70d5c","13","","","","","","","","","","","","null","stimulus/SV_PolicingMSA/CA_5734/IMG_7_5734.jpg","null","","","","","","4","","","","","",""
"street view slide show","image-button-response","98","368137","0.0-98.0","","656776a7904ae00d6b91d1dd","6568aa21965e65deb9e70d5c","13","","","","","","","","","","","","null","stimulus/SV_PolicingMSA/CA_5734/IMG_12_5734.jpg","null","","","","","","4","","","","","",""
"street view slide show","image-button-response","99","369141","0.0-99.0","","656776a7904ae00d6b91d1dd","6568aa21965e65deb9e70d5c","13","","","","","","","","","","","","null","stimulus/SV_PolicingMSA/CA_5734/IMG_6_5734.jpg","null","","","","","","4","","","","","",""
"street view slide show","image-button-response","100","370153","0.0-100.0","","656776a7904ae00d6b91d1dd","6568aa21965e65deb9e70d5c","13","","","","","","","","","","","","null","stimulus/SV_PolicingMSA/CA_5734/IMG_14_5734.jpg","null","","","","","","4","","","","","",""
"street view slide show","image-button-response","101","371162","0.0-101.0","","656776a7904ae00d6b91d1dd","6568aa21965e65deb9e70d5c","13","","","","","","","","","","","","null","stimulus/SV_PolicingMSA/CA_5734/IMG_5_5734.jpg","null","","","","","","4","","","","","",""
"dot matrix survey1","survey","102","375834","0.0-102.0","","656776a7904ae00d6b91d1dd","6568aa21965e65deb9e70d5c","13","","","","","","","","","","","","4663","","{""P0_Q0"":null,""P0_Q1"":{""wealthy"":2,""safe"":2,""walkable"":2,""traditional"":2,""diverse"":2}}","","","","","","4","[]","","","","",""
"dot matrix survey2","survey","103","381770","0.0-103.0","","656776a7904ae00d6b91d1dd","6568aa21965e65deb9e70d5c","13","","","","","","","","","","","","5933","","{""P0_Q0"":null,""P0_Q1"":{""violence"":2,""crime"":2,""drug"":2,""schools"":2,""opportunities"":2}}","","","","","","4","[]","","","","",""
"dot matrix survey3","survey","104","391585","0.0-104.0","","656776a7904ae00d6b91d1dd","6568aa21965e65deb9e70d5c","13","","","","","","","","","","","","9811","","{""P0_Q0"":null,""P0_Q1"":{""movein"":2,""moveout"":1,""shopping"":2,""walk"":2,""park"":2,""school"":2}}","","","","","","4","[]","","","","",""
"sliderTrial","html-slider-response","105","401339","0.0-105.0","","656776a7904ae00d6b91d1dd","6568aa21965e65deb9e70d5c","13","","","","","","","","","","","","9753","[""SV_PolicingMSA/CA_5734/IMG_13_5734.jpg"",""SV_PolicingMSA/CA_5734/IMG_4_5734.jpg"",""SV_PolicingMSA/CA_5734/IMG_1_5734.jpg"",""SV_PolicingMSA/CA_5734/IMG_7_5734.jpg"",""SV_PolicingMSA/CA_5734/IMG_12_5734.jpg"",""SV_PolicingMSA/CA_5734/IMG_6_5734.jpg"",""SV_PolicingMSA/CA_5734/IMG_14_5734.jpg"",""SV_PolicingMSA/CA_5734/IMG_5_5734.jpg""]","4","","","","","","4","","4","[""./rc_img/cop_condGroup_17_SafeStreets_autoscaled.png"",""./rc_img/cop_condGroup_17_CommunitySafety_autoscaled.png""]","4","",""
"sliderTrial","html-slider-response","106","402561","0.0-106.0","","656776a7904ae00d6b91d1dd","6568aa21965e65deb9e70d5c","13","","","","","","","","","","","","1222","[""SV_PolicingMSA/CA_5734/IMG_13_5734.jpg"",""SV_PolicingMSA/CA_5734/IMG_4_5734.jpg"",""SV_PolicingMSA/CA_5734/IMG_1_5734.jpg"",""SV_PolicingMSA/CA_5734/IMG_7_5734.jpg"",""SV_PolicingMSA/CA_5734/IMG_12_5734.jpg"",""SV_PolicingMSA/CA_5734/IMG_6_5734.jpg"",""SV_PolicingMSA/CA_5734/IMG_14_5734.jpg"",""SV_PolicingMSA/CA_5734/IMG_5_5734.jpg""]","4","","","","","","4","","4","[""./rc_img/cop_condGroup_9_SafeStreets_autoscaled.png"",""./rc_img/cop_condGroup_9_CommunitySafety_autoscaled.png""]","4","",""
"sliderTrial","html-slider-response","107","403767","0.0-107.0","","656776a7904ae00d6b91d1dd","6568aa21965e65deb9e70d5c","13","","","","","","","","","","","","1204","[""SV_PolicingMSA/CA_5734/IMG_13_5734.jpg"",""SV_PolicingMSA/CA_5734/IMG_4_5734.jpg"",""SV_PolicingMSA/CA_5734/IMG_1_5734.jpg"",""SV_PolicingMSA/CA_5734/IMG_7_5734.jpg"",""SV_PolicingMSA/CA_5734/IMG_12_5734.jpg"",""SV_PolicingMSA/CA_5734/IMG_6_5734.jpg"",""SV_PolicingMSA/CA_5734/IMG_14_5734.jpg"",""SV_PolicingMSA/CA_5734/IMG_5_5734.jpg""]","4","","","","","","4","","4","[""./rc_img/cop_condGroup_12_CommunitySafety_autoscaled.png"",""./rc_img/cop_condGroup_12_SafeStreets_autoscaled.png""]","4","",""
"sliderTrial","html-slider-response","108","404359","0.0-108.0","","656776a7904ae00d6b91d1dd","6568aa21965e65deb9e70d5c","13","","","","","","","","","","","","592","[""SV_PolicingMSA/CA_5734/IMG_13_5734.jpg"",""SV_PolicingMSA/CA_5734/IMG_4_5734.jpg"",""SV_PolicingMSA/CA_5734/IMG_1_5734.jpg"",""SV_PolicingMSA/CA_5734/IMG_7_5734.jpg"",""SV_PolicingMSA/CA_5734/IMG_12_5734.jpg"",""SV_PolicingMSA/CA_5734/IMG_6_5734.jpg"",""SV_PolicingMSA/CA_5734/IMG_14_5734.jpg"",""SV_PolicingMSA/CA_5734/IMG_5_5734.jpg""]","4","","","","","","4","","4","[""./rc_img/cop_condGroup_16_SafeStreets_autoscaled.png"",""./rc_img/cop_condGroup_16_CommunitySafety_autoscaled.png""]","4","",""
"sliderTrial","html-slider-response","109","405075","0.0-109.0","","656776a7904ae00d6b91d1dd","6568aa21965e65deb9e70d5c","13","","","","","","","","","","","","715","[""SV_PolicingMSA/CA_5734/IMG_13_5734.jpg"",""SV_PolicingMSA/CA_5734/IMG_4_5734.jpg"",""SV_PolicingMSA/CA_5734/IMG_1_5734.jpg"",""SV_PolicingMSA/CA_5734/IMG_7_5734.jpg"",""SV_PolicingMSA/CA_5734/IMG_12_5734.jpg"",""SV_PolicingMSA/CA_5734/IMG_6_5734.jpg"",""SV_PolicingMSA/CA_5734/IMG_14_5734.jpg"",""SV_PolicingMSA/CA_5734/IMG_5_5734.jpg""]","4","","","","","","4","","4","[""./rc_img/cop_condGroup_6_SafeStreets_autoscaled.png"",""./rc_img/cop_condGroup_6_CommunitySafety_autoscaled.png""]","4","",""
"before_SVSlide_prompt","html-button-response","110","407207","0.0-110.0","","656776a7904ae00d6b91d1dd","6568aa21965e65deb9e70d5c","13","","","","","","","","","","","","2132","Click [Next] to see the next neighborhood!","0","","","","","","","","","","","",""
"street view slide show","image-button-response","111","408214","0.0-111.0","","656776a7904ae00d6b91d1dd","6568aa21965e65deb9e70d5c","13","","","","","","","","","","","","null","stimulus/SV_PolicingMSA/CA_3402/IMG_4_3402.jpg","null","","","","","","3","","","","","",""
"street view slide show","image-button-response","112","409220","0.0-112.0","","656776a7904ae00d6b91d1dd","6568aa21965e65deb9e70d5c","13","","","","","","","","","","","","null","stimulus/SV_PolicingMSA/CA_3402/IMG_1_3402.jpg","null","","","","","","3","","","","","",""
"street view slide show","image-button-response","113","410229","0.0-113.0","","656776a7904ae00d6b91d1dd","6568aa21965e65deb9e70d5c","13","","","","","","","","","","","","null","stimulus/SV_PolicingMSA/CA_3402/IMG_5_3402.jpg","null","","","","","","3","","","","","",""
"street view slide show","image-button-response","114","411237","0.0-114.0","","656776a7904ae00d6b91d1dd","6568aa21965e65deb9e70d5c","13","","","","","","","","","","","","null","stimulus/SV_PolicingMSA/CA_3402/IMG_0_3402.jpg","null","","","","","","3","","","","","",""
"street view slide show","image-button-response","115","412248","0.0-115.0","","656776a7904ae00d6b91d1dd","6568aa21965e65deb9e70d5c","13","","","","","","","","","","","","null","stimulus/SV_PolicingMSA/CA_3402/IMG_14_3402.jpg","null","","","","","","3","","","","","",""
"street view slide show","image-button-response","116","413250","0.0-116.0","","656776a7904ae00d6b91d1dd","6568aa21965e65deb9e70d5c","13","","","","","","","","","","","","null","stimulus/SV_PolicingMSA/CA_3402/IMG_7_3402.jpg","null","","","","","","3","","","","","",""
"street view slide show","image-button-response","117","414252","0.0-117.0","","656776a7904ae00d6b91d1dd","6568aa21965e65deb9e70d5c","13","","","","","","","","","","","","null","stimulus/SV_PolicingMSA/CA_3402/IMG_12_3402.jpg","null","","","","","","3","","","","","",""
"street view slide show","image-button-response","118","415261","0.0-118.0","","656776a7904ae00d6b91d1dd","6568aa21965e65deb9e70d5c","13","","","","","","","","","","","","null","stimulus/SV_PolicingMSA/CA_3402/IMG_10_3402.jpg","null","","","","","","3","","","","","",""
"dot matrix survey1","survey","119","424324","0.0-119.0","","656776a7904ae00d6b91d1dd","6568aa21965e65deb9e70d5c","13","","","","","","","","","","","","9057","","{""P0_Q0"":null,""P0_Q1"":{""wealthy"":1,""safe"":2,""walkable"":2,""traditional"":2,""diverse"":2}}","","","","","","3","[]","","","","",""
"dot matrix survey2","survey","120","438397","0.0-120.0","","656776a7904ae00d6b91d1dd","6568aa21965e65deb9e70d5c","13","","","","","","","","","","","","14070","","{""P0_Q0"":null,""P0_Q1"":{""violence"":2,""crime"":3,""drug"":2,""schools"":2,""opportunities"":2}}","","","","","","3","[]","","","","",""
"dot matrix survey3","survey","121","450957","0.0-121.0","","656776a7904ae00d6b91d1dd","6568aa21965e65deb9e70d5c","13","","","","","","","","","","","","12558","","{""P0_Q0"":null,""P0_Q1"":{""movein"":1,""moveout"":2,""shopping"":2,""walk"":1,""park"":2,""school"":2}}","","","","","","3","[]","","","","",""
"sliderTrial","html-slider-response","122","454317","0.0-122.0","","656776a7904ae00d6b91d1dd","6568aa21965e65deb9e70d5c","13","","","","","","","","","","","","3358","[""SV_PolicingMSA/CA_3402/IMG_4_3402.jpg"",""SV_PolicingMSA/CA_3402/IMG_1_3402.jpg"",""SV_PolicingMSA/CA_3402/IMG_5_3402.jpg"",""SV_PolicingMSA/CA_3402/IMG_0_3402.jpg"",""SV_PolicingMSA/CA_3402/IMG_14_3402.jpg"",""SV_PolicingMSA/CA_3402/IMG_7_3402.jpg"",""SV_PolicingMSA/CA_3402/IMG_12_3402.jpg"",""SV_PolicingMSA/CA_3402/IMG_10_3402.jpg""]","4","","","","","","3","","4","[""./rc_img/cop_condGroup_5_SafeStreets_autoscaled.png"",""./rc_img/cop_condGroup_5_CommunitySafety_autoscaled.png""]","4","",""
"sliderTrial","html-slider-response","123","455381","0.0-123.0","","656776a7904ae00d6b91d1dd","6568aa21965e65deb9e70d5c","13","","","","","","","","","","","","1063","[""SV_PolicingMSA/CA_3402/IMG_4_3402.jpg"",""SV_PolicingMSA/CA_3402/IMG_1_3402.jpg"",""SV_PolicingMSA/CA_3402/IMG_5_3402.jpg"",""SV_PolicingMSA/CA_3402/IMG_0_3402.jpg"",""SV_PolicingMSA/CA_3402/IMG_14_3402.jpg"",""SV_PolicingMSA/CA_3402/IMG_7_3402.jpg"",""SV_PolicingMSA/CA_3402/IMG_12_3402.jpg"",""SV_PolicingMSA/CA_3402/IMG_10_3402.jpg""]","4","","","","","","3","","4","[""./rc_img/cop_condGroup_19_CommunitySafety_autoscaled.png"",""./rc_img/cop_condGroup_19_SafeStreets_autoscaled.png""]","4","",""
"sliderTrial","html-slider-response","124","455857","0.0-124.0","","656776a7904ae00d6b91d1dd","6568aa21965e65deb9e70d5c","13","","","","","","","","","","","","475","[""SV_PolicingMSA/CA_3402/IMG_4_3402.jpg"",""SV_PolicingMSA/CA_3402/IMG_1_3402.jpg"",""SV_PolicingMSA/CA_3402/IMG_5_3402.jpg"",""SV_PolicingMSA/CA_3402/IMG_0_3402.jpg"",""SV_PolicingMSA/CA_3402/IMG_14_3402.jpg"",""SV_PolicingMSA/CA_3402/IMG_7_3402.jpg"",""SV_PolicingMSA/CA_3402/IMG_12_3402.jpg"",""SV_PolicingMSA/CA_3402/IMG_10_3402.jpg""]","4","","","","","","3","","4","[""./rc_img/cop_condGroup_3_CommunitySafety_autoscaled.png"",""./rc_img/cop_condGroup_3_SafeStreets_autoscaled.png""]","4","",""
"sliderTrial","html-slider-response","125","456418","0.0-125.0","","656776a7904ae00d6b91d1dd","6568aa21965e65deb9e70d5c","13","","","","","","","","","","","","560","[""SV_PolicingMSA/CA_3402/IMG_4_3402.jpg"",""SV_PolicingMSA/CA_3402/IMG_1_3402.jpg"",""SV_PolicingMSA/CA_3402/IMG_5_3402.jpg"",""SV_PolicingMSA/CA_3402/IMG_0_3402.jpg"",""SV_PolicingMSA/CA_3402/IMG_14_3402.jpg"",""SV_PolicingMSA/CA_3402/IMG_7_3402.jpg"",""SV_PolicingMSA/CA_3402/IMG_12_3402.jpg"",""SV_PolicingMSA/CA_3402/IMG_10_3402.jpg""]","4","","","","","","3","","4","[""./rc_img/cop_condGroup_15_CommunitySafety_autoscaled.png"",""./rc_img/cop_condGroup_15_SafeStreets_autoscaled.png""]","4","",""
"sliderTrial","html-slider-response","126","457109","0.0-126.0","","656776a7904ae00d6b91d1dd","6568aa21965e65deb9e70d5c","13","","","","","","","","","","","","690","[""SV_PolicingMSA/CA_3402/IMG_4_3402.jpg"",""SV_PolicingMSA/CA_3402/IMG_1_3402.jpg"",""SV_PolicingMSA/CA_3402/IMG_5_3402.jpg"",""SV_PolicingMSA/CA_3402/IMG_0_3402.jpg"",""SV_PolicingMSA/CA_3402/IMG_14_3402.jpg"",""SV_PolicingMSA/CA_3402/IMG_7_3402.jpg"",""SV_PolicingMSA/CA_3402/IMG_12_3402.jpg"",""SV_PolicingMSA/CA_3402/IMG_10_3402.jpg""]","4","","","","","","3","","4","[""./rc_img/cop_condGroup_4_SafeStreets_autoscaled.png"",""./rc_img/cop_condGroup_4_CommunitySafety_autoscaled.png""]","4","",""
"before_SVSlide_prompt","html-button-response","127","458447","0.0-127.0","","656776a7904ae00d6b91d1dd","6568aa21965e65deb9e70d5c","13","","","","","","","","","","","","1337","Click [Next] to see the next neighborhood!","0","","","","","","","","","","","",""
"street view slide show","image-button-response","128","459463","0.0-128.0","","656776a7904ae00d6b91d1dd","6568aa21965e65deb9e70d5c","13","","","","","","","","","","","","null","stimulus/SV_PolicingMSA/CA_7077/IMG_3_7077.jpg","null","","","","","","0","","","","","",""
"street view slide show","image-button-response","129","460474","0.0-129.0","","656776a7904ae00d6b91d1dd","6568aa21965e65deb9e70d5c","13","","","","","","","","","","","","null","stimulus/SV_PolicingMSA/CA_7077/IMG_1_7077.jpg","null","","","","","","0","","","","","",""
"street view slide show","image-button-response","130","461489","0.0-130.0","","656776a7904ae00d6b91d1dd","6568aa21965e65deb9e70d5c","13","","","","","","","","","","","","null","stimulus/SV_PolicingMSA/CA_7077/IMG_13_7077.jpg","null","","","","","","0","","","","","",""
"street view slide show","image-button-response","131","462497","0.0-131.0","","656776a7904ae00d6b91d1dd","6568aa21965e65deb9e70d5c","13","","","","","","","","","","","","null","stimulus/SV_PolicingMSA/CA_7077/IMG_12_7077.jpg","null","","","","","","0","","","","","",""
"street view slide show","image-button-response","132","463510","0.0-132.0","","656776a7904ae00d6b91d1dd","6568aa21965e65deb9e70d5c","13","","","","","","","","","","","","null","stimulus/SV_PolicingMSA/CA_7077/IMG_2_7077.jpg","null","","","","","","0","","","","","",""
"street view slide show","image-button-response","133","464517","0.0-133.0","","656776a7904ae00d6b91d1dd","6568aa21965e65deb9e70d5c","13","","","","","","","","","","","","null","stimulus/SV_PolicingMSA/CA_7077/IMG_14_7077.jpg","null","","","","","","0","","","","","",""
"street view slide show","image-button-response","134","465524","0.0-134.0","","656776a7904ae00d6b91d1dd","6568aa21965e65deb9e70d5c","13","","","","","","","","","","","","null","stimulus/SV_PolicingMSA/CA_7077/IMG_8_7077.jpg","null","","","","","","0","","","","","",""
"street view slide show","image-button-response","135","466527","0.0-135.0","","656776a7904ae00d6b91d1dd","6568aa21965e65deb9e70d5c","13","","","","","","","","","","","","null","stimulus/SV_PolicingMSA/CA_7077/IMG_6_7077.jpg","null","","","","","","0","","","","","",""
"dot matrix survey1","survey","136","471968","0.0-136.0","","656776a7904ae00d6b91d1dd","6568aa21965e65deb9e70d5c","13","","","","","","","","","","","","5433","","{""P0_Q0"":null,""P0_Q1"":{""wealthy"":1,""safe"":2,""walkable"":2,""traditional"":2,""diverse"":2}}","","","","","","0","[]","","","","",""
"dot matrix survey2","survey","137","479975","0.0-137.0","","656776a7904ae00d6b91d1dd","6568aa21965e65deb9e70d5c","13","","","","","","","","","","","","8004","","{""P0_Q0"":null,""P0_Q1"":{""violence"":2,""crime"":2,""drug"":2,""schools"":2,""opportunities"":2}}","","","","","","0","[]","","","","",""
"dot matrix survey3","survey","138","493313","0.0-138.0","","656776a7904ae00d6b91d1dd","6568aa21965e65deb9e70d5c","13","","","","","","","","","","","","13335","","{""P0_Q0"":null,""P0_Q1"":{""movein"":2,""moveout"":2,""shopping"":2,""walk"":1,""park"":2,""school"":2}}","","","","","","0","[]","","","","",""
"sliderTrial","html-slider-response","139","495683","0.0-139.0","","656776a7904ae00d6b91d1dd","6568aa21965e65deb9e70d5c","13","","","","","","","","","","","","2370","[""SV_PolicingMSA/CA_7077/IMG_3_7077.jpg"",""SV_PolicingMSA/CA_7077/IMG_1_7077.jpg"",""SV_PolicingMSA/CA_7077/IMG_13_7077.jpg"",""SV_PolicingMSA/CA_7077/IMG_12_7077.jpg"",""SV_PolicingMSA/CA_7077/IMG_2_7077.jpg"",""SV_PolicingMSA/CA_7077/IMG_14_7077.jpg"",""SV_PolicingMSA/CA_7077/IMG_8_7077.jpg"",""SV_PolicingMSA/CA_7077/IMG_6_7077.jpg""]","4","","","","","","0","","4","[""./rc_img/cop_condGroup_18_SafeStreets_autoscaled.png"",""./rc_img/cop_condGroup_18_CommunitySafety_autoscaled.png""]","4","",""
"sliderTrial","html-slider-response","140","496421","0.0-140.0","","656776a7904ae00d6b91d1dd","6568aa21965e65deb9e70d5c","13","","","","","","","","","","","","737","[""SV_PolicingMSA/CA_7077/IMG_3_7077.jpg"",""SV_PolicingMSA/CA_7077/IMG_1_7077.jpg"",""SV_PolicingMSA/CA_7077/IMG_13_7077.jpg"",""SV_PolicingMSA/CA_7077/IMG_12_7077.jpg"",""SV_PolicingMSA/CA_7077/IMG_2_7077.jpg"",""SV_PolicingMSA/CA_7077/IMG_14_7077.jpg"",""SV_PolicingMSA/CA_7077/IMG_8_7077.jpg"",""SV_PolicingMSA/CA_7077/IMG_6_7077.jpg""]","4","","","","","","0","","4","[""./rc_img/cop_condGroup_14_SafeStreets_autoscaled.png"",""./rc_img/cop_condGroup_14_CommunitySafety_autoscaled.png""]","4","",""
"sliderTrial","html-slider-response","141","497573","0.0-141.0","","656776a7904ae00d6b91d1dd","6568aa21965e65deb9e70d5c","13","","","","","","","","","","","","1150","[""SV_PolicingMSA/CA_7077/IMG_3_7077.jpg"",""SV_PolicingMSA/CA_7077/IMG_1_7077.jpg"",""SV_PolicingMSA/CA_7077/IMG_13_7077.jpg"",""SV_PolicingMSA/CA_7077/IMG_12_7077.jpg"",""SV_PolicingMSA/CA_7077/IMG_2_7077.jpg"",""SV_PolicingMSA/CA_7077/IMG_14_7077.jpg"",""SV_PolicingMSA/CA_7077/IMG_8_7077.jpg"",""SV_PolicingMSA/CA_7077/IMG_6_7077.jpg""]","4","","","","","","0","","4","[""./rc_img/cop_condGroup_1_CommunitySafety_autoscaled.png"",""./rc_img/cop_condGroup_1_SafeStreets_autoscaled.png""]","4","",""
"sliderTrial","html-slider-response","142","498531","0.0-142.0","","656776a7904ae00d6b91d1dd","6568aa21965e65deb9e70d5c","13","","","","","","","","","","","","958","[""SV_PolicingMSA/CA_7077/IMG_3_7077.jpg"",""SV_PolicingMSA/CA_7077/IMG_1_7077.jpg"",""SV_PolicingMSA/CA_7077/IMG_13_7077.jpg"",""SV_PolicingMSA/CA_7077/IMG_12_7077.jpg"",""SV_PolicingMSA/CA_7077/IMG_2_7077.jpg"",""SV_PolicingMSA/CA_7077/IMG_14_7077.jpg"",""SV_PolicingMSA/CA_7077/IMG_8_7077.jpg"",""SV_PolicingMSA/CA_7077/IMG_6_7077.jpg""]","4","","","","","","0","","4","[""./rc_img/cop_condGroup_2_SafeStreets_autoscaled.png"",""./rc_img/cop_condGroup_2_CommunitySafety_autoscaled.png""]","4","",""
"sliderTrial_attention","html-slider-response","143","508547","0.0-143.0","","656776a7904ae00d6b91d1dd","6568aa21965e65deb9e70d5c","13","","","","","","","","","","","","null","[""SV_PolicingMSA/CA_7077/IMG_3_7077.jpg"",""SV_PolicingMSA/CA_7077/IMG_1_7077.jpg"",""SV_PolicingMSA/CA_7077/IMG_13_7077.jpg"",""SV_PolicingMSA/CA_7077/IMG_12_7077.jpg"",""SV_PolicingMSA/CA_7077/IMG_2_7077.jpg"",""SV_PolicingMSA/CA_7077/IMG_14_7077.jpg"",""SV_PolicingMSA/CA_7077/IMG_8_7077.jpg"",""SV_PolicingMSA/CA_7077/IMG_6_7077.jpg""]","null","","","","","","0","","4","[""./assets/img/attnchk.png"",""./assets/img/attnchk.png""]","","true",""
"sliderTrial","html-slider-response","144","511523","0.0-144.0","","656776a7904ae00d6b91d1dd","6568aa21965e65deb9e70d5c","13","","","","","","","","","","","","2973","[""SV_PolicingMSA/CA_7077/IMG_3_7077.jpg"",""SV_PolicingMSA/CA_7077/IMG_1_7077.jpg"",""SV_PolicingMSA/CA_7077/IMG_13_7077.jpg"",""SV_PolicingMSA/CA_7077/IMG_12_7077.jpg"",""SV_PolicingMSA/CA_7077/IMG_2_7077.jpg"",""SV_PolicingMSA/CA_7077/IMG_14_7077.jpg"",""SV_PolicingMSA/CA_7077/IMG_8_7077.jpg"",""SV_PolicingMSA/CA_7077/IMG_6_7077.jpg""]","4","","","","","","0","","4","[""./rc_img/cop_condGroup_8_CommunitySafety_autoscaled.png"",""./rc_img/cop_condGroup_8_SafeStreets_autoscaled.png""]","4","",""
"demographics","survey-html-form","145","553855","0.0-145.0","","656776a7904ae00d6b91d1dd","6568aa21965e65deb9e70d5c","13","","","","","","","","","","","","42331","","{""age"":""51"",""sex"":""male"",""gender"":""man"",""gender-self-describe"":"""",""zipcode"":""21222""}","","","","","","","","","","","",""
"demographics-list","survey","146","598080","0.0-146.0","","656776a7904ae00d6b91d1dd","6568aa21965e65deb9e70d5c","13","","","","","","","","","","","","44209","","{""P0_Q0"":null,""race-ethnicity"":[""White or of European ancestry""],""education"":""High school diploma or equivalent"",""P1_Q0"":null,""ideology"":""Very Conservative"",""P2_Q0"":null,""num-moves"":1,""P3_Q0"":null,""social-ladder"":4}","","","","","","","[]","","","","",""
"end-survey","survey-text","147","629705","0.0-147.0","","656776a7904ae00d6b91d1dd","6568aa21965e65deb9e70d5c","13","","","","","","","","","","","","31621","","{""Q0"":""No""}","","","","","","","","","","","","2"
"end-survey","html-button-response","148","660391","0.0-148.0","","656776a7904ae00d6b91d1dd","6568aa21965e65deb9e70d5c","13","","","","","","","","","","","","30685","
    You've reached the end of the survey. <br><br> 
    <b>Do not close or refresh this window.</b><br>
    On the next page, you will be automatically redirected to Prolific. <br><br>

    <div class=""alert alert-warning""><b>
    </div>
","0","","","","","","","","","","","",""
