"task","trial_type","trial_index","time_elapsed","internal_node_id","subject_id","study_id","session_id","section","width","height","webaudio","browser","browser_version","mobile","os","fullscreen","vsync_rate","webcam","microphone","rt","stimulus","response","success","timeout","failed_images","failed_audio","failed_video","block","accuracy","slider_start","choices","standardized_response","correct"
"pavlovia-init","pavlovia","0","985","0.0-0.0","","656776a7904ae00d6b91d1dd","6568b22394c4ecbe13507cdd","4","","","","","","","","","","","","","","","","","","","","","","","","",""
"browser-check","browser-check","1","1988","0.0-1.0","","656776a7904ae00d6b91d1dd","6568b22394c4ecbe13507cdd","4","1920","969","true","chrome","119.0.0","false","Windows 10","true","60.31","true","true","","","","","","","","","","","","","",""
"consent","html-button-response","2","4892","0.0-2.0","","656776a7904ae00d6b91d1dd","6568b22394c4ecbe13507cdd","4","","","","","","","","","","","","2901","
        <div style=""font-size: 80%; max-width:700px"">
            <h2>CONSENT FORM</h2>
        
            <div style=""text-align: left"">
            <h4>DESCRIPTION</h4>
            <p>
            You will complete a short task where you give your impressions of various neighborhoods and assign individuals to those spaces, and answer some questions about your thoughts and opinions.<br>
            The University of Michigan Institutional Review Board Health Sciences and Behavioral Sciences has determined that this study is exempt from IRB oversight.
            </p>

            <h4>TIME INVOLVEMENT</h4>
            <p>Your participation will take approximately 15 minutes. You will receive $3.15 upon completion of the study.</p>
        
            <h4>RISKS AND BENEFITS</h4>
            <p>
            The risks associated with this study are minimal. The benefits which may reasonably be expected to result from this study are none. We cannot and do not guarantee or promise that you will receive any benefits from this study.
            </p>
          
            <h4>SUBJECT'S RIGHTS</h4>
            <p>
            If you have read this form and have decided to participate in this project, please understand your participation is voluntary and you have the right to withdraw your consent or discontinue participation at any time without penalty or loss of benefits to which you are otherwise entitled. The alternative is not to participate. You have the right to refuse to answer particular questions. Your individual privacy will be maintained in all published and written data resulting from the study.
            </p>

            <h4>HUMAN SUBJECT APPROVAL</h4>
            <p>
            This study is exempt from ongoing IRB review.
            </p>

            <h4>CONTACT INFORMATION</h4>
            If you have any questions, concerns or complaints about this research, its procedures, risks and benefits, contact the Protocol Director, Nicholas Camp, npcamp@umich.edu, (443) 851-6783. <br>

            If you have questions about your rights as a research participant, or wish to obtain information, ask questions or discuss any concerns about this study with someone other than the researcher(s), please contact the following:<br><br>
            University of Michigan<br>
            Health Sciences and Behavioral Sciences Institutional Review Board (IRB-HSBS)<br>
            2800 Plymouth Road<br>
            Building 520, Room 1169Ann Arbor, MI 48109-2800<br>
            Telephone: 734-936-0933 or toll free (866) 936-0933<br>
            Fax: 734-936-1852<br>
            E-mail: irbhsbs@umich.edu<br><br>

            You can also contact the University of Michigan Compliance Hotline at 1-866-990-0111. You may also print this consent form to keep.
            <br><br>
            <div class=""alert alert-warning""><b>
            Do you consent to participate in this study? If you consent to participate in this study, please click “Accept and Continue”. If you select ""Decline and Exit"", you will be exited from the survey. <br>
            </b></div>
            </div>
        </div>
    ","1","","","","","","","","","","",""
"","preload","3","6161","0.0-3.0","","656776a7904ae00d6b91d1dd","6568b22394c4ecbe13507cdd","4","","","","","","","","","","","","","","","true","false","[]","[]","[]","","","","","",""
"instructions","html-button-response","4","13445","0.0-4.0","","656776a7904ae00d6b91d1dd","6568b22394c4ecbe13507cdd","4","","","","","","","","","","","","7283","
        <div class=""text-container"">
        <h1>Welcome to the study!</h1>
        
        <div class=""text-left"">
            <p>
                In this study, we are interested in what people can tell about spaces from Google Street View images. <br> Google Street View takes pictures of streets used for Google Earth and Google Maps. <br>You’ll see Google Street View images of different places and answer some questions about each one.<br>
            </p>
        </div>
        <img src = ""assets/img/example.png"" width = 500px, height = auto>
        <br>
    <br>
    ","0","","","","","","","","","","",""
"instructions","html-button-response","5","15104","0.0-5.0","","656776a7904ae00d6b91d1dd","6568b22394c4ecbe13507cdd","4","","","","","","","","","","","","1658","
    <div class=""text-container"">
        <div class=""text-center"">
            <p>Please remember that your answers are completely anonymous.<br>Go with your gut response- there are no right or wrong answers!</p>
        </div>
    <br>
","0","","","","","","","","","","",""
"before_SVSlide_prompt","html-button-response","6","16264","0.0-6.0","","656776a7904ae00d6b91d1dd","6568b22394c4ecbe13507cdd","4","","","","","","","","","","","","1158","Click [Next] to see the next neighborhood!","0","","","","","","","","","","",""
"street view slide show","image-button-response","7","17274","0.0-7.0","","656776a7904ae00d6b91d1dd","6568b22394c4ecbe13507cdd","4","","","","","","","","","","","","null","stimulus/SV_PolicingMSA/CO_572/IMG_3_572.jpg","null","","","","","","5","","","","",""
"street view slide show","image-button-response","8","18279","0.0-8.0","","656776a7904ae00d6b91d1dd","6568b22394c4ecbe13507cdd","4","","","","","","","","","","","","null","stimulus/SV_PolicingMSA/CO_572/IMG_8_572.jpg","null","","","","","","5","","","","",""
"street view slide show","image-button-response","9","19285","0.0-9.0","","656776a7904ae00d6b91d1dd","6568b22394c4ecbe13507cdd","4","","","","","","","","","","","","null","stimulus/SV_PolicingMSA/CO_572/IMG_14_572.jpg","null","","","","","","5","","","","",""
"street view slide show","image-button-response","10","20301","0.0-10.0","","656776a7904ae00d6b91d1dd","6568b22394c4ecbe13507cdd","4","","","","","","","","","","","","null","stimulus/SV_PolicingMSA/CO_572/IMG_4_572.jpg","null","","","","","","5","","","","",""
"street view slide show","image-button-response","11","21303","0.0-11.0","","656776a7904ae00d6b91d1dd","6568b22394c4ecbe13507cdd","4","","","","","","","","","","","","null","stimulus/SV_PolicingMSA/CO_572/IMG_11_572.jpg","null","","","","","","5","","","","",""
"street view slide show","image-button-response","12","22313","0.0-12.0","","656776a7904ae00d6b91d1dd","6568b22394c4ecbe13507cdd","4","","","","","","","","","","","","null","stimulus/SV_PolicingMSA/CO_572/IMG_5_572.jpg","null","","","","","","5","","","","",""
"street view slide show","image-button-response","13","23325","0.0-13.0","","656776a7904ae00d6b91d1dd","6568b22394c4ecbe13507cdd","4","","","","","","","","","","","","null","stimulus/SV_PolicingMSA/CO_572/IMG_1_572.jpg","null","","","","","","5","","","","",""
"street view slide show","image-button-response","14","24343","0.0-14.0","","656776a7904ae00d6b91d1dd","6568b22394c4ecbe13507cdd","4","","","","","","","","","","","","null","stimulus/SV_PolicingMSA/CO_572/IMG_2_572.jpg","null","","","","","","5","","","","",""
"dot matrix survey1","survey","15","42468","0.0-15.0","","656776a7904ae00d6b91d1dd","6568b22394c4ecbe13507cdd","4","","","","","","","","","","","","18078","","{""P0_Q0"":null,""P0_Q1"":{""wealthy"":3,""safe"":4,""walkable"":4,""traditional"":2,""diverse"":2}}","","","","","","5","[]","","","",""
"dot matrix survey2","survey","16","67633","0.0-16.0","","656776a7904ae00d6b91d1dd","6568b22394c4ecbe13507cdd","4","","","","","","","","","","","","25153","","{""P0_Q0"":null,""P0_Q1"":{""violence"":1,""crime"":1,""drug"":0,""schools"":3,""opportunities"":3}}","","","","","","5","[]","","","",""
"dot matrix survey3","survey","17","86219","0.0-17.0","","656776a7904ae00d6b91d1dd","6568b22394c4ecbe13507cdd","4","","","","","","","","","","","","18577","","{""P0_Q0"":null,""P0_Q1"":{""movein"":3,""moveout"":1,""shopping"":4,""walk"":3,""park"":3,""school"":3}}","","","","","","5","[]","","","",""
"sliderTrial","html-slider-response","18","99328","0.0-18.0","","656776a7904ae00d6b91d1dd","6568b22394c4ecbe13507cdd","4","","","","","","","","","","","","13107","[""SV_PolicingMSA/CO_572/IMG_3_572.jpg"",""SV_PolicingMSA/CO_572/IMG_8_572.jpg"",""SV_PolicingMSA/CO_572/IMG_14_572.jpg"",""SV_PolicingMSA/CO_572/IMG_4_572.jpg"",""SV_PolicingMSA/CO_572/IMG_11_572.jpg"",""SV_PolicingMSA/CO_572/IMG_5_572.jpg"",""SV_PolicingMSA/CO_572/IMG_1_572.jpg"",""SV_PolicingMSA/CO_572/IMG_2_572.jpg""]","4","","","","","","5","","4","[""./rc_img/cop_condGroup_8_SafeStreets_autoscaled.png"",""./rc_img/cop_condGroup_8_CommunitySafety_autoscaled.png""]","4",""
"sliderTrial","html-slider-response","19","107391","0.0-19.0","","656776a7904ae00d6b91d1dd","6568b22394c4ecbe13507cdd","4","","","","","","","","","","","","8059","[""SV_PolicingMSA/CO_572/IMG_3_572.jpg"",""SV_PolicingMSA/CO_572/IMG_8_572.jpg"",""SV_PolicingMSA/CO_572/IMG_14_572.jpg"",""SV_PolicingMSA/CO_572/IMG_4_572.jpg"",""SV_PolicingMSA/CO_572/IMG_11_572.jpg"",""SV_PolicingMSA/CO_572/IMG_5_572.jpg"",""SV_PolicingMSA/CO_572/IMG_1_572.jpg"",""SV_PolicingMSA/CO_572/IMG_2_572.jpg""]","4","","","","","","5","","4","[""./rc_img/cop_condGroup_3_CommunitySafety_autoscaled.png"",""./rc_img/cop_condGroup_3_SafeStreets_autoscaled.png""]","4",""
"sliderTrial","html-slider-response","20","111511","0.0-20.0","","656776a7904ae00d6b91d1dd","6568b22394c4ecbe13507cdd","4","","","","","","","","","","","","4117","[""SV_PolicingMSA/CO_572/IMG_3_572.jpg"",""SV_PolicingMSA/CO_572/IMG_8_572.jpg"",""SV_PolicingMSA/CO_572/IMG_14_572.jpg"",""SV_PolicingMSA/CO_572/IMG_4_572.jpg"",""SV_PolicingMSA/CO_572/IMG_11_572.jpg"",""SV_PolicingMSA/CO_572/IMG_5_572.jpg"",""SV_PolicingMSA/CO_572/IMG_1_572.jpg"",""SV_PolicingMSA/CO_572/IMG_2_572.jpg""]","4","","","","","","5","","4","[""./rc_img/cop_condGroup_6_CommunitySafety_autoscaled.png"",""./rc_img/cop_condGroup_6_SafeStreets_autoscaled.png""]","4",""
"sliderTrial","html-slider-response","21","114389","0.0-21.0","","656776a7904ae00d6b91d1dd","6568b22394c4ecbe13507cdd","4","","","","","","","","","","","","2874","[""SV_PolicingMSA/CO_572/IMG_3_572.jpg"",""SV_PolicingMSA/CO_572/IMG_8_572.jpg"",""SV_PolicingMSA/CO_572/IMG_14_572.jpg"",""SV_PolicingMSA/CO_572/IMG_4_572.jpg"",""SV_PolicingMSA/CO_572/IMG_11_572.jpg"",""SV_PolicingMSA/CO_572/IMG_5_572.jpg"",""SV_PolicingMSA/CO_572/IMG_1_572.jpg"",""SV_PolicingMSA/CO_572/IMG_2_572.jpg""]","4","","","","","","5","","4","[""./rc_img/cop_condGroup_15_CommunitySafety_autoscaled.png"",""./rc_img/cop_condGroup_15_SafeStreets_autoscaled.png""]","4",""
"sliderTrial","html-slider-response","22","117916","0.0-22.0","","656776a7904ae00d6b91d1dd","6568b22394c4ecbe13507cdd","4","","","","","","","","","","","","3522","[""SV_PolicingMSA/CO_572/IMG_3_572.jpg"",""SV_PolicingMSA/CO_572/IMG_8_572.jpg"",""SV_PolicingMSA/CO_572/IMG_14_572.jpg"",""SV_PolicingMSA/CO_572/IMG_4_572.jpg"",""SV_PolicingMSA/CO_572/IMG_11_572.jpg"",""SV_PolicingMSA/CO_572/IMG_5_572.jpg"",""SV_PolicingMSA/CO_572/IMG_1_572.jpg"",""SV_PolicingMSA/CO_572/IMG_2_572.jpg""]","4","","","","","","5","","4","[""./rc_img/cop_condGroup_17_SafeStreets_autoscaled.png"",""./rc_img/cop_condGroup_17_CommunitySafety_autoscaled.png""]","4",""
"before_SVSlide_prompt","html-button-response","23","119280","0.0-23.0","","656776a7904ae00d6b91d1dd","6568b22394c4ecbe13507cdd","4","","","","","","","","","","","","1362","Click [Next] to see the next neighborhood!","0","","","","","","","","","","",""
"street view slide show","image-button-response","24","120295","0.0-24.0","","656776a7904ae00d6b91d1dd","6568b22394c4ecbe13507cdd","4","","","","","","","","","","","","null","stimulus/SV_PolicingMSA/CO_368/IMG_4_368.jpg","null","","","","","","1","","","","",""
"street view slide show","image-button-response","25","121302","0.0-25.0","","656776a7904ae00d6b91d1dd","6568b22394c4ecbe13507cdd","4","","","","","","","","","","","","null","stimulus/SV_PolicingMSA/CO_368/IMG_7_368.jpg","null","","","","","","1","","","","",""
"street view slide show","image-button-response","26","122317","0.0-26.0","","656776a7904ae00d6b91d1dd","6568b22394c4ecbe13507cdd","4","","","","","","","","","","","","null","stimulus/SV_PolicingMSA/CO_368/IMG_6_368.jpg","null","","","","","","1","","","","",""
"street view slide show","image-button-response","27","123321","0.0-27.0","","656776a7904ae00d6b91d1dd","6568b22394c4ecbe13507cdd","4","","","","","","","","","","","","null","stimulus/SV_PolicingMSA/CO_368/IMG_1_368.jpg","null","","","","","","1","","","","",""
"street view slide show","image-button-response","28","124333","0.0-28.0","","656776a7904ae00d6b91d1dd","6568b22394c4ecbe13507cdd","4","","","","","","","","","","","","null","stimulus/SV_PolicingMSA/CO_368/IMG_10_368.jpg","null","","","","","","1","","","","",""
"street view slide show","image-button-response","29","125350","0.0-29.0","","656776a7904ae00d6b91d1dd","6568b22394c4ecbe13507cdd","4","","","","","","","","","","","","null","stimulus/SV_PolicingMSA/CO_368/IMG_9_368.jpg","null","","","","","","1","","","","",""
"street view slide show","image-button-response","30","126352","0.0-30.0","","656776a7904ae00d6b91d1dd","6568b22394c4ecbe13507cdd","4","","","","","","","","","","","","null","stimulus/SV_PolicingMSA/CO_368/IMG_2_368.jpg","null","","","","","","1","","","","",""
"street view slide show","image-button-response","31","127366","0.0-31.0","","656776a7904ae00d6b91d1dd","6568b22394c4ecbe13507cdd","4","","","","","","","","","","","","null","stimulus/SV_PolicingMSA/CO_368/IMG_11_368.jpg","null","","","","","","1","","","","",""
"dot matrix survey1","survey","32","147815","0.0-32.0","","656776a7904ae00d6b91d1dd","6568b22394c4ecbe13507cdd","4","","","","","","","","","","","","20430","","{""P0_Q0"":null,""P0_Q1"":{""wealthy"":1,""safe"":2,""walkable"":2,""traditional"":1,""diverse"":2}}","","","","","","1","[]","","","",""
"dot matrix survey2","survey","33","173640","0.0-33.0","","656776a7904ae00d6b91d1dd","6568b22394c4ecbe13507cdd","4","","","","","","","","","","","","25815","","{""P0_Q0"":null,""P0_Q1"":{""violence"":3,""crime"":3,""drug"":3,""schools"":1,""opportunities"":1}}","","","","","","1","[]","","","",""
"dot matrix survey3","survey","34","196155","0.0-34.0","","656776a7904ae00d6b91d1dd","6568b22394c4ecbe13507cdd","4","","","","","","","","","","","","22508","","{""P0_Q0"":null,""P0_Q1"":{""movein"":0,""moveout"":3,""shopping"":2,""walk"":0,""park"":1,""school"":0}}","","","","","","1","[]","","","",""
"sliderTrial","html-slider-response","35","202203","0.0-35.0","","656776a7904ae00d6b91d1dd","6568b22394c4ecbe13507cdd","4","","","","","","","","","","","","6044","[""SV_PolicingMSA/CO_368/IMG_4_368.jpg"",""SV_PolicingMSA/CO_368/IMG_7_368.jpg"",""SV_PolicingMSA/CO_368/IMG_6_368.jpg"",""SV_PolicingMSA/CO_368/IMG_1_368.jpg"",""SV_PolicingMSA/CO_368/IMG_10_368.jpg"",""SV_PolicingMSA/CO_368/IMG_9_368.jpg"",""SV_PolicingMSA/CO_368/IMG_2_368.jpg"",""SV_PolicingMSA/CO_368/IMG_11_368.jpg""]","4","","","","","","1","","4","[""./rc_img/cop_condGroup_19_SafeStreets_autoscaled.png"",""./rc_img/cop_condGroup_19_CommunitySafety_autoscaled.png""]","4",""
"sliderTrial","html-slider-response","36","203643","0.0-36.0","","656776a7904ae00d6b91d1dd","6568b22394c4ecbe13507cdd","4","","","","","","","","","","","","1436","[""SV_PolicingMSA/CO_368/IMG_4_368.jpg"",""SV_PolicingMSA/CO_368/IMG_7_368.jpg"",""SV_PolicingMSA/CO_368/IMG_6_368.jpg"",""SV_PolicingMSA/CO_368/IMG_1_368.jpg"",""SV_PolicingMSA/CO_368/IMG_10_368.jpg"",""SV_PolicingMSA/CO_368/IMG_9_368.jpg"",""SV_PolicingMSA/CO_368/IMG_2_368.jpg"",""SV_PolicingMSA/CO_368/IMG_11_368.jpg""]","4","","","","","","1","","4","[""./rc_img/cop_condGroup_14_CommunitySafety_autoscaled.png"",""./rc_img/cop_condGroup_14_SafeStreets_autoscaled.png""]","4",""
"sliderTrial_attention","html-slider-response","37","213656","0.0-37.0","","656776a7904ae00d6b91d1dd","6568b22394c4ecbe13507cdd","4","","","","","","","","","","","","null","[""SV_PolicingMSA/CO_368/IMG_4_368.jpg"",""SV_PolicingMSA/CO_368/IMG_7_368.jpg"",""SV_PolicingMSA/CO_368/IMG_6_368.jpg"",""SV_PolicingMSA/CO_368/IMG_1_368.jpg"",""SV_PolicingMSA/CO_368/IMG_10_368.jpg"",""SV_PolicingMSA/CO_368/IMG_9_368.jpg"",""SV_PolicingMSA/CO_368/IMG_2_368.jpg"",""SV_PolicingMSA/CO_368/IMG_11_368.jpg""]","null","","","","","","1","","4","[""./assets/img/attnchk.png"",""./assets/img/attnchk.png""]","","true"
"sliderTrial","html-slider-response","38","215468","0.0-38.0","","656776a7904ae00d6b91d1dd","6568b22394c4ecbe13507cdd","4","","","","","","","","","","","","1809","[""SV_PolicingMSA/CO_368/IMG_4_368.jpg"",""SV_PolicingMSA/CO_368/IMG_7_368.jpg"",""SV_PolicingMSA/CO_368/IMG_6_368.jpg"",""SV_PolicingMSA/CO_368/IMG_1_368.jpg"",""SV_PolicingMSA/CO_368/IMG_10_368.jpg"",""SV_PolicingMSA/CO_368/IMG_9_368.jpg"",""SV_PolicingMSA/CO_368/IMG_2_368.jpg"",""SV_PolicingMSA/CO_368/IMG_11_368.jpg""]","4","","","","","","1","","4","[""./rc_img/cop_condGroup_7_SafeStreets_autoscaled.png"",""./rc_img/cop_condGroup_7_CommunitySafety_autoscaled.png""]","4",""
"sliderTrial","html-slider-response","39","217812","0.0-39.0","","656776a7904ae00d6b91d1dd","6568b22394c4ecbe13507cdd","4","","","","","","","","","","","","2341","[""SV_PolicingMSA/CO_368/IMG_4_368.jpg"",""SV_PolicingMSA/CO_368/IMG_7_368.jpg"",""SV_PolicingMSA/CO_368/IMG_6_368.jpg"",""SV_PolicingMSA/CO_368/IMG_1_368.jpg"",""SV_PolicingMSA/CO_368/IMG_10_368.jpg"",""SV_PolicingMSA/CO_368/IMG_9_368.jpg"",""SV_PolicingMSA/CO_368/IMG_2_368.jpg"",""SV_PolicingMSA/CO_368/IMG_11_368.jpg""]","4","","","","","","1","","4","[""./rc_img/cop_condGroup_10_CommunitySafety_autoscaled.png"",""./rc_img/cop_condGroup_10_SafeStreets_autoscaled.png""]","4",""
"sliderTrial","html-slider-response","40","220020","0.0-40.0","","656776a7904ae00d6b91d1dd","6568b22394c4ecbe13507cdd","4","","","","","","","","","","","","2206","[""SV_PolicingMSA/CO_368/IMG_4_368.jpg"",""SV_PolicingMSA/CO_368/IMG_7_368.jpg"",""SV_PolicingMSA/CO_368/IMG_6_368.jpg"",""SV_PolicingMSA/CO_368/IMG_1_368.jpg"",""SV_PolicingMSA/CO_368/IMG_10_368.jpg"",""SV_PolicingMSA/CO_368/IMG_9_368.jpg"",""SV_PolicingMSA/CO_368/IMG_2_368.jpg"",""SV_PolicingMSA/CO_368/IMG_11_368.jpg""]","4","","","","","","1","","4","[""./rc_img/cop_condGroup_11_SafeStreets_autoscaled.png"",""./rc_img/cop_condGroup_11_CommunitySafety_autoscaled.png""]","4",""
"before_SVSlide_prompt","html-button-response","41","221266","0.0-41.0","","656776a7904ae00d6b91d1dd","6568b22394c4ecbe13507cdd","4","","","","","","","","","","","","1245","Click [Next] to see the next neighborhood!","0","","","","","","","","","","",""
"street view slide show","image-button-response","42","222272","0.0-42.0","","656776a7904ae00d6b91d1dd","6568b22394c4ecbe13507cdd","4","","","","","","","","","","","","null","stimulus/SV_PolicingMSA/CO_649/IMG_11_649.jpg","null","","","","","","2","","","","",""
"street view slide show","image-button-response","43","223283","0.0-43.0","","656776a7904ae00d6b91d1dd","6568b22394c4ecbe13507cdd","4","","","","","","","","","","","","null","stimulus/SV_PolicingMSA/CO_649/IMG_6_649.jpg","null","","","","","","2","","","","",""
"street view slide show","image-button-response","44","224285","0.0-44.0","","656776a7904ae00d6b91d1dd","6568b22394c4ecbe13507cdd","4","","","","","","","","","","","","null","stimulus/SV_PolicingMSA/CO_649/IMG_14_649.jpg","null","","","","","","2","","","","",""
"street view slide show","image-button-response","45","225286","0.0-45.0","","656776a7904ae00d6b91d1dd","6568b22394c4ecbe13507cdd","4","","","","","","","","","","","","null","stimulus/SV_PolicingMSA/CO_649/IMG_9_649.jpg","null","","","","","","2","","","","",""
"street view slide show","image-button-response","46","226297","0.0-46.0","","656776a7904ae00d6b91d1dd","6568b22394c4ecbe13507cdd","4","","","","","","","","","","","","null","stimulus/SV_PolicingMSA/CO_649/IMG_12_649.jpg","null","","","","","","2","","","","",""
"street view slide show","image-button-response","47","227302","0.0-47.0","","656776a7904ae00d6b91d1dd","6568b22394c4ecbe13507cdd","4","","","","","","","","","","","","null","stimulus/SV_PolicingMSA/CO_649/IMG_3_649.jpg","null","","","","","","2","","","","",""
"street view slide show","image-button-response","48","228310","0.0-48.0","","656776a7904ae00d6b91d1dd","6568b22394c4ecbe13507cdd","4","","","","","","","","","","","","null","stimulus/SV_PolicingMSA/CO_649/IMG_4_649.jpg","null","","","","","","2","","","","",""
"street view slide show","image-button-response","49","229326","0.0-49.0","","656776a7904ae00d6b91d1dd","6568b22394c4ecbe13507cdd","4","","","","","","","","","","","","null","stimulus/SV_PolicingMSA/CO_649/IMG_8_649.jpg","null","","","","","","2","","","","",""
"dot matrix survey1","survey","50","244797","0.0-50.0","","656776a7904ae00d6b91d1dd","6568b22394c4ecbe13507cdd","4","","","","","","","","","","","","15451","","{""P0_Q0"":null,""P0_Q1"":{""wealthy"":4,""safe"":4,""walkable"":4,""traditional"":3,""diverse"":1}}","","","","","","2","[]","","","",""
"dot matrix survey2","survey","51","254953","0.0-51.0","","656776a7904ae00d6b91d1dd","6568b22394c4ecbe13507cdd","4","","","","","","","","","","","","10149","","{""P0_Q0"":null,""P0_Q1"":{""violence"":0,""crime"":0,""drug"":0,""schools"":4,""opportunities"":3}}","","","","","","2","[]","","","",""
"dot matrix survey3","survey","52","269046","0.0-52.0","","656776a7904ae00d6b91d1dd","6568b22394c4ecbe13507cdd","4","","","","","","","","","","","","14082","","{""P0_Q0"":null,""P0_Q1"":{""movein"":4,""moveout"":0,""shopping"":4,""walk"":4,""park"":4,""school"":4}}","","","","","","2","[]","","","",""
"sliderTrial","html-slider-response","53","273559","0.0-53.0","","656776a7904ae00d6b91d1dd","6568b22394c4ecbe13507cdd","4","","","","","","","","","","","","4512","[""SV_PolicingMSA/CO_649/IMG_11_649.jpg"",""SV_PolicingMSA/CO_649/IMG_6_649.jpg"",""SV_PolicingMSA/CO_649/IMG_14_649.jpg"",""SV_PolicingMSA/CO_649/IMG_9_649.jpg"",""SV_PolicingMSA/CO_649/IMG_12_649.jpg"",""SV_PolicingMSA/CO_649/IMG_3_649.jpg"",""SV_PolicingMSA/CO_649/IMG_4_649.jpg"",""SV_PolicingMSA/CO_649/IMG_8_649.jpg""]","4","","","","","","2","","4","[""./rc_img/cop_condGroup_1_SafeStreets_autoscaled.png"",""./rc_img/cop_condGroup_1_CommunitySafety_autoscaled.png""]","4",""
"sliderTrial","html-slider-response","54","274743","0.0-54.0","","656776a7904ae00d6b91d1dd","6568b22394c4ecbe13507cdd","4","","","","","","","","","","","","1180","[""SV_PolicingMSA/CO_649/IMG_11_649.jpg"",""SV_PolicingMSA/CO_649/IMG_6_649.jpg"",""SV_PolicingMSA/CO_649/IMG_14_649.jpg"",""SV_PolicingMSA/CO_649/IMG_9_649.jpg"",""SV_PolicingMSA/CO_649/IMG_12_649.jpg"",""SV_PolicingMSA/CO_649/IMG_3_649.jpg"",""SV_PolicingMSA/CO_649/IMG_4_649.jpg"",""SV_PolicingMSA/CO_649/IMG_8_649.jpg""]","4","","","","","","2","","4","[""./rc_img/cop_condGroup_12_SafeStreets_autoscaled.png"",""./rc_img/cop_condGroup_12_CommunitySafety_autoscaled.png""]","4",""
"sliderTrial","html-slider-response","55","276357","0.0-55.0","","656776a7904ae00d6b91d1dd","6568b22394c4ecbe13507cdd","4","","","","","","","","","","","","1612","[""SV_PolicingMSA/CO_649/IMG_11_649.jpg"",""SV_PolicingMSA/CO_649/IMG_6_649.jpg"",""SV_PolicingMSA/CO_649/IMG_14_649.jpg"",""SV_PolicingMSA/CO_649/IMG_9_649.jpg"",""SV_PolicingMSA/CO_649/IMG_12_649.jpg"",""SV_PolicingMSA/CO_649/IMG_3_649.jpg"",""SV_PolicingMSA/CO_649/IMG_4_649.jpg"",""SV_PolicingMSA/CO_649/IMG_8_649.jpg""]","4","","","","","","2","","4","[""./rc_img/cop_condGroup_18_SafeStreets_autoscaled.png"",""./rc_img/cop_condGroup_18_CommunitySafety_autoscaled.png""]","4",""
"sliderTrial","html-slider-response","56","278277","0.0-56.0","","656776a7904ae00d6b91d1dd","6568b22394c4ecbe13507cdd","4","","","","","","","","","","","","1917","[""SV_PolicingMSA/CO_649/IMG_11_649.jpg"",""SV_PolicingMSA/CO_649/IMG_6_649.jpg"",""SV_PolicingMSA/CO_649/IMG_14_649.jpg"",""SV_PolicingMSA/CO_649/IMG_9_649.jpg"",""SV_PolicingMSA/CO_649/IMG_12_649.jpg"",""SV_PolicingMSA/CO_649/IMG_3_649.jpg"",""SV_PolicingMSA/CO_649/IMG_4_649.jpg"",""SV_PolicingMSA/CO_649/IMG_8_649.jpg""]","4","","","","","","2","","4","[""./rc_img/cop_condGroup_5_CommunitySafety_autoscaled.png"",""./rc_img/cop_condGroup_5_SafeStreets_autoscaled.png""]","4",""
"sliderTrial","html-slider-response","57","280136","0.0-57.0","","656776a7904ae00d6b91d1dd","6568b22394c4ecbe13507cdd","4","","","","","","","","","","","","1857","[""SV_PolicingMSA/CO_649/IMG_11_649.jpg"",""SV_PolicingMSA/CO_649/IMG_6_649.jpg"",""SV_PolicingMSA/CO_649/IMG_14_649.jpg"",""SV_PolicingMSA/CO_649/IMG_9_649.jpg"",""SV_PolicingMSA/CO_649/IMG_12_649.jpg"",""SV_PolicingMSA/CO_649/IMG_3_649.jpg"",""SV_PolicingMSA/CO_649/IMG_4_649.jpg"",""SV_PolicingMSA/CO_649/IMG_8_649.jpg""]","4","","","","","","2","","4","[""./rc_img/cop_condGroup_20_CommunitySafety_autoscaled.png"",""./rc_img/cop_condGroup_20_SafeStreets_autoscaled.png""]","4",""
"before_SVSlide_prompt","html-button-response","58","281545","0.0-58.0","","656776a7904ae00d6b91d1dd","6568b22394c4ecbe13507cdd","4","","","","","","","","","","","","1408","Click [Next] to see the next neighborhood!","0","","","","","","","","","","",""
"street view slide show","image-button-response","59","282550","0.0-59.0","","656776a7904ae00d6b91d1dd","6568b22394c4ecbe13507cdd","4","","","","","","","","","","","","null","stimulus/SV_PolicingMSA/CO_252/IMG_14_252.jpg","null","","","","","","0","","","","",""
"street view slide show","image-button-response","60","283903","0.0-60.0","","656776a7904ae00d6b91d1dd","6568b22394c4ecbe13507cdd","4","","","","","","","","","","","","null","stimulus/SV_PolicingMSA/CO_252/IMG_3_252.jpg","null","","","","","","0","","","","",""
"street view slide show","image-button-response","61","284909","0.0-61.0","","656776a7904ae00d6b91d1dd","6568b22394c4ecbe13507cdd","4","","","","","","","","","","","","null","stimulus/SV_PolicingMSA/CO_252/IMG_11_252.jpg","null","","","","","","0","","","","",""
"street view slide show","image-button-response","62","285923","0.0-62.0","","656776a7904ae00d6b91d1dd","6568b22394c4ecbe13507cdd","4","","","","","","","","","","","","null","stimulus/SV_PolicingMSA/CO_252/IMG_6_252.jpg","null","","","","","","0","","","","",""
"street view slide show","image-button-response","63","286928","0.0-63.0","","656776a7904ae00d6b91d1dd","6568b22394c4ecbe13507cdd","4","","","","","","","","","","","","null","stimulus/SV_PolicingMSA/CO_252/IMG_0_252.jpg","null","","","","","","0","","","","",""
"street view slide show","image-button-response","64","287945","0.0-64.0","","656776a7904ae00d6b91d1dd","6568b22394c4ecbe13507cdd","4","","","","","","","","","","","","null","stimulus/SV_PolicingMSA/CO_252/IMG_8_252.jpg","null","","","","","","0","","","","",""
"street view slide show","image-button-response","65","288960","0.0-65.0","","656776a7904ae00d6b91d1dd","6568b22394c4ecbe13507cdd","4","","","","","","","","","","","","null","stimulus/SV_PolicingMSA/CO_252/IMG_7_252.jpg","null","","","","","","0","","","","",""
"street view slide show","image-button-response","66","289978","0.0-66.0","","656776a7904ae00d6b91d1dd","6568b22394c4ecbe13507cdd","4","","","","","","","","","","","","null","stimulus/SV_PolicingMSA/CO_252/IMG_12_252.jpg","null","","","","","","0","","","","",""
"dot matrix survey1","survey","67","301204","0.0-67.0","","656776a7904ae00d6b91d1dd","6568b22394c4ecbe13507cdd","4","","","","","","","","","","","","11211","","{""P0_Q0"":null,""P0_Q1"":{""wealthy"":1,""safe"":2,""walkable"":2,""traditional"":1,""diverse"":2}}","","","","","","0","[]","","","",""
"dot matrix survey2","survey","68","312396","0.0-68.0","","656776a7904ae00d6b91d1dd","6568b22394c4ecbe13507cdd","4","","","","","","","","","","","","11185","","{""P0_Q0"":null,""P0_Q1"":{""violence"":2,""crime"":2,""drug"":2,""schools"":2,""opportunities"":2}}","","","","","","0","[]","","","",""
"dot matrix survey3","survey","69","325456","0.0-69.0","","656776a7904ae00d6b91d1dd","6568b22394c4ecbe13507cdd","4","","","","","","","","","","","","13051","","{""P0_Q0"":null,""P0_Q1"":{""movein"":1,""moveout"":3,""shopping"":2,""walk"":1,""park"":1,""school"":1}}","","","","","","0","[]","","","",""
"sliderTrial","html-slider-response","70","327240","0.0-70.0","","656776a7904ae00d6b91d1dd","6568b22394c4ecbe13507cdd","4","","","","","","","","","","","","1782","[""SV_PolicingMSA/CO_252/IMG_14_252.jpg"",""SV_PolicingMSA/CO_252/IMG_3_252.jpg"",""SV_PolicingMSA/CO_252/IMG_11_252.jpg"",""SV_PolicingMSA/CO_252/IMG_6_252.jpg"",""SV_PolicingMSA/CO_252/IMG_0_252.jpg"",""SV_PolicingMSA/CO_252/IMG_8_252.jpg"",""SV_PolicingMSA/CO_252/IMG_7_252.jpg"",""SV_PolicingMSA/CO_252/IMG_12_252.jpg""]","4","","","","","","0","","4","[""./rc_img/cop_condGroup_4_CommunitySafety_autoscaled.png"",""./rc_img/cop_condGroup_4_SafeStreets_autoscaled.png""]","4",""
"sliderTrial","html-slider-response","71","329281","0.0-71.0","","656776a7904ae00d6b91d1dd","6568b22394c4ecbe13507cdd","4","","","","","","","","","","","","2038","[""SV_PolicingMSA/CO_252/IMG_14_252.jpg"",""SV_PolicingMSA/CO_252/IMG_3_252.jpg"",""SV_PolicingMSA/CO_252/IMG_11_252.jpg"",""SV_PolicingMSA/CO_252/IMG_6_252.jpg"",""SV_PolicingMSA/CO_252/IMG_0_252.jpg"",""SV_PolicingMSA/CO_252/IMG_8_252.jpg"",""SV_PolicingMSA/CO_252/IMG_7_252.jpg"",""SV_PolicingMSA/CO_252/IMG_12_252.jpg""]","4","","","","","","0","","4","[""./rc_img/cop_condGroup_13_SafeStreets_autoscaled.png"",""./rc_img/cop_condGroup_13_CommunitySafety_autoscaled.png""]","4",""
"sliderTrial","html-slider-response","72","331080","0.0-72.0","","656776a7904ae00d6b91d1dd","6568b22394c4ecbe13507cdd","4","","","","","","","","","","","","1796","[""SV_PolicingMSA/CO_252/IMG_14_252.jpg"",""SV_PolicingMSA/CO_252/IMG_3_252.jpg"",""SV_PolicingMSA/CO_252/IMG_11_252.jpg"",""SV_PolicingMSA/CO_252/IMG_6_252.jpg"",""SV_PolicingMSA/CO_252/IMG_0_252.jpg"",""SV_PolicingMSA/CO_252/IMG_8_252.jpg"",""SV_PolicingMSA/CO_252/IMG_7_252.jpg"",""SV_PolicingMSA/CO_252/IMG_12_252.jpg""]","4","","","","","","0","","4","[""./rc_img/cop_condGroup_2_SafeStreets_autoscaled.png"",""./rc_img/cop_condGroup_2_CommunitySafety_autoscaled.png""]","4",""
"sliderTrial","html-slider-response","73","332460","0.0-73.0","","656776a7904ae00d6b91d1dd","6568b22394c4ecbe13507cdd","4","","","","","","","","","","","","1376","[""SV_PolicingMSA/CO_252/IMG_14_252.jpg"",""SV_PolicingMSA/CO_252/IMG_3_252.jpg"",""SV_PolicingMSA/CO_252/IMG_11_252.jpg"",""SV_PolicingMSA/CO_252/IMG_6_252.jpg"",""SV_PolicingMSA/CO_252/IMG_0_252.jpg"",""SV_PolicingMSA/CO_252/IMG_8_252.jpg"",""SV_PolicingMSA/CO_252/IMG_7_252.jpg"",""SV_PolicingMSA/CO_252/IMG_12_252.jpg""]","4","","","","","","0","","4","[""./rc_img/cop_condGroup_9_CommunitySafety_autoscaled.png"",""./rc_img/cop_condGroup_9_SafeStreets_autoscaled.png""]","4",""
"sliderTrial_attention","html-slider-response","74","342478","0.0-74.0","","656776a7904ae00d6b91d1dd","6568b22394c4ecbe13507cdd","4","","","","","","","","","","","","null","[""SV_PolicingMSA/CO_252/IMG_14_252.jpg"",""SV_PolicingMSA/CO_252/IMG_3_252.jpg"",""SV_PolicingMSA/CO_252/IMG_11_252.jpg"",""SV_PolicingMSA/CO_252/IMG_6_252.jpg"",""SV_PolicingMSA/CO_252/IMG_0_252.jpg"",""SV_PolicingMSA/CO_252/IMG_8_252.jpg"",""SV_PolicingMSA/CO_252/IMG_7_252.jpg"",""SV_PolicingMSA/CO_252/IMG_12_252.jpg""]","null","","","","","","0","","4","[""./assets/img/attnchk.png"",""./assets/img/attnchk.png""]","","true"
"sliderTrial","html-slider-response","75","343256","0.0-75.0","","656776a7904ae00d6b91d1dd","6568b22394c4ecbe13507cdd","4","","","","","","","","","","","","775","[""SV_PolicingMSA/CO_252/IMG_14_252.jpg"",""SV_PolicingMSA/CO_252/IMG_3_252.jpg"",""SV_PolicingMSA/CO_252/IMG_11_252.jpg"",""SV_PolicingMSA/CO_252/IMG_6_252.jpg"",""SV_PolicingMSA/CO_252/IMG_0_252.jpg"",""SV_PolicingMSA/CO_252/IMG_8_252.jpg"",""SV_PolicingMSA/CO_252/IMG_7_252.jpg"",""SV_PolicingMSA/CO_252/IMG_12_252.jpg""]","4","","","","","","0","","4","[""./rc_img/cop_condGroup_16_CommunitySafety_autoscaled.png"",""./rc_img/cop_condGroup_16_SafeStreets_autoscaled.png""]","4",""
