"task","trial_type","trial_index","time_elapsed","internal_node_id","subject_id","study_id","session_id","section","width","height","webaudio","browser","browser_version","mobile","os","fullscreen","vsync_rate","webcam","microphone","rt","stimulus","response","success","timeout","failed_images","failed_audio","failed_video","block","accuracy","slider_start","choices","standardized_response","correct","num_attention_checks_correct"
"pavlovia-init","pavlovia","0","1306","0.0-0.0","","656776a7904ae00d6b91d1dd","6568acf16915e4810e9b555f","11","","","","","","","","","","","","","","","","","","","","","","","","","",""
"browser-check","browser-check","1","2303","0.0-1.0","","656776a7904ae00d6b91d1dd","6568acf16915e4810e9b555f","11","1920","911","true","chrome","119.0.0","false","Windows 10","true","60.52","false","true","","","","","","","","","","","","","","",""
"consent","html-button-response","2","6548","0.0-2.0","","656776a7904ae00d6b91d1dd","6568acf16915e4810e9b555f","11","","","","","","","","","","","","4243","
        <div style=""font-size: 80%; max-width:700px"">
            <h2>CONSENT FORM</h2>
        
            <div style=""text-align: left"">
            <h4>DESCRIPTION</h4>
            <p>
            You will complete a short task where you give your impressions of various neighborhoods and assign individuals to those spaces, and answer some questions about your thoughts and opinions.<br>
            The University of Michigan Institutional Review Board Health Sciences and Behavioral Sciences has determined that this study is exempt from IRB oversight.
            </p>

            <h4>TIME INVOLVEMENT</h4>
            <p>Your participation will take approximately 15 minutes. You will receive $3.15 upon completion of the study.</p>
        
            <h4>RISKS AND BENEFITS</h4>
            <p>
            The risks associated with this study are minimal. The benefits which may reasonably be expected to result from this study are none. We cannot and do not guarantee or promise that you will receive any benefits from this study.
            </p>
          
            <h4>SUBJECT'S RIGHTS</h4>
            <p>
            If you have read this form and have decided to participate in this project, please understand your participation is voluntary and you have the right to withdraw your consent or discontinue participation at any time without penalty or loss of benefits to which you are otherwise entitled. The alternative is not to participate. You have the right to refuse to answer particular questions. Your individual privacy will be maintained in all published and written data resulting from the study.
            </p>

            <h4>HUMAN SUBJECT APPROVAL</h4>
            <p>
            This study is exempt from ongoing IRB review.
            </p>

            <h4>CONTACT INFORMATION</h4>
            If you have any questions, concerns or complaints about this research, its procedures, risks and benefits, contact the Protocol Director, Nicholas Camp, npcamp@umich.edu, (443) 851-6783. <br>

            If you have questions about your rights as a research participant, or wish to obtain information, ask questions or discuss any concerns about this study with someone other than the researcher(s), please contact the following:<br><br>
            University of Michigan<br>
            Health Sciences and Behavioral Sciences Institutional Review Board (IRB-HSBS)<br>
            2800 Plymouth Road<br>
            Building 520, Room 1169Ann Arbor, MI 48109-2800<br>
            Telephone: 734-936-0933 or toll free (866) 936-0933<br>
            Fax: 734-936-1852<br>
            E-mail: irbhsbs@umich.edu<br><br>

            You can also contact the University of Michigan Compliance Hotline at 1-866-990-0111. You may also print this consent form to keep.
            <br><br>
            <div class=""alert alert-warning""><b>
            Do you consent to participate in this study? If you consent to participate in this study, please click “Accept and Continue”. If you select ""Decline and Exit"", you will be exited from the survey. <br>
            </b></div>
            </div>
        </div>
    ","1","","","","","","","","","","","",""
"","preload","3","8904","0.0-3.0","","656776a7904ae00d6b91d1dd","6568acf16915e4810e9b555f","11","","","","","","","","","","","","","","","true","false","[]","[]","[]","","","","","","",""
"instructions","html-button-response","4","16461","0.0-4.0","","656776a7904ae00d6b91d1dd","6568acf16915e4810e9b555f","11","","","","","","","","","","","","7557","
        <div class=""text-container"">
        <h1>Welcome to the study!</h1>
        
        <div class=""text-left"">
            <p>
                In this study, we are interested in what people can tell about spaces from Google Street View images. <br> Google Street View takes pictures of streets used for Google Earth and Google Maps. <br>You’ll see Google Street View images of different places and answer some questions about each one.<br>
            </p>
        </div>
        <img src = ""assets/img/example.png"" width = 500px, height = auto>
        <br>
    <br>
    ","0","","","","","","","","","","","",""
"instructions","html-button-response","5","19492","0.0-5.0","","656776a7904ae00d6b91d1dd","6568acf16915e4810e9b555f","11","","","","","","","","","","","","3029","
    <div class=""text-container"">
        <div class=""text-center"">
            <p>Please remember that your answers are completely anonymous.<br>Go with your gut response- there are no right or wrong answers!</p>
        </div>
    <br>
","0","","","","","","","","","","","",""
"before_SVSlide_prompt","html-button-response","6","20879","0.0-6.0","","656776a7904ae00d6b91d1dd","6568acf16915e4810e9b555f","11","","","","","","","","","","","","1387","Click [Next] to see the next neighborhood!","0","","","","","","","","","","","",""
"street view slide show","image-button-response","7","21886","0.0-7.0","","656776a7904ae00d6b91d1dd","6568acf16915e4810e9b555f","11","","","","","","","","","","","","null","stimulus/SV_PolicingMSA/NJ_979/IMG_2_979.jpg","null","","","","","","0","","","","","",""
"street view slide show","image-button-response","8","22900","0.0-8.0","","656776a7904ae00d6b91d1dd","6568acf16915e4810e9b555f","11","","","","","","","","","","","","null","stimulus/SV_PolicingMSA/NJ_979/IMG_1_979.jpg","null","","","","","","0","","","","","",""
"street view slide show","image-button-response","9","23913","0.0-9.0","","656776a7904ae00d6b91d1dd","6568acf16915e4810e9b555f","11","","","","","","","","","","","","null","stimulus/SV_PolicingMSA/NJ_979/IMG_3_979.jpg","null","","","","","","0","","","","","",""
"street view slide show","image-button-response","10","24926","0.0-10.0","","656776a7904ae00d6b91d1dd","6568acf16915e4810e9b555f","11","","","","","","","","","","","","null","stimulus/SV_PolicingMSA/NJ_979/IMG_10_979.jpg","null","","","","","","0","","","","","",""
"street view slide show","image-button-response","11","25938","0.0-11.0","","656776a7904ae00d6b91d1dd","6568acf16915e4810e9b555f","11","","","","","","","","","","","","null","stimulus/SV_PolicingMSA/NJ_979/IMG_8_979.jpg","null","","","","","","0","","","","","",""
"street view slide show","image-button-response","12","26943","0.0-12.0","","656776a7904ae00d6b91d1dd","6568acf16915e4810e9b555f","11","","","","","","","","","","","","null","stimulus/SV_PolicingMSA/NJ_979/IMG_13_979.jpg","null","","","","","","0","","","","","",""
"street view slide show","image-button-response","13","27959","0.0-13.0","","656776a7904ae00d6b91d1dd","6568acf16915e4810e9b555f","11","","","","","","","","","","","","null","stimulus/SV_PolicingMSA/NJ_979/IMG_7_979.jpg","null","","","","","","0","","","","","",""
"street view slide show","image-button-response","14","28977","0.0-14.0","","656776a7904ae00d6b91d1dd","6568acf16915e4810e9b555f","11","","","","","","","","","","","","null","stimulus/SV_PolicingMSA/NJ_979/IMG_12_979.jpg","null","","","","","","0","","","","","",""
"dot matrix survey1","survey","15","47842","0.0-15.0","","656776a7904ae00d6b91d1dd","6568acf16915e4810e9b555f","11","","","","","","","","","","","","18817","","{""P0_Q0"":null,""P0_Q1"":{""wealthy"":1,""safe"":2,""walkable"":2,""traditional"":2,""diverse"":3}}","","","","","","0","[]","","","","",""
"dot matrix survey2","survey","16","63585","0.0-16.0","","656776a7904ae00d6b91d1dd","6568acf16915e4810e9b555f","11","","","","","","","","","","","","15733","","{""P0_Q0"":null,""P0_Q1"":{""violence"":2,""crime"":2,""drug"":1,""schools"":2,""opportunities"":2}}","","","","","","0","[]","","","","",""
"dot matrix survey3","survey","17","84474","0.0-17.0","","656776a7904ae00d6b91d1dd","6568acf16915e4810e9b555f","11","","","","","","","","","","","","20880","","{""P0_Q0"":null,""P0_Q1"":{""movein"":0,""moveout"":3,""shopping"":0,""walk"":0,""park"":2,""school"":2}}","","","","","","0","[]","","","","",""
"sliderTrial","html-slider-response","18","94906","0.0-18.0","","656776a7904ae00d6b91d1dd","6568acf16915e4810e9b555f","11","","","","","","","","","","","","10430","[""SV_PolicingMSA/NJ_979/IMG_2_979.jpg"",""SV_PolicingMSA/NJ_979/IMG_1_979.jpg"",""SV_PolicingMSA/NJ_979/IMG_3_979.jpg"",""SV_PolicingMSA/NJ_979/IMG_10_979.jpg"",""SV_PolicingMSA/NJ_979/IMG_8_979.jpg"",""SV_PolicingMSA/NJ_979/IMG_13_979.jpg"",""SV_PolicingMSA/NJ_979/IMG_7_979.jpg"",""SV_PolicingMSA/NJ_979/IMG_12_979.jpg""]","5","","","","","","0","","4","[""./rc_img/cop_condGroup_11_CommunitySafety_autoscaled.png"",""./rc_img/cop_condGroup_11_SafeStreets_autoscaled.png""]","5","",""
"sliderTrial_attention","html-slider-response","19","104920","0.0-19.0","","656776a7904ae00d6b91d1dd","6568acf16915e4810e9b555f","11","","","","","","","","","","","","null","[""SV_PolicingMSA/NJ_979/IMG_2_979.jpg"",""SV_PolicingMSA/NJ_979/IMG_1_979.jpg"",""SV_PolicingMSA/NJ_979/IMG_3_979.jpg"",""SV_PolicingMSA/NJ_979/IMG_10_979.jpg"",""SV_PolicingMSA/NJ_979/IMG_8_979.jpg"",""SV_PolicingMSA/NJ_979/IMG_13_979.jpg"",""SV_PolicingMSA/NJ_979/IMG_7_979.jpg"",""SV_PolicingMSA/NJ_979/IMG_12_979.jpg""]","null","","","","","","0","","4","[""./assets/img/attnchk.png"",""./assets/img/attnchk.png""]","","true",""
"sliderTrial","html-slider-response","20","112403","0.0-20.0","","656776a7904ae00d6b91d1dd","6568acf16915e4810e9b555f","11","","","","","","","","","","","","7480","[""SV_PolicingMSA/NJ_979/IMG_2_979.jpg"",""SV_PolicingMSA/NJ_979/IMG_1_979.jpg"",""SV_PolicingMSA/NJ_979/IMG_3_979.jpg"",""SV_PolicingMSA/NJ_979/IMG_10_979.jpg"",""SV_PolicingMSA/NJ_979/IMG_8_979.jpg"",""SV_PolicingMSA/NJ_979/IMG_13_979.jpg"",""SV_PolicingMSA/NJ_979/IMG_7_979.jpg"",""SV_PolicingMSA/NJ_979/IMG_12_979.jpg""]","5","","","","","","0","","4","[""./rc_img/cop_condGroup_2_CommunitySafety_autoscaled.png"",""./rc_img/cop_condGroup_2_SafeStreets_autoscaled.png""]","5","",""
"sliderTrial","html-slider-response","21","117933","0.0-21.0","","656776a7904ae00d6b91d1dd","6568acf16915e4810e9b555f","11","","","","","","","","","","","","5529","[""SV_PolicingMSA/NJ_979/IMG_2_979.jpg"",""SV_PolicingMSA/NJ_979/IMG_1_979.jpg"",""SV_PolicingMSA/NJ_979/IMG_3_979.jpg"",""SV_PolicingMSA/NJ_979/IMG_10_979.jpg"",""SV_PolicingMSA/NJ_979/IMG_8_979.jpg"",""SV_PolicingMSA/NJ_979/IMG_13_979.jpg"",""SV_PolicingMSA/NJ_979/IMG_7_979.jpg"",""SV_PolicingMSA/NJ_979/IMG_12_979.jpg""]","5","","","","","","0","","4","[""./rc_img/cop_condGroup_17_CommunitySafety_autoscaled.png"",""./rc_img/cop_condGroup_17_SafeStreets_autoscaled.png""]","5","",""
"sliderTrial","html-slider-response","22","121179","0.0-22.0","","656776a7904ae00d6b91d1dd","6568acf16915e4810e9b555f","11","","","","","","","","","","","","3244","[""SV_PolicingMSA/NJ_979/IMG_2_979.jpg"",""SV_PolicingMSA/NJ_979/IMG_1_979.jpg"",""SV_PolicingMSA/NJ_979/IMG_3_979.jpg"",""SV_PolicingMSA/NJ_979/IMG_10_979.jpg"",""SV_PolicingMSA/NJ_979/IMG_8_979.jpg"",""SV_PolicingMSA/NJ_979/IMG_13_979.jpg"",""SV_PolicingMSA/NJ_979/IMG_7_979.jpg"",""SV_PolicingMSA/NJ_979/IMG_12_979.jpg""]","3","","","","","","0","","4","[""./rc_img/cop_condGroup_9_SafeStreets_autoscaled.png"",""./rc_img/cop_condGroup_9_CommunitySafety_autoscaled.png""]","5","",""
"sliderTrial","html-slider-response","23","126200","0.0-23.0","","656776a7904ae00d6b91d1dd","6568acf16915e4810e9b555f","11","","","","","","","","","","","","5019","[""SV_PolicingMSA/NJ_979/IMG_2_979.jpg"",""SV_PolicingMSA/NJ_979/IMG_1_979.jpg"",""SV_PolicingMSA/NJ_979/IMG_3_979.jpg"",""SV_PolicingMSA/NJ_979/IMG_10_979.jpg"",""SV_PolicingMSA/NJ_979/IMG_8_979.jpg"",""SV_PolicingMSA/NJ_979/IMG_13_979.jpg"",""SV_PolicingMSA/NJ_979/IMG_7_979.jpg"",""SV_PolicingMSA/NJ_979/IMG_12_979.jpg""]","3","","","","","","0","","4","[""./rc_img/cop_condGroup_4_SafeStreets_autoscaled.png"",""./rc_img/cop_condGroup_4_CommunitySafety_autoscaled.png""]","5","",""
"before_SVSlide_prompt","html-button-response","24","127809","0.0-24.0","","656776a7904ae00d6b91d1dd","6568acf16915e4810e9b555f","11","","","","","","","","","","","","1609","Click [Next] to see the next neighborhood!","0","","","","","","","","","","","",""
"street view slide show","image-button-response","25","128820","0.0-25.0","","656776a7904ae00d6b91d1dd","6568acf16915e4810e9b555f","11","","","","","","","","","","","","null","stimulus/SV_PolicingMSA/NJ_1052/IMG_10_1052.jpg","null","","","","","","3","","","","","",""
"street view slide show","image-button-response","26","129830","0.0-26.0","","656776a7904ae00d6b91d1dd","6568acf16915e4810e9b555f","11","","","","","","","","","","","","null","stimulus/SV_PolicingMSA/NJ_1052/IMG_13_1052.jpg","null","","","","","","3","","","","","",""
"street view slide show","image-button-response","27","130844","0.0-27.0","","656776a7904ae00d6b91d1dd","6568acf16915e4810e9b555f","11","","","","","","","","","","","","null","stimulus/SV_PolicingMSA/NJ_1052/IMG_5_1052.jpg","null","","","","","","3","","","","","",""
"street view slide show","image-button-response","28","131850","0.0-28.0","","656776a7904ae00d6b91d1dd","6568acf16915e4810e9b555f","11","","","","","","","","","","","","null","stimulus/SV_PolicingMSA/NJ_1052/IMG_11_1052.jpg","null","","","","","","3","","","","","",""
"street view slide show","image-button-response","29","132865","0.0-29.0","","656776a7904ae00d6b91d1dd","6568acf16915e4810e9b555f","11","","","","","","","","","","","","null","stimulus/SV_PolicingMSA/NJ_1052/IMG_12_1052.jpg","null","","","","","","3","","","","","",""
"street view slide show","image-button-response","30","133871","0.0-30.0","","656776a7904ae00d6b91d1dd","6568acf16915e4810e9b555f","11","","","","","","","","","","","","null","stimulus/SV_PolicingMSA/NJ_1052/IMG_4_1052.jpg","null","","","","","","3","","","","","",""
"street view slide show","image-button-response","31","134874","0.0-31.0","","656776a7904ae00d6b91d1dd","6568acf16915e4810e9b555f","11","","","","","","","","","","","","null","stimulus/SV_PolicingMSA/NJ_1052/IMG_3_1052.jpg","null","","","","","","3","","","","","",""
"street view slide show","image-button-response","32","135884","0.0-32.0","","656776a7904ae00d6b91d1dd","6568acf16915e4810e9b555f","11","","","","","","","","","","","","null","stimulus/SV_PolicingMSA/NJ_1052/IMG_0_1052.jpg","null","","","","","","3","","","","","",""
"dot matrix survey1","survey","33","146311","0.0-33.0","","656776a7904ae00d6b91d1dd","6568acf16915e4810e9b555f","11","","","","","","","","","","","","10416","","{""P0_Q0"":null,""P0_Q1"":{""wealthy"":3,""safe"":3,""walkable"":3,""traditional"":3,""diverse"":2}}","","","","","","3","[]","","","","",""
"dot matrix survey2","survey","34","154690","0.0-34.0","","656776a7904ae00d6b91d1dd","6568acf16915e4810e9b555f","11","","","","","","","","","","","","8374","","{""P0_Q0"":null,""P0_Q1"":{""violence"":1,""crime"":1,""drug"":1,""schools"":3,""opportunities"":3}}","","","","","","3","[]","","","","",""
"dot matrix survey3","survey","35","168848","0.0-35.0","","656776a7904ae00d6b91d1dd","6568acf16915e4810e9b555f","11","","","","","","","","","","","","14151","","{""P0_Q0"":null,""P0_Q1"":{""movein"":3,""moveout"":1,""shopping"":3,""walk"":2,""park"":3,""school"":3}}","","","","","","3","[]","","","","",""
"sliderTrial","html-slider-response","36","174706","0.0-36.0","","656776a7904ae00d6b91d1dd","6568acf16915e4810e9b555f","11","","","","","","","","","","","","5856","[""SV_PolicingMSA/NJ_1052/IMG_10_1052.jpg"",""SV_PolicingMSA/NJ_1052/IMG_13_1052.jpg"",""SV_PolicingMSA/NJ_1052/IMG_5_1052.jpg"",""SV_PolicingMSA/NJ_1052/IMG_11_1052.jpg"",""SV_PolicingMSA/NJ_1052/IMG_12_1052.jpg"",""SV_PolicingMSA/NJ_1052/IMG_4_1052.jpg"",""SV_PolicingMSA/NJ_1052/IMG_3_1052.jpg"",""SV_PolicingMSA/NJ_1052/IMG_0_1052.jpg""]","5","","","","","","3","","4","[""./rc_img/cop_condGroup_20_SafeStreets_autoscaled.png"",""./rc_img/cop_condGroup_20_CommunitySafety_autoscaled.png""]","3","",""
"sliderTrial","html-slider-response","37","177663","0.0-37.0","","656776a7904ae00d6b91d1dd","6568acf16915e4810e9b555f","11","","","","","","","","","","","","2956","[""SV_PolicingMSA/NJ_1052/IMG_10_1052.jpg"",""SV_PolicingMSA/NJ_1052/IMG_13_1052.jpg"",""SV_PolicingMSA/NJ_1052/IMG_5_1052.jpg"",""SV_PolicingMSA/NJ_1052/IMG_11_1052.jpg"",""SV_PolicingMSA/NJ_1052/IMG_12_1052.jpg"",""SV_PolicingMSA/NJ_1052/IMG_4_1052.jpg"",""SV_PolicingMSA/NJ_1052/IMG_3_1052.jpg"",""SV_PolicingMSA/NJ_1052/IMG_0_1052.jpg""]","5","","","","","","3","","4","[""./rc_img/cop_condGroup_1_SafeStreets_autoscaled.png"",""./rc_img/cop_condGroup_1_CommunitySafety_autoscaled.png""]","3","",""
"sliderTrial","html-slider-response","38","180341","0.0-38.0","","656776a7904ae00d6b91d1dd","6568acf16915e4810e9b555f","11","","","","","","","","","","","","2676","[""SV_PolicingMSA/NJ_1052/IMG_10_1052.jpg"",""SV_PolicingMSA/NJ_1052/IMG_13_1052.jpg"",""SV_PolicingMSA/NJ_1052/IMG_5_1052.jpg"",""SV_PolicingMSA/NJ_1052/IMG_11_1052.jpg"",""SV_PolicingMSA/NJ_1052/IMG_12_1052.jpg"",""SV_PolicingMSA/NJ_1052/IMG_4_1052.jpg"",""SV_PolicingMSA/NJ_1052/IMG_3_1052.jpg"",""SV_PolicingMSA/NJ_1052/IMG_0_1052.jpg""]","3","","","","","","3","","4","[""./rc_img/cop_condGroup_19_CommunitySafety_autoscaled.png"",""./rc_img/cop_condGroup_19_SafeStreets_autoscaled.png""]","3","",""
"sliderTrial","html-slider-response","39","183861","0.0-39.0","","656776a7904ae00d6b91d1dd","6568acf16915e4810e9b555f","11","","","","","","","","","","","","3519","[""SV_PolicingMSA/NJ_1052/IMG_10_1052.jpg"",""SV_PolicingMSA/NJ_1052/IMG_13_1052.jpg"",""SV_PolicingMSA/NJ_1052/IMG_5_1052.jpg"",""SV_PolicingMSA/NJ_1052/IMG_11_1052.jpg"",""SV_PolicingMSA/NJ_1052/IMG_12_1052.jpg"",""SV_PolicingMSA/NJ_1052/IMG_4_1052.jpg"",""SV_PolicingMSA/NJ_1052/IMG_3_1052.jpg"",""SV_PolicingMSA/NJ_1052/IMG_0_1052.jpg""]","5","","","","","","3","","4","[""./rc_img/cop_condGroup_12_SafeStreets_autoscaled.png"",""./rc_img/cop_condGroup_12_CommunitySafety_autoscaled.png""]","3","",""
"sliderTrial","html-slider-response","40","186347","0.0-40.0","","656776a7904ae00d6b91d1dd","6568acf16915e4810e9b555f","11","","","","","","","","","","","","2484","[""SV_PolicingMSA/NJ_1052/IMG_10_1052.jpg"",""SV_PolicingMSA/NJ_1052/IMG_13_1052.jpg"",""SV_PolicingMSA/NJ_1052/IMG_5_1052.jpg"",""SV_PolicingMSA/NJ_1052/IMG_11_1052.jpg"",""SV_PolicingMSA/NJ_1052/IMG_12_1052.jpg"",""SV_PolicingMSA/NJ_1052/IMG_4_1052.jpg"",""SV_PolicingMSA/NJ_1052/IMG_3_1052.jpg"",""SV_PolicingMSA/NJ_1052/IMG_0_1052.jpg""]","3","","","","","","3","","4","[""./rc_img/cop_condGroup_3_CommunitySafety_autoscaled.png"",""./rc_img/cop_condGroup_3_SafeStreets_autoscaled.png""]","3","",""
"before_SVSlide_prompt","html-button-response","41","188039","0.0-41.0","","656776a7904ae00d6b91d1dd","6568acf16915e4810e9b555f","11","","","","","","","","","","","","1691","Click [Next] to see the next neighborhood!","0","","","","","","","","","","","",""
"street view slide show","image-button-response","42","189048","0.0-42.0","","656776a7904ae00d6b91d1dd","6568acf16915e4810e9b555f","11","","","","","","","","","","","","null","stimulus/SV_PolicingMSA/NY_5291/IMG_14_5291.jpg","null","","","","","","4","","","","","",""
"street view slide show","image-button-response","43","190050","0.0-43.0","","656776a7904ae00d6b91d1dd","6568acf16915e4810e9b555f","11","","","","","","","","","","","","null","stimulus/SV_PolicingMSA/NY_5291/IMG_6_5291.jpg","null","","","","","","4","","","","","",""
"street view slide show","image-button-response","44","191058","0.0-44.0","","656776a7904ae00d6b91d1dd","6568acf16915e4810e9b555f","11","","","","","","","","","","","","null","stimulus/SV_PolicingMSA/NY_5291/IMG_3_5291.jpg","null","","","","","","4","","","","","",""
"street view slide show","image-button-response","45","192071","0.0-45.0","","656776a7904ae00d6b91d1dd","6568acf16915e4810e9b555f","11","","","","","","","","","","","","null","stimulus/SV_PolicingMSA/NY_5291/IMG_5_5291.jpg","null","","","","","","4","","","","","",""
"street view slide show","image-button-response","46","193089","0.0-46.0","","656776a7904ae00d6b91d1dd","6568acf16915e4810e9b555f","11","","","","","","","","","","","","null","stimulus/SV_PolicingMSA/NY_5291/IMG_8_5291.jpg","null","","","","","","4","","","","","",""
"street view slide show","image-button-response","47","194103","0.0-47.0","","656776a7904ae00d6b91d1dd","6568acf16915e4810e9b555f","11","","","","","","","","","","","","null","stimulus/SV_PolicingMSA/NY_5291/IMG_9_5291.jpg","null","","","","","","4","","","","","",""
"street view slide show","image-button-response","48","195120","0.0-48.0","","656776a7904ae00d6b91d1dd","6568acf16915e4810e9b555f","11","","","","","","","","","","","","null","stimulus/SV_PolicingMSA/NY_5291/IMG_4_5291.jpg","null","","","","","","4","","","","","",""
"street view slide show","image-button-response","49","196126","0.0-49.0","","656776a7904ae00d6b91d1dd","6568acf16915e4810e9b555f","11","","","","","","","","","","","","null","stimulus/SV_PolicingMSA/NY_5291/IMG_2_5291.jpg","null","","","","","","4","","","","","",""
"dot matrix survey1","survey","50","210666","0.0-50.0","","656776a7904ae00d6b91d1dd","6568acf16915e4810e9b555f","11","","","","","","","","","","","","14528","","{""P0_Q0"":null,""P0_Q1"":{""wealthy"":1,""safe"":1,""walkable"":1,""traditional"":1,""diverse"":2}}","","","","","","4","[]","","","","",""
"dot matrix survey2","survey","51","219138","0.0-51.0","","656776a7904ae00d6b91d1dd","6568acf16915e4810e9b555f","11","","","","","","","","","","","","8467","","{""P0_Q0"":null,""P0_Q1"":{""violence"":3,""crime"":3,""drug"":3,""schools"":2,""opportunities"":2}}","","","","","","4","[]","","","","",""
"dot matrix survey3","survey","52","231930","0.0-52.0","","656776a7904ae00d6b91d1dd","6568acf16915e4810e9b555f","11","","","","","","","","","","","","12786","","{""P0_Q0"":null,""P0_Q1"":{""movein"":0,""moveout"":4,""shopping"":1,""walk"":0,""park"":2,""school"":1}}","","","","","","4","[]","","","","",""
"sliderTrial","html-slider-response","53","236711","0.0-53.0","","656776a7904ae00d6b91d1dd","6568acf16915e4810e9b555f","11","","","","","","","","","","","","4779","[""SV_PolicingMSA/NY_5291/IMG_14_5291.jpg"",""SV_PolicingMSA/NY_5291/IMG_6_5291.jpg"",""SV_PolicingMSA/NY_5291/IMG_3_5291.jpg"",""SV_PolicingMSA/NY_5291/IMG_5_5291.jpg"",""SV_PolicingMSA/NY_5291/IMG_8_5291.jpg"",""SV_PolicingMSA/NY_5291/IMG_9_5291.jpg"",""SV_PolicingMSA/NY_5291/IMG_4_5291.jpg"",""SV_PolicingMSA/NY_5291/IMG_2_5291.jpg""]","3","","","","","","4","","4","[""./rc_img/cop_condGroup_8_SafeStreets_autoscaled.png"",""./rc_img/cop_condGroup_8_CommunitySafety_autoscaled.png""]","5","",""
"sliderTrial","html-slider-response","54","239177","0.0-54.0","","656776a7904ae00d6b91d1dd","6568acf16915e4810e9b555f","11","","","","","","","","","","","","2464","[""SV_PolicingMSA/NY_5291/IMG_14_5291.jpg"",""SV_PolicingMSA/NY_5291/IMG_6_5291.jpg"",""SV_PolicingMSA/NY_5291/IMG_3_5291.jpg"",""SV_PolicingMSA/NY_5291/IMG_5_5291.jpg"",""SV_PolicingMSA/NY_5291/IMG_8_5291.jpg"",""SV_PolicingMSA/NY_5291/IMG_9_5291.jpg"",""SV_PolicingMSA/NY_5291/IMG_4_5291.jpg"",""SV_PolicingMSA/NY_5291/IMG_2_5291.jpg""]","3","","","","","","4","","4","[""./rc_img/cop_condGroup_5_SafeStreets_autoscaled.png"",""./rc_img/cop_condGroup_5_CommunitySafety_autoscaled.png""]","5","",""
"sliderTrial","html-slider-response","55","241251","0.0-55.0","","656776a7904ae00d6b91d1dd","6568acf16915e4810e9b555f","11","","","","","","","","","","","","2072","[""SV_PolicingMSA/NY_5291/IMG_14_5291.jpg"",""SV_PolicingMSA/NY_5291/IMG_6_5291.jpg"",""SV_PolicingMSA/NY_5291/IMG_3_5291.jpg"",""SV_PolicingMSA/NY_5291/IMG_5_5291.jpg"",""SV_PolicingMSA/NY_5291/IMG_8_5291.jpg"",""SV_PolicingMSA/NY_5291/IMG_9_5291.jpg"",""SV_PolicingMSA/NY_5291/IMG_4_5291.jpg"",""SV_PolicingMSA/NY_5291/IMG_2_5291.jpg""]","5","","","","","","4","","4","[""./rc_img/cop_condGroup_14_CommunitySafety_autoscaled.png"",""./rc_img/cop_condGroup_14_SafeStreets_autoscaled.png""]","5","",""
"sliderTrial","html-slider-response","56","245310","0.0-56.0","","656776a7904ae00d6b91d1dd","6568acf16915e4810e9b555f","11","","","","","","","","","","","","4058","[""SV_PolicingMSA/NY_5291/IMG_14_5291.jpg"",""SV_PolicingMSA/NY_5291/IMG_6_5291.jpg"",""SV_PolicingMSA/NY_5291/IMG_3_5291.jpg"",""SV_PolicingMSA/NY_5291/IMG_5_5291.jpg"",""SV_PolicingMSA/NY_5291/IMG_8_5291.jpg"",""SV_PolicingMSA/NY_5291/IMG_9_5291.jpg"",""SV_PolicingMSA/NY_5291/IMG_4_5291.jpg"",""SV_PolicingMSA/NY_5291/IMG_2_5291.jpg""]","5","","","","","","4","","4","[""./rc_img/cop_condGroup_13_CommunitySafety_autoscaled.png"",""./rc_img/cop_condGroup_13_SafeStreets_autoscaled.png""]","5","",""
"sliderTrial","html-slider-response","57","247647","0.0-57.0","","656776a7904ae00d6b91d1dd","6568acf16915e4810e9b555f","11","","","","","","","","","","","","2335","[""SV_PolicingMSA/NY_5291/IMG_14_5291.jpg"",""SV_PolicingMSA/NY_5291/IMG_6_5291.jpg"",""SV_PolicingMSA/NY_5291/IMG_3_5291.jpg"",""SV_PolicingMSA/NY_5291/IMG_5_5291.jpg"",""SV_PolicingMSA/NY_5291/IMG_8_5291.jpg"",""SV_PolicingMSA/NY_5291/IMG_9_5291.jpg"",""SV_PolicingMSA/NY_5291/IMG_4_5291.jpg"",""SV_PolicingMSA/NY_5291/IMG_2_5291.jpg""]","3","","","","","","4","","4","[""./rc_img/cop_condGroup_16_SafeStreets_autoscaled.png"",""./rc_img/cop_condGroup_16_CommunitySafety_autoscaled.png""]","5","",""
"before_SVSlide_prompt","html-button-response","58","250399","0.0-58.0","","656776a7904ae00d6b91d1dd","6568acf16915e4810e9b555f","11","","","","","","","","","","","","2751","Click [Next] to see the next neighborhood!","0","","","","","","","","","","","",""
"street view slide show","image-button-response","59","251411","0.0-59.0","","656776a7904ae00d6b91d1dd","6568acf16915e4810e9b555f","11","","","","","","","","","","","","null","stimulus/SV_PolicingMSA/NY_5249/IMG_1_5249.jpg","null","","","","","","1","","","","","",""
"street view slide show","image-button-response","60","252422","0.0-60.0","","656776a7904ae00d6b91d1dd","6568acf16915e4810e9b555f","11","","","","","","","","","","","","null","stimulus/SV_PolicingMSA/NY_5249/IMG_7_5249.jpg","null","","","","","","1","","","","","",""
"street view slide show","image-button-response","61","253424","0.0-61.0","","656776a7904ae00d6b91d1dd","6568acf16915e4810e9b555f","11","","","","","","","","","","","","null","stimulus/SV_PolicingMSA/NY_5249/IMG_8_5249.jpg","null","","","","","","1","","","","","",""
"street view slide show","image-button-response","62","254439","0.0-62.0","","656776a7904ae00d6b91d1dd","6568acf16915e4810e9b555f","11","","","","","","","","","","","","null","stimulus/SV_PolicingMSA/NY_5249/IMG_11_5249.jpg","null","","","","","","1","","","","","",""
"street view slide show","image-button-response","63","255445","0.0-63.0","","656776a7904ae00d6b91d1dd","6568acf16915e4810e9b555f","11","","","","","","","","","","","","null","stimulus/SV_PolicingMSA/NY_5249/IMG_10_5249.jpg","null","","","","","","1","","","","","",""
"street view slide show","image-button-response","64","256458","0.0-64.0","","656776a7904ae00d6b91d1dd","6568acf16915e4810e9b555f","11","","","","","","","","","","","","null","stimulus/SV_PolicingMSA/NY_5249/IMG_0_5249.jpg","null","","","","","","1","","","","","",""
"street view slide show","image-button-response","65","257462","0.0-65.0","","656776a7904ae00d6b91d1dd","6568acf16915e4810e9b555f","11","","","","","","","","","","","","null","stimulus/SV_PolicingMSA/NY_5249/IMG_4_5249.jpg","null","","","","","","1","","","","","",""
"street view slide show","image-button-response","66","258476","0.0-66.0","","656776a7904ae00d6b91d1dd","6568acf16915e4810e9b555f","11","","","","","","","","","","","","null","stimulus/SV_PolicingMSA/NY_5249/IMG_9_5249.jpg","null","","","","","","1","","","","","",""
"dot matrix survey1","survey","67","267635","0.0-67.0","","656776a7904ae00d6b91d1dd","6568acf16915e4810e9b555f","11","","","","","","","","","","","","9150","","{""P0_Q0"":null,""P0_Q1"":{""wealthy"":2,""safe"":2,""walkable"":2,""traditional"":2,""diverse"":3}}","","","","","","1","[]","","","","",""
"dot matrix survey2","survey","68","274552","0.0-68.0","","656776a7904ae00d6b91d1dd","6568acf16915e4810e9b555f","11","","","","","","","","","","","","6910","","{""P0_Q0"":null,""P0_Q1"":{""violence"":2,""crime"":2,""drug"":2,""schools"":2,""opportunities"":2}}","","","","","","1","[]","","","","",""
"dot matrix survey3","survey","69","289822","0.0-69.0","","656776a7904ae00d6b91d1dd","6568acf16915e4810e9b555f","11","","","","","","","","","","","","15268","","{""P0_Q0"":null,""P0_Q1"":{""movein"":2,""moveout"":1,""shopping"":2,""walk"":1,""park"":2,""school"":2}}","","","","","","1","[]","","","","",""
"sliderTrial","html-slider-response","70","294853","0.0-70.0","","656776a7904ae00d6b91d1dd","6568acf16915e4810e9b555f","11","","","","","","","","","","","","5029","[""SV_PolicingMSA/NY_5249/IMG_1_5249.jpg"",""SV_PolicingMSA/NY_5249/IMG_7_5249.jpg"",""SV_PolicingMSA/NY_5249/IMG_8_5249.jpg"",""SV_PolicingMSA/NY_5249/IMG_11_5249.jpg"",""SV_PolicingMSA/NY_5249/IMG_10_5249.jpg"",""SV_PolicingMSA/NY_5249/IMG_0_5249.jpg"",""SV_PolicingMSA/NY_5249/IMG_4_5249.jpg"",""SV_PolicingMSA/NY_5249/IMG_9_5249.jpg""]","5","","","","","","1","","4","[""./rc_img/cop_condGroup_20_SafeStreets_autoscaled.png"",""./rc_img/cop_condGroup_20_CommunitySafety_autoscaled.png""]","3","",""
"sliderTrial","html-slider-response","71","297241","0.0-71.0","","656776a7904ae00d6b91d1dd","6568acf16915e4810e9b555f","11","","","","","","","","","","","","2387","[""SV_PolicingMSA/NY_5249/IMG_1_5249.jpg"",""SV_PolicingMSA/NY_5249/IMG_7_5249.jpg"",""SV_PolicingMSA/NY_5249/IMG_8_5249.jpg"",""SV_PolicingMSA/NY_5249/IMG_11_5249.jpg"",""SV_PolicingMSA/NY_5249/IMG_10_5249.jpg"",""SV_PolicingMSA/NY_5249/IMG_0_5249.jpg"",""SV_PolicingMSA/NY_5249/IMG_4_5249.jpg"",""SV_PolicingMSA/NY_5249/IMG_9_5249.jpg""]","5","","","","","","1","","4","[""./rc_img/cop_condGroup_1_SafeStreets_autoscaled.png"",""./rc_img/cop_condGroup_1_CommunitySafety_autoscaled.png""]","3","",""
"sliderTrial","html-slider-response","72","300541","0.0-72.0","","656776a7904ae00d6b91d1dd","6568acf16915e4810e9b555f","11","","","","","","","","","","","","3298","[""SV_PolicingMSA/NY_5249/IMG_1_5249.jpg"",""SV_PolicingMSA/NY_5249/IMG_7_5249.jpg"",""SV_PolicingMSA/NY_5249/IMG_8_5249.jpg"",""SV_PolicingMSA/NY_5249/IMG_11_5249.jpg"",""SV_PolicingMSA/NY_5249/IMG_10_5249.jpg"",""SV_PolicingMSA/NY_5249/IMG_0_5249.jpg"",""SV_PolicingMSA/NY_5249/IMG_4_5249.jpg"",""SV_PolicingMSA/NY_5249/IMG_9_5249.jpg""]","3","","","","","","1","","4","[""./rc_img/cop_condGroup_19_CommunitySafety_autoscaled.png"",""./rc_img/cop_condGroup_19_SafeStreets_autoscaled.png""]","3","",""
"sliderTrial_attention","html-slider-response","73","310549","0.0-73.0","","656776a7904ae00d6b91d1dd","6568acf16915e4810e9b555f","11","","","","","","","","","","","","null","[""SV_PolicingMSA/NY_5249/IMG_1_5249.jpg"",""SV_PolicingMSA/NY_5249/IMG_7_5249.jpg"",""SV_PolicingMSA/NY_5249/IMG_8_5249.jpg"",""SV_PolicingMSA/NY_5249/IMG_11_5249.jpg"",""SV_PolicingMSA/NY_5249/IMG_10_5249.jpg"",""SV_PolicingMSA/NY_5249/IMG_0_5249.jpg"",""SV_PolicingMSA/NY_5249/IMG_4_5249.jpg"",""SV_PolicingMSA/NY_5249/IMG_9_5249.jpg""]","null","","","","","","1","","4","[""./assets/img/attnchk.png"",""./assets/img/attnchk.png""]","","true",""
"sliderTrial","html-slider-response","74","313991","0.0-74.0","","656776a7904ae00d6b91d1dd","6568acf16915e4810e9b555f","11","","","","","","","","","","","","3439","[""SV_PolicingMSA/NY_5249/IMG_1_5249.jpg"",""SV_PolicingMSA/NY_5249/IMG_7_5249.jpg"",""SV_PolicingMSA/NY_5249/IMG_8_5249.jpg"",""SV_PolicingMSA/NY_5249/IMG_11_5249.jpg"",""SV_PolicingMSA/NY_5249/IMG_10_5249.jpg"",""SV_PolicingMSA/NY_5249/IMG_0_5249.jpg"",""SV_PolicingMSA/NY_5249/IMG_4_5249.jpg"",""SV_PolicingMSA/NY_5249/IMG_9_5249.jpg""]","5","","","","","","1","","4","[""./rc_img/cop_condGroup_12_SafeStreets_autoscaled.png"",""./rc_img/cop_condGroup_12_CommunitySafety_autoscaled.png""]","3","",""
"sliderTrial","html-slider-response","75","316742","0.0-75.0","","656776a7904ae00d6b91d1dd","6568acf16915e4810e9b555f","11","","","","","","","","","","","","2750","[""SV_PolicingMSA/NY_5249/IMG_1_5249.jpg"",""SV_PolicingMSA/NY_5249/IMG_7_5249.jpg"",""SV_PolicingMSA/NY_5249/IMG_8_5249.jpg"",""SV_PolicingMSA/NY_5249/IMG_11_5249.jpg"",""SV_PolicingMSA/NY_5249/IMG_10_5249.jpg"",""SV_PolicingMSA/NY_5249/IMG_0_5249.jpg"",""SV_PolicingMSA/NY_5249/IMG_4_5249.jpg"",""SV_PolicingMSA/NY_5249/IMG_9_5249.jpg""]","3","","","","","","1","","4","[""./rc_img/cop_condGroup_3_CommunitySafety_autoscaled.png"",""./rc_img/cop_condGroup_3_SafeStreets_autoscaled.png""]","3","",""
"half-way","html-button-response","76","332499","0.0-76.0","","656776a7904ae00d6b91d1dd","6568acf16915e4810e9b555f","11","","","","","","","","","","","","null","
    <h3>You are now half way through the study.</h3>
    <p>Please take a quick, 15-second break before you continue.</p>
    <img src='assets/img/countdown-15.gif'>
    <p>The study will automatically advance forward after the countdown is complete. <br> However, you may click ""Next"" to advance forward now if you wish.</p>
    ","null","","","","","","","","","","","",""
"before_SVSlide_prompt","html-button-response","77","334283","0.0-77.0","","656776a7904ae00d6b91d1dd","6568acf16915e4810e9b555f","11","","","","","","","","","","","","1783","Click [Next] to see the next neighborhood!","0","","","","","","","","","","","",""
"street view slide show","image-button-response","78","335296","0.0-78.0","","656776a7904ae00d6b91d1dd","6568acf16915e4810e9b555f","11","","","","","","","","","","","","null","stimulus/SV_PolicingMSA/NY_2726/IMG_11_2726.jpg","null","","","","","","2","","","","","",""
"street view slide show","image-button-response","79","336299","0.0-79.0","","656776a7904ae00d6b91d1dd","6568acf16915e4810e9b555f","11","","","","","","","","","","","","null","stimulus/SV_PolicingMSA/NY_2726/IMG_14_2726.jpg","null","","","","","","2","","","","","",""
"street view slide show","image-button-response","80","337312","0.0-80.0","","656776a7904ae00d6b91d1dd","6568acf16915e4810e9b555f","11","","","","","","","","","","","","null","stimulus/SV_PolicingMSA/NY_2726/IMG_3_2726.jpg","null","","","","","","2","","","","","",""
"street view slide show","image-button-response","81","338325","0.0-81.0","","656776a7904ae00d6b91d1dd","6568acf16915e4810e9b555f","11","","","","","","","","","","","","null","stimulus/SV_PolicingMSA/NY_2726/IMG_1_2726.jpg","null","","","","","","2","","","","","",""
"street view slide show","image-button-response","82","339334","0.0-82.0","","656776a7904ae00d6b91d1dd","6568acf16915e4810e9b555f","11","","","","","","","","","","","","null","stimulus/SV_PolicingMSA/NY_2726/IMG_10_2726.jpg","null","","","","","","2","","","","","",""
"street view slide show","image-button-response","83","340344","0.0-83.0","","656776a7904ae00d6b91d1dd","6568acf16915e4810e9b555f","11","","","","","","","","","","","","null","stimulus/SV_PolicingMSA/NY_2726/IMG_12_2726.jpg","null","","","","","","2","","","","","",""
"street view slide show","image-button-response","84","341349","0.0-84.0","","656776a7904ae00d6b91d1dd","6568acf16915e4810e9b555f","11","","","","","","","","","","","","null","stimulus/SV_PolicingMSA/NY_2726/IMG_7_2726.jpg","null","","","","","","2","","","","","",""
"street view slide show","image-button-response","85","342364","0.0-85.0","","656776a7904ae00d6b91d1dd","6568acf16915e4810e9b555f","11","","","","","","","","","","","","null","stimulus/SV_PolicingMSA/NY_2726/IMG_2_2726.jpg","null","","","","","","2","","","","","",""
"dot matrix survey1","survey","86","352067","0.0-86.0","","656776a7904ae00d6b91d1dd","6568acf16915e4810e9b555f","11","","","","","","","","","","","","9693","","{""P0_Q0"":null,""P0_Q1"":{""wealthy"":1,""safe"":2,""walkable"":2,""traditional"":2,""diverse"":3}}","","","","","","2","[]","","","","",""
"dot matrix survey2","survey","87","359462","0.0-87.0","","656776a7904ae00d6b91d1dd","6568acf16915e4810e9b555f","11","","","","","","","","","","","","7392","","{""P0_Q0"":null,""P0_Q1"":{""violence"":2,""crime"":2,""drug"":2,""schools"":2,""opportunities"":2}}","","","","","","2","[]","","","","",""
"dot matrix survey3","survey","88","370223","0.0-88.0","","656776a7904ae00d6b91d1dd","6568acf16915e4810e9b555f","11","","","","","","","","","","","","10755","","{""P0_Q0"":null,""P0_Q1"":{""movein"":1,""moveout"":3,""shopping"":2,""walk"":0,""park"":2,""school"":2}}","","","","","","2","[]","","","","",""
"sliderTrial","html-slider-response","89","374215","0.0-89.0","","656776a7904ae00d6b91d1dd","6568acf16915e4810e9b555f","11","","","","","","","","","","","","3990","[""SV_PolicingMSA/NY_2726/IMG_11_2726.jpg"",""SV_PolicingMSA/NY_2726/IMG_14_2726.jpg"",""SV_PolicingMSA/NY_2726/IMG_3_2726.jpg"",""SV_PolicingMSA/NY_2726/IMG_1_2726.jpg"",""SV_PolicingMSA/NY_2726/IMG_10_2726.jpg"",""SV_PolicingMSA/NY_2726/IMG_12_2726.jpg"",""SV_PolicingMSA/NY_2726/IMG_7_2726.jpg"",""SV_PolicingMSA/NY_2726/IMG_2_2726.jpg""]","3","","","","","","2","","4","[""./rc_img/cop_condGroup_8_SafeStreets_autoscaled.png"",""./rc_img/cop_condGroup_8_CommunitySafety_autoscaled.png""]","5","",""
"sliderTrial","html-slider-response","90","376721","0.0-90.0","","656776a7904ae00d6b91d1dd","6568acf16915e4810e9b555f","11","","","","","","","","","","","","2505","[""SV_PolicingMSA/NY_2726/IMG_11_2726.jpg"",""SV_PolicingMSA/NY_2726/IMG_14_2726.jpg"",""SV_PolicingMSA/NY_2726/IMG_3_2726.jpg"",""SV_PolicingMSA/NY_2726/IMG_1_2726.jpg"",""SV_PolicingMSA/NY_2726/IMG_10_2726.jpg"",""SV_PolicingMSA/NY_2726/IMG_12_2726.jpg"",""SV_PolicingMSA/NY_2726/IMG_7_2726.jpg"",""SV_PolicingMSA/NY_2726/IMG_2_2726.jpg""]","3","","","","","","2","","4","[""./rc_img/cop_condGroup_5_SafeStreets_autoscaled.png"",""./rc_img/cop_condGroup_5_CommunitySafety_autoscaled.png""]","5","",""
"sliderTrial","html-slider-response","91","378792","0.0-91.0","","656776a7904ae00d6b91d1dd","6568acf16915e4810e9b555f","11","","","","","","","","","","","","2069","[""SV_PolicingMSA/NY_2726/IMG_11_2726.jpg"",""SV_PolicingMSA/NY_2726/IMG_14_2726.jpg"",""SV_PolicingMSA/NY_2726/IMG_3_2726.jpg"",""SV_PolicingMSA/NY_2726/IMG_1_2726.jpg"",""SV_PolicingMSA/NY_2726/IMG_10_2726.jpg"",""SV_PolicingMSA/NY_2726/IMG_12_2726.jpg"",""SV_PolicingMSA/NY_2726/IMG_7_2726.jpg"",""SV_PolicingMSA/NY_2726/IMG_2_2726.jpg""]","5","","","","","","2","","4","[""./rc_img/cop_condGroup_14_CommunitySafety_autoscaled.png"",""./rc_img/cop_condGroup_14_SafeStreets_autoscaled.png""]","5","",""
"sliderTrial","html-slider-response","92","381885","0.0-92.0","","656776a7904ae00d6b91d1dd","6568acf16915e4810e9b555f","11","","","","","","","","","","","","3092","[""SV_PolicingMSA/NY_2726/IMG_11_2726.jpg"",""SV_PolicingMSA/NY_2726/IMG_14_2726.jpg"",""SV_PolicingMSA/NY_2726/IMG_3_2726.jpg"",""SV_PolicingMSA/NY_2726/IMG_1_2726.jpg"",""SV_PolicingMSA/NY_2726/IMG_10_2726.jpg"",""SV_PolicingMSA/NY_2726/IMG_12_2726.jpg"",""SV_PolicingMSA/NY_2726/IMG_7_2726.jpg"",""SV_PolicingMSA/NY_2726/IMG_2_2726.jpg""]","5","","","","","","2","","4","[""./rc_img/cop_condGroup_13_CommunitySafety_autoscaled.png"",""./rc_img/cop_condGroup_13_SafeStreets_autoscaled.png""]","5","",""
"sliderTrial","html-slider-response","93","384357","0.0-93.0","","656776a7904ae00d6b91d1dd","6568acf16915e4810e9b555f","11","","","","","","","","","","","","2470","[""SV_PolicingMSA/NY_2726/IMG_11_2726.jpg"",""SV_PolicingMSA/NY_2726/IMG_14_2726.jpg"",""SV_PolicingMSA/NY_2726/IMG_3_2726.jpg"",""SV_PolicingMSA/NY_2726/IMG_1_2726.jpg"",""SV_PolicingMSA/NY_2726/IMG_10_2726.jpg"",""SV_PolicingMSA/NY_2726/IMG_12_2726.jpg"",""SV_PolicingMSA/NY_2726/IMG_7_2726.jpg"",""SV_PolicingMSA/NY_2726/IMG_2_2726.jpg""]","3","","","","","","2","","4","[""./rc_img/cop_condGroup_16_SafeStreets_autoscaled.png"",""./rc_img/cop_condGroup_16_CommunitySafety_autoscaled.png""]","5","",""
"before_SVSlide_prompt","html-button-response","94","385871","0.0-94.0","","656776a7904ae00d6b91d1dd","6568acf16915e4810e9b555f","11","","","","","","","","","","","","1513","Click [Next] to see the next neighborhood!","0","","","","","","","","","","","",""
"street view slide show","image-button-response","95","386878","0.0-95.0","","656776a7904ae00d6b91d1dd","6568acf16915e4810e9b555f","11","","","","","","","","","","","","null","stimulus/SV_PolicingMSA/NJ_1880/IMG_10_1880.jpg","null","","","","","","2","","","","","",""
"street view slide show","image-button-response","96","387881","0.0-96.0","","656776a7904ae00d6b91d1dd","6568acf16915e4810e9b555f","11","","","","","","","","","","","","null","stimulus/SV_PolicingMSA/NJ_1880/IMG_12_1880.jpg","null","","","","","","2","","","","","",""
"street view slide show","image-button-response","97","388883","0.0-97.0","","656776a7904ae00d6b91d1dd","6568acf16915e4810e9b555f","11","","","","","","","","","","","","null","stimulus/SV_PolicingMSA/NJ_1880/IMG_3_1880.jpg","null","","","","","","2","","","","","",""
"street view slide show","image-button-response","98","389899","0.0-98.0","","656776a7904ae00d6b91d1dd","6568acf16915e4810e9b555f","11","","","","","","","","","","","","null","stimulus/SV_PolicingMSA/NJ_1880/IMG_2_1880.jpg","null","","","","","","2","","","","","",""
"street view slide show","image-button-response","99","390915","0.0-99.0","","656776a7904ae00d6b91d1dd","6568acf16915e4810e9b555f","11","","","","","","","","","","","","null","stimulus/SV_PolicingMSA/NJ_1880/IMG_8_1880.jpg","null","","","","","","2","","","","","",""
"street view slide show","image-button-response","100","391924","0.0-100.0","","656776a7904ae00d6b91d1dd","6568acf16915e4810e9b555f","11","","","","","","","","","","","","null","stimulus/SV_PolicingMSA/NJ_1880/IMG_13_1880.jpg","null","","","","","","2","","","","","",""
"street view slide show","image-button-response","101","392926","0.0-101.0","","656776a7904ae00d6b91d1dd","6568acf16915e4810e9b555f","11","","","","","","","","","","","","null","stimulus/SV_PolicingMSA/NJ_1880/IMG_6_1880.jpg","null","","","","","","2","","","","","",""
"street view slide show","image-button-response","102","393930","0.0-102.0","","656776a7904ae00d6b91d1dd","6568acf16915e4810e9b555f","11","","","","","","","","","","","","null","stimulus/SV_PolicingMSA/NJ_1880/IMG_11_1880.jpg","null","","","","","","2","","","","","",""
"dot matrix survey1","survey","103","406389","0.0-103.0","","656776a7904ae00d6b91d1dd","6568acf16915e4810e9b555f","11","","","","","","","","","","","","12452","","{""P0_Q0"":null,""P0_Q1"":{""wealthy"":2,""safe"":2,""walkable"":2,""traditional"":2,""diverse"":2}}","","","","","","2","[]","","","","",""
"dot matrix survey2","survey","104","485685","0.0-104.0","","656776a7904ae00d6b91d1dd","6568acf16915e4810e9b555f","11","","","","","","","","","","","","79291","","{""P0_Q0"":null,""P0_Q1"":{""violence"":3,""crime"":3,""drug"":3,""schools"":2,""opportunities"":2}}","","","","","","2","[]","","","","",""
"dot matrix survey3","survey","105","497433","0.0-105.0","","656776a7904ae00d6b91d1dd","6568acf16915e4810e9b555f","11","","","","","","","","","","","","11744","","{""P0_Q0"":null,""P0_Q1"":{""movein"":0,""moveout"":4,""shopping"":1,""walk"":0,""park"":1,""school"":1}}","","","","","","2","[]","","","","",""
"sliderTrial","html-slider-response","106","500811","0.0-106.0","","656776a7904ae00d6b91d1dd","6568acf16915e4810e9b555f","11","","","","","","","","","","","","3375","[""SV_PolicingMSA/NJ_1880/IMG_10_1880.jpg"",""SV_PolicingMSA/NJ_1880/IMG_12_1880.jpg"",""SV_PolicingMSA/NJ_1880/IMG_3_1880.jpg"",""SV_PolicingMSA/NJ_1880/IMG_2_1880.jpg"",""SV_PolicingMSA/NJ_1880/IMG_8_1880.jpg"",""SV_PolicingMSA/NJ_1880/IMG_13_1880.jpg"",""SV_PolicingMSA/NJ_1880/IMG_6_1880.jpg"",""SV_PolicingMSA/NJ_1880/IMG_11_1880.jpg""]","5","","","","","","2","","4","[""./rc_img/cop_condGroup_11_CommunitySafety_autoscaled.png"",""./rc_img/cop_condGroup_11_SafeStreets_autoscaled.png""]","5","",""
"sliderTrial","html-slider-response","107","502833","0.0-107.0","","656776a7904ae00d6b91d1dd","6568acf16915e4810e9b555f","11","","","","","","","","","","","","2020","[""SV_PolicingMSA/NJ_1880/IMG_10_1880.jpg"",""SV_PolicingMSA/NJ_1880/IMG_12_1880.jpg"",""SV_PolicingMSA/NJ_1880/IMG_3_1880.jpg"",""SV_PolicingMSA/NJ_1880/IMG_2_1880.jpg"",""SV_PolicingMSA/NJ_1880/IMG_8_1880.jpg"",""SV_PolicingMSA/NJ_1880/IMG_13_1880.jpg"",""SV_PolicingMSA/NJ_1880/IMG_6_1880.jpg"",""SV_PolicingMSA/NJ_1880/IMG_11_1880.jpg""]","5","","","","","","2","","4","[""./rc_img/cop_condGroup_2_CommunitySafety_autoscaled.png"",""./rc_img/cop_condGroup_2_SafeStreets_autoscaled.png""]","5","",""
"sliderTrial","html-slider-response","108","504636","0.0-108.0","","656776a7904ae00d6b91d1dd","6568acf16915e4810e9b555f","11","","","","","","","","","","","","1802","[""SV_PolicingMSA/NJ_1880/IMG_10_1880.jpg"",""SV_PolicingMSA/NJ_1880/IMG_12_1880.jpg"",""SV_PolicingMSA/NJ_1880/IMG_3_1880.jpg"",""SV_PolicingMSA/NJ_1880/IMG_2_1880.jpg"",""SV_PolicingMSA/NJ_1880/IMG_8_1880.jpg"",""SV_PolicingMSA/NJ_1880/IMG_13_1880.jpg"",""SV_PolicingMSA/NJ_1880/IMG_6_1880.jpg"",""SV_PolicingMSA/NJ_1880/IMG_11_1880.jpg""]","5","","","","","","2","","4","[""./rc_img/cop_condGroup_17_CommunitySafety_autoscaled.png"",""./rc_img/cop_condGroup_17_SafeStreets_autoscaled.png""]","5","",""
"sliderTrial","html-slider-response","109","506421","0.0-109.0","","656776a7904ae00d6b91d1dd","6568acf16915e4810e9b555f","11","","","","","","","","","","","","1783","[""SV_PolicingMSA/NJ_1880/IMG_10_1880.jpg"",""SV_PolicingMSA/NJ_1880/IMG_12_1880.jpg"",""SV_PolicingMSA/NJ_1880/IMG_3_1880.jpg"",""SV_PolicingMSA/NJ_1880/IMG_2_1880.jpg"",""SV_PolicingMSA/NJ_1880/IMG_8_1880.jpg"",""SV_PolicingMSA/NJ_1880/IMG_13_1880.jpg"",""SV_PolicingMSA/NJ_1880/IMG_6_1880.jpg"",""SV_PolicingMSA/NJ_1880/IMG_11_1880.jpg""]","3","","","","","","2","","4","[""./rc_img/cop_condGroup_9_SafeStreets_autoscaled.png"",""./rc_img/cop_condGroup_9_CommunitySafety_autoscaled.png""]","5","",""
"sliderTrial","html-slider-response","110","508781","0.0-110.0","","656776a7904ae00d6b91d1dd","6568acf16915e4810e9b555f","11","","","","","","","","","","","","2359","[""SV_PolicingMSA/NJ_1880/IMG_10_1880.jpg"",""SV_PolicingMSA/NJ_1880/IMG_12_1880.jpg"",""SV_PolicingMSA/NJ_1880/IMG_3_1880.jpg"",""SV_PolicingMSA/NJ_1880/IMG_2_1880.jpg"",""SV_PolicingMSA/NJ_1880/IMG_8_1880.jpg"",""SV_PolicingMSA/NJ_1880/IMG_13_1880.jpg"",""SV_PolicingMSA/NJ_1880/IMG_6_1880.jpg"",""SV_PolicingMSA/NJ_1880/IMG_11_1880.jpg""]","3","","","","","","2","","4","[""./rc_img/cop_condGroup_4_SafeStreets_autoscaled.png"",""./rc_img/cop_condGroup_4_CommunitySafety_autoscaled.png""]","5","",""
"before_SVSlide_prompt","html-button-response","111","510259","0.0-111.0","","656776a7904ae00d6b91d1dd","6568acf16915e4810e9b555f","11","","","","","","","","","","","","1477","Click [Next] to see the next neighborhood!","0","","","","","","","","","","","",""
"street view slide show","image-button-response","112","511274","0.0-112.0","","656776a7904ae00d6b91d1dd","6568acf16915e4810e9b555f","11","","","","","","","","","","","","null","stimulus/SV_PolicingMSA/NY_2731/IMG_2_2731.jpg","null","","","","","","3","","","","","",""
"street view slide show","image-button-response","113","512279","0.0-113.0","","656776a7904ae00d6b91d1dd","6568acf16915e4810e9b555f","11","","","","","","","","","","","","null","stimulus/SV_PolicingMSA/NY_2731/IMG_9_2731.jpg","null","","","","","","3","","","","","",""
"street view slide show","image-button-response","114","513287","0.0-114.0","","656776a7904ae00d6b91d1dd","6568acf16915e4810e9b555f","11","","","","","","","","","","","","null","stimulus/SV_PolicingMSA/NY_2731/IMG_3_2731.jpg","null","","","","","","3","","","","","",""
"street view slide show","image-button-response","115","514293","0.0-115.0","","656776a7904ae00d6b91d1dd","6568acf16915e4810e9b555f","11","","","","","","","","","","","","null","stimulus/SV_PolicingMSA/NY_2731/IMG_11_2731.jpg","null","","","","","","3","","","","","",""
"street view slide show","image-button-response","116","515298","0.0-116.0","","656776a7904ae00d6b91d1dd","6568acf16915e4810e9b555f","11","","","","","","","","","","","","null","stimulus/SV_PolicingMSA/NY_2731/IMG_5_2731.jpg","null","","","","","","3","","","","","",""
"street view slide show","image-button-response","117","516306","0.0-117.0","","656776a7904ae00d6b91d1dd","6568acf16915e4810e9b555f","11","","","","","","","","","","","","null","stimulus/SV_PolicingMSA/NY_2731/IMG_8_2731.jpg","null","","","","","","3","","","","","",""
"street view slide show","image-button-response","118","517316","0.0-118.0","","656776a7904ae00d6b91d1dd","6568acf16915e4810e9b555f","11","","","","","","","","","","","","null","stimulus/SV_PolicingMSA/NY_2731/IMG_12_2731.jpg","null","","","","","","3","","","","","",""
"street view slide show","image-button-response","119","518318","0.0-119.0","","656776a7904ae00d6b91d1dd","6568acf16915e4810e9b555f","11","","","","","","","","","","","","null","stimulus/SV_PolicingMSA/NY_2731/IMG_10_2731.jpg","null","","","","","","3","","","","","",""
"dot matrix survey1","survey","120","529441","0.0-120.0","","656776a7904ae00d6b91d1dd","6568acf16915e4810e9b555f","11","","","","","","","","","","","","11111","","{""P0_Q0"":null,""P0_Q1"":{""wealthy"":1,""safe"":1,""walkable"":0,""traditional"":1,""diverse"":1}}","","","","","","3","[]","","","","",""
"dot matrix survey2","survey","121","536288","0.0-121.0","","656776a7904ae00d6b91d1dd","6568acf16915e4810e9b555f","11","","","","","","","","","","","","6841","","{""P0_Q0"":null,""P0_Q1"":{""violence"":3,""crime"":3,""drug"":3,""schools"":1,""opportunities"":1}}","","","","","","3","[]","","","","",""
"dot matrix survey3","survey","122","546943","0.0-122.0","","656776a7904ae00d6b91d1dd","6568acf16915e4810e9b555f","11","","","","","","","","","","","","10649","","{""P0_Q0"":null,""P0_Q1"":{""movein"":0,""moveout"":4,""shopping"":0,""walk"":0,""park"":1,""school"":1}}","","","","","","3","[]","","","","",""
"sliderTrial","html-slider-response","123","551693","0.0-123.0","","656776a7904ae00d6b91d1dd","6568acf16915e4810e9b555f","11","","","","","","","","","","","","4749","[""SV_PolicingMSA/NY_2731/IMG_2_2731.jpg"",""SV_PolicingMSA/NY_2731/IMG_9_2731.jpg"",""SV_PolicingMSA/NY_2731/IMG_3_2731.jpg"",""SV_PolicingMSA/NY_2731/IMG_11_2731.jpg"",""SV_PolicingMSA/NY_2731/IMG_5_2731.jpg"",""SV_PolicingMSA/NY_2731/IMG_8_2731.jpg"",""SV_PolicingMSA/NY_2731/IMG_12_2731.jpg"",""SV_PolicingMSA/NY_2731/IMG_10_2731.jpg""]","3","","","","","","3","","4","[""./rc_img/cop_condGroup_7_SafeStreets_autoscaled.png"",""./rc_img/cop_condGroup_7_CommunitySafety_autoscaled.png""]","5","",""
"sliderTrial","html-slider-response","124","555057","0.0-124.0","","656776a7904ae00d6b91d1dd","6568acf16915e4810e9b555f","11","","","","","","","","","","","","3362","[""SV_PolicingMSA/NY_2731/IMG_2_2731.jpg"",""SV_PolicingMSA/NY_2731/IMG_9_2731.jpg"",""SV_PolicingMSA/NY_2731/IMG_3_2731.jpg"",""SV_PolicingMSA/NY_2731/IMG_11_2731.jpg"",""SV_PolicingMSA/NY_2731/IMG_5_2731.jpg"",""SV_PolicingMSA/NY_2731/IMG_8_2731.jpg"",""SV_PolicingMSA/NY_2731/IMG_12_2731.jpg"",""SV_PolicingMSA/NY_2731/IMG_10_2731.jpg""]","5","","","","","","3","","4","[""./rc_img/cop_condGroup_6_CommunitySafety_autoscaled.png"",""./rc_img/cop_condGroup_6_SafeStreets_autoscaled.png""]","5","",""
"sliderTrial","html-slider-response","125","557719","0.0-125.0","","656776a7904ae00d6b91d1dd","6568acf16915e4810e9b555f","11","","","","","","","","","","","","2661","[""SV_PolicingMSA/NY_2731/IMG_2_2731.jpg"",""SV_PolicingMSA/NY_2731/IMG_9_2731.jpg"",""SV_PolicingMSA/NY_2731/IMG_3_2731.jpg"",""SV_PolicingMSA/NY_2731/IMG_11_2731.jpg"",""SV_PolicingMSA/NY_2731/IMG_5_2731.jpg"",""SV_PolicingMSA/NY_2731/IMG_8_2731.jpg"",""SV_PolicingMSA/NY_2731/IMG_12_2731.jpg"",""SV_PolicingMSA/NY_2731/IMG_10_2731.jpg""]","3","","","","","","3","","4","[""./rc_img/cop_condGroup_10_SafeStreets_autoscaled.png"",""./rc_img/cop_condGroup_10_CommunitySafety_autoscaled.png""]","5","",""
"sliderTrial","html-slider-response","126","559889","0.0-126.0","","656776a7904ae00d6b91d1dd","6568acf16915e4810e9b555f","11","","","","","","","","","","","","2169","[""SV_PolicingMSA/NY_2731/IMG_2_2731.jpg"",""SV_PolicingMSA/NY_2731/IMG_9_2731.jpg"",""SV_PolicingMSA/NY_2731/IMG_3_2731.jpg"",""SV_PolicingMSA/NY_2731/IMG_11_2731.jpg"",""SV_PolicingMSA/NY_2731/IMG_5_2731.jpg"",""SV_PolicingMSA/NY_2731/IMG_8_2731.jpg"",""SV_PolicingMSA/NY_2731/IMG_12_2731.jpg"",""SV_PolicingMSA/NY_2731/IMG_10_2731.jpg""]","5","","","","","","3","","4","[""./rc_img/cop_condGroup_18_CommunitySafety_autoscaled.png"",""./rc_img/cop_condGroup_18_SafeStreets_autoscaled.png""]","5","",""
"sliderTrial","html-slider-response","127","563047","0.0-127.0","","656776a7904ae00d6b91d1dd","6568acf16915e4810e9b555f","11","","","","","","","","","","","","3157","[""SV_PolicingMSA/NY_2731/IMG_2_2731.jpg"",""SV_PolicingMSA/NY_2731/IMG_9_2731.jpg"",""SV_PolicingMSA/NY_2731/IMG_3_2731.jpg"",""SV_PolicingMSA/NY_2731/IMG_11_2731.jpg"",""SV_PolicingMSA/NY_2731/IMG_5_2731.jpg"",""SV_PolicingMSA/NY_2731/IMG_8_2731.jpg"",""SV_PolicingMSA/NY_2731/IMG_12_2731.jpg"",""SV_PolicingMSA/NY_2731/IMG_10_2731.jpg""]","5","","","","","","3","","4","[""./rc_img/cop_condGroup_15_CommunitySafety_autoscaled.png"",""./rc_img/cop_condGroup_15_SafeStreets_autoscaled.png""]","5","",""
"before_SVSlide_prompt","html-button-response","128","564897","0.0-128.0","","656776a7904ae00d6b91d1dd","6568acf16915e4810e9b555f","11","","","","","","","","","","","","1849","Click [Next] to see the next neighborhood!","0","","","","","","","","","","","",""
"street view slide show","image-button-response","129","565905","0.0-129.0","","656776a7904ae00d6b91d1dd","6568acf16915e4810e9b555f","11","","","","","","","","","","","","null","stimulus/SV_PolicingMSA/NY_4752/IMG_2_4752.jpg","null","","","","","","5","","","","","",""
"street view slide show","image-button-response","130","566916","0.0-130.0","","656776a7904ae00d6b91d1dd","6568acf16915e4810e9b555f","11","","","","","","","","","","","","null","stimulus/SV_PolicingMSA/NY_4752/IMG_7_4752.jpg","null","","","","","","5","","","","","",""
"street view slide show","image-button-response","131","567928","0.0-131.0","","656776a7904ae00d6b91d1dd","6568acf16915e4810e9b555f","11","","","","","","","","","","","","null","stimulus/SV_PolicingMSA/NY_4752/IMG_12_4752.jpg","null","","","","","","5","","","","","",""
"street view slide show","image-button-response","132","568938","0.0-132.0","","656776a7904ae00d6b91d1dd","6568acf16915e4810e9b555f","11","","","","","","","","","","","","null","stimulus/SV_PolicingMSA/NY_4752/IMG_4_4752.jpg","null","","","","","","5","","","","","",""
"street view slide show","image-button-response","133","569954","0.0-133.0","","656776a7904ae00d6b91d1dd","6568acf16915e4810e9b555f","11","","","","","","","","","","","","null","stimulus/SV_PolicingMSA/NY_4752/IMG_9_4752.jpg","null","","","","","","5","","","","","",""
"street view slide show","image-button-response","134","570965","0.0-134.0","","656776a7904ae00d6b91d1dd","6568acf16915e4810e9b555f","11","","","","","","","","","","","","null","stimulus/SV_PolicingMSA/NY_4752/IMG_6_4752.jpg","null","","","","","","5","","","","","",""
"street view slide show","image-button-response","135","571978","0.0-135.0","","656776a7904ae00d6b91d1dd","6568acf16915e4810e9b555f","11","","","","","","","","","","","","null","stimulus/SV_PolicingMSA/NY_4752/IMG_3_4752.jpg","null","","","","","","5","","","","","",""
"street view slide show","image-button-response","136","572979","0.0-136.0","","656776a7904ae00d6b91d1dd","6568acf16915e4810e9b555f","11","","","","","","","","","","","","null","stimulus/SV_PolicingMSA/NY_4752/IMG_0_4752.jpg","null","","","","","","5","","","","","",""
"dot matrix survey1","survey","137","581487","0.0-137.0","","656776a7904ae00d6b91d1dd","6568acf16915e4810e9b555f","11","","","","","","","","","","","","8497","","{""P0_Q0"":null,""P0_Q1"":{""wealthy"":1,""safe"":2,""walkable"":2,""traditional"":2,""diverse"":2}}","","","","","","5","[]","","","","",""
"dot matrix survey2","survey","138","588520","0.0-138.0","","656776a7904ae00d6b91d1dd","6568acf16915e4810e9b555f","11","","","","","","","","","","","","7027","","{""P0_Q0"":null,""P0_Q1"":{""violence"":3,""crime"":3,""drug"":3,""schools"":1,""opportunities"":1}}","","","","","","5","[]","","","","",""
"dot matrix survey3","survey","139","598603","0.0-139.0","","656776a7904ae00d6b91d1dd","6568acf16915e4810e9b555f","11","","","","","","","","","","","","10078","","{""P0_Q0"":null,""P0_Q1"":{""movein"":0,""moveout"":3,""shopping"":1,""walk"":0,""park"":1,""school"":1}}","","","","","","5","[]","","","","",""
"sliderTrial","html-slider-response","140","602991","0.0-140.0","","656776a7904ae00d6b91d1dd","6568acf16915e4810e9b555f","11","","","","","","","","","","","","4386","[""SV_PolicingMSA/NY_4752/IMG_2_4752.jpg"",""SV_PolicingMSA/NY_4752/IMG_7_4752.jpg"",""SV_PolicingMSA/NY_4752/IMG_12_4752.jpg"",""SV_PolicingMSA/NY_4752/IMG_4_4752.jpg"",""SV_PolicingMSA/NY_4752/IMG_9_4752.jpg"",""SV_PolicingMSA/NY_4752/IMG_6_4752.jpg"",""SV_PolicingMSA/NY_4752/IMG_3_4752.jpg"",""SV_PolicingMSA/NY_4752/IMG_0_4752.jpg""]","3","","","","","","5","","4","[""./rc_img/cop_condGroup_7_SafeStreets_autoscaled.png"",""./rc_img/cop_condGroup_7_CommunitySafety_autoscaled.png""]","5","",""
"sliderTrial","html-slider-response","141","607431","0.0-141.0","","656776a7904ae00d6b91d1dd","6568acf16915e4810e9b555f","11","","","","","","","","","","","","4439","[""SV_PolicingMSA/NY_4752/IMG_2_4752.jpg"",""SV_PolicingMSA/NY_4752/IMG_7_4752.jpg"",""SV_PolicingMSA/NY_4752/IMG_12_4752.jpg"",""SV_PolicingMSA/NY_4752/IMG_4_4752.jpg"",""SV_PolicingMSA/NY_4752/IMG_9_4752.jpg"",""SV_PolicingMSA/NY_4752/IMG_6_4752.jpg"",""SV_PolicingMSA/NY_4752/IMG_3_4752.jpg"",""SV_PolicingMSA/NY_4752/IMG_0_4752.jpg""]","5","","","","","","5","","4","[""./rc_img/cop_condGroup_6_CommunitySafety_autoscaled.png"",""./rc_img/cop_condGroup_6_SafeStreets_autoscaled.png""]","5","",""
"sliderTrial","html-slider-response","142","610133","0.0-142.0","","656776a7904ae00d6b91d1dd","6568acf16915e4810e9b555f","11","","","","","","","","","","","","2700","[""SV_PolicingMSA/NY_4752/IMG_2_4752.jpg"",""SV_PolicingMSA/NY_4752/IMG_7_4752.jpg"",""SV_PolicingMSA/NY_4752/IMG_12_4752.jpg"",""SV_PolicingMSA/NY_4752/IMG_4_4752.jpg"",""SV_PolicingMSA/NY_4752/IMG_9_4752.jpg"",""SV_PolicingMSA/NY_4752/IMG_6_4752.jpg"",""SV_PolicingMSA/NY_4752/IMG_3_4752.jpg"",""SV_PolicingMSA/NY_4752/IMG_0_4752.jpg""]","3","","","","","","5","","4","[""./rc_img/cop_condGroup_10_SafeStreets_autoscaled.png"",""./rc_img/cop_condGroup_10_CommunitySafety_autoscaled.png""]","5","",""
"sliderTrial","html-slider-response","143","612195","0.0-143.0","","656776a7904ae00d6b91d1dd","6568acf16915e4810e9b555f","11","","","","","","","","","","","","2061","[""SV_PolicingMSA/NY_4752/IMG_2_4752.jpg"",""SV_PolicingMSA/NY_4752/IMG_7_4752.jpg"",""SV_PolicingMSA/NY_4752/IMG_12_4752.jpg"",""SV_PolicingMSA/NY_4752/IMG_4_4752.jpg"",""SV_PolicingMSA/NY_4752/IMG_9_4752.jpg"",""SV_PolicingMSA/NY_4752/IMG_6_4752.jpg"",""SV_PolicingMSA/NY_4752/IMG_3_4752.jpg"",""SV_PolicingMSA/NY_4752/IMG_0_4752.jpg""]","5","","","","","","5","","4","[""./rc_img/cop_condGroup_18_CommunitySafety_autoscaled.png"",""./rc_img/cop_condGroup_18_SafeStreets_autoscaled.png""]","5","",""
"sliderTrial","html-slider-response","144","616235","0.0-144.0","","656776a7904ae00d6b91d1dd","6568acf16915e4810e9b555f","11","","","","","","","","","","","","4039","[""SV_PolicingMSA/NY_4752/IMG_2_4752.jpg"",""SV_PolicingMSA/NY_4752/IMG_7_4752.jpg"",""SV_PolicingMSA/NY_4752/IMG_12_4752.jpg"",""SV_PolicingMSA/NY_4752/IMG_4_4752.jpg"",""SV_PolicingMSA/NY_4752/IMG_9_4752.jpg"",""SV_PolicingMSA/NY_4752/IMG_6_4752.jpg"",""SV_PolicingMSA/NY_4752/IMG_3_4752.jpg"",""SV_PolicingMSA/NY_4752/IMG_0_4752.jpg""]","5","","","","","","5","","4","[""./rc_img/cop_condGroup_15_CommunitySafety_autoscaled.png"",""./rc_img/cop_condGroup_15_SafeStreets_autoscaled.png""]","5","",""
"demographics","survey-html-form","145","632372","0.0-145.0","","656776a7904ae00d6b91d1dd","6568acf16915e4810e9b555f","11","","","","","","","","","","","","16135","","{""age"":""50"",""sex"":""female"",""gender"":""woman"",""gender-self-describe"":"""",""zipcode"":""76115""}","","","","","","","","","","","",""
"demographics-list","survey","146","653667","0.0-146.0","","656776a7904ae00d6b91d1dd","6568acf16915e4810e9b555f","11","","","","","","","","","","","","21269","","{""P0_Q0"":null,""race-ethnicity"":[""Hispanic or Latinx""],""education"":""Graduate & professional degrees"",""P1_Q0"":null,""ideology"":""Liberal"",""P2_Q0"":null,""num-moves"":1,""P3_Q0"":null,""social-ladder"":8}","","","","","","","[]","","","","",""
"end-survey","survey-text","147","665586","0.0-147.0","","656776a7904ae00d6b91d1dd","6568acf16915e4810e9b555f","11","","","","","","","","","","","","11912","","{""Q0"":""thank you!""}","","","","","","","","","","","","2"
"end-survey","html-button-response","148","670326","0.0-148.0","","656776a7904ae00d6b91d1dd","6568acf16915e4810e9b555f","11","","","","","","","","","","","","4738","
    You've reached the end of the survey. <br><br> 
    <b>Do not close or refresh this window.</b><br>
    On the next page, you will be automatically redirected to Prolific. <br><br>

    <div class=""alert alert-warning""><b>
    </div>
","0","","","","","","","","","","","",""
