"task","trial_type","trial_index","time_elapsed","internal_node_id","subject_id","study_id","session_id","section","width","height","webaudio","browser","browser_version","mobile","os","fullscreen","vsync_rate","webcam","microphone","rt","stimulus","response","success","timeout","failed_images","failed_audio","failed_video","block","accuracy","slider_start","choices","standardized_response","num_attention_checks_correct"
"pavlovia-init","pavlovia","0","590","0.0-0.0","","656776a7904ae00d6b91d1dd","0fbm7ypyh8va","4","","","","","","","","","","","","","","","","","","","","","","","","",""
"browser-check","browser-check","1","1587","0.0-1.0","","656776a7904ae00d6b91d1dd","0fbm7ypyh8va","4","1440","763","true","safari","17.1.0","false","Mac OS","true","60.48","true","true","","","","","","","","","","","","","",""
"consent","html-button-response","2","3053","0.0-2.0","","656776a7904ae00d6b91d1dd","0fbm7ypyh8va","4","","","","","","","","","","","","1465","
        <div style=""font-size: 80%; max-width:700px"">
            <h2>CONSENT FORM</h2>
        
            <div style=""text-align: left"">
            <h4>DESCRIPTION</h4>
            <p>
            You will complete a short task where you give your impressions of various neighborhoods and assign individuals to those spaces, and answer some questions about your thoughts and opinions.<br>
            The University of Michigan Institutional Review Board Health Sciences and Behavioral Sciences has determined that this study is exempt from IRB oversight.
            </p>

            <h4>TIME INVOLVEMENT</h4>
            <p>Your participation will take approximately 15 minutes. You will receive $3.25 upon completion of the study.</p>
        
            <h4>RISKS AND BENEFITS</h4>
            <p>
            The risks associated with this study are minimal. The benefits which may reasonably be expected to result from this study are none. We cannot and do not guarantee or promise that you will receive any benefits from this study.
            </p>
          
            <h4>SUBJECT'S RIGHTS</h4>
            <p>
            If you have read this form and have decided to participate in this project, please understand your participation is voluntary and you have the right to withdraw your consent or discontinue participation at any time without penalty or loss of benefits to which you are otherwise entitled. The alternative is not to participate. You have the right to refuse to answer particular questions. Your individual privacy will be maintained in all published and written data resulting from the study.
            </p>

            <h4>HUMAN SUBJECT APPROVAL</h4>
            <p>
            This study is exempt from ongoing IRB review.
            </p>

            <h4>CONTACT INFORMATION</h4>
            If you have any questions, concerns or complaints about this research, its procedures, risks and benefits, contact the Protocol Director, Nicholas Camp, npcamp@umich.edu, (443) 851-6783. <br>

            If you have questions about your rights as a research participant, or wish to obtain information, ask questions or discuss any concerns about this study with someone other than the researcher(s), please contact the following:<br><br>
            University of Michigan<br>
            Health Sciences and Behavioral Sciences Institutional Review Board (IRB-HSBS)<br>
            2800 Plymouth Road<br>
            Building 520, Room 1169Ann Arbor, MI 48109-2800<br>
            Telephone: 734-936-0933 or toll free (866) 936-0933<br>
            Fax: 734-936-1852<br>
            E-mail: irbhsbs@umich.edu<br><br>

            You can also contact the University of Michigan Compliance Hotline at 1-866-990-0111. You may also print this consent form to keep.
            <br><br>
            <div class=""alert alert-warning""><b>
            Do you consent to participate in this study? If you consent to participate in this study, please click “Accept and Continue”. If you select ""Decline and Exit"", you will be exited from the survey. <br>
            </b></div>
            </div>
        </div>
    ","1","","","","","","","","","","",""
"","preload","3","6083","0.0-3.0","","656776a7904ae00d6b91d1dd","0fbm7ypyh8va","4","","","","","","","","","","","","","","","true","false","[]","[]","[]","","","","","",""
"instructions","html-button-response","4","7237","0.0-4.0","","656776a7904ae00d6b91d1dd","0fbm7ypyh8va","4","","","","","","","","","","","","1153","
        <div class=""text-container"">
        <h1>Welcome to the study!</h1>
        
        <div class=""text-left"">
            <p>
                In this study, we are interested in how people think about different Google Street View images. <br> Google Street View takes pictures of streets used for Google Earth and Google Maps. <br>You’ll see Google Street View images of different places and answer some questions about each one.<br>
            </p>
        </div>
        <img src = ""assets/img/example.png"" width = 500px, height = auto>
        <br>
    <br>
    ","0","","","","","","","","","","",""
"instructions","html-button-response","5","8440","0.0-5.0","","656776a7904ae00d6b91d1dd","0fbm7ypyh8va","4","","","","","","","","","","","","1201","
    <div class=""text-container"">
        <div class=""text-center"">
            <p>Please remember that your answers are completely anonymous. <br> (We can't trace them back to your name). <br>Please answer as honestly as you can.</p>
        </div>
    <br>
","0","","","","","","","","","","",""
"before_SVSlide_prompt","html-button-response","6","9375","0.0-6.0","","656776a7904ae00d6b91d1dd","0fbm7ypyh8va","4","","","","","","","","","","","","934","Click [Next] to see the next neighborhood!","0","","","","","","","","","","",""
"street view slide show","image-button-response","7","10389","0.0-7.0","","656776a7904ae00d6b91d1dd","0fbm7ypyh8va","4","","","","","","","","","","","","null","stimulus/SV_PolicingMSA/CO_1325/IMG_13_1325.jpg","null","","","","","","3","","","","",""
"street view slide show","image-button-response","8","11395","0.0-8.0","","656776a7904ae00d6b91d1dd","0fbm7ypyh8va","4","","","","","","","","","","","","null","stimulus/SV_PolicingMSA/CO_1325/IMG_5_1325.jpg","null","","","","","","3","","","","",""
"street view slide show","image-button-response","9","12402","0.0-9.0","","656776a7904ae00d6b91d1dd","0fbm7ypyh8va","4","","","","","","","","","","","","null","stimulus/SV_PolicingMSA/CO_1325/IMG_3_1325.jpg","null","","","","","","3","","","","",""
"street view slide show","image-button-response","10","13408","0.0-10.0","","656776a7904ae00d6b91d1dd","0fbm7ypyh8va","4","","","","","","","","","","","","null","stimulus/SV_PolicingMSA/CO_1325/IMG_9_1325.jpg","null","","","","","","3","","","","",""
"street view slide show","image-button-response","11","14414","0.0-11.0","","656776a7904ae00d6b91d1dd","0fbm7ypyh8va","4","","","","","","","","","","","","null","stimulus/SV_PolicingMSA/CO_1325/IMG_14_1325.jpg","null","","","","","","3","","","","",""
"street view slide show","image-button-response","12","15420","0.0-12.0","","656776a7904ae00d6b91d1dd","0fbm7ypyh8va","4","","","","","","","","","","","","null","stimulus/SV_PolicingMSA/CO_1325/IMG_11_1325.jpg","null","","","","","","3","","","","",""
"street view slide show","image-button-response","13","16426","0.0-13.0","","656776a7904ae00d6b91d1dd","0fbm7ypyh8va","4","","","","","","","","","","","","null","stimulus/SV_PolicingMSA/CO_1325/IMG_1_1325.jpg","null","","","","","","3","","","","",""
"street view slide show","image-button-response","14","17431","0.0-14.0","","656776a7904ae00d6b91d1dd","0fbm7ypyh8va","4","","","","","","","","","","","","null","stimulus/SV_PolicingMSA/CO_1325/IMG_8_1325.jpg","null","","","","","","3","","","","",""
"dot matrix survey1","survey","15","18770","0.0-15.0","","656776a7904ae00d6b91d1dd","0fbm7ypyh8va","4","","","","","","","","","","","","1292","","{""P0_Q0"":null,""P0_Q1"":null}","","","","","","3","[]","","","",""
"dot matrix survey2","survey","16","19282","0.0-16.0","","656776a7904ae00d6b91d1dd","0fbm7ypyh8va","4","","","","","","","","","","","","498","","{""P0_Q0"":null,""P0_Q1"":null}","","","","","","3","[]","","","",""
"dot matrix survey3","survey","17","19960","0.0-17.0","","656776a7904ae00d6b91d1dd","0fbm7ypyh8va","4","","","","","","","","","","","","672","","{""P0_Q0"":null,""P0_Q1"":null}","","","","","","3","[]","","","",""
"sliderTrial","html-slider-response","18","21022","0.0-18.0","","656776a7904ae00d6b91d1dd","0fbm7ypyh8va","4","","","","","","","","","","","","1058","[""SV_PolicingMSA/CO_1325/IMG_13_1325.jpg"",""SV_PolicingMSA/CO_1325/IMG_5_1325.jpg"",""SV_PolicingMSA/CO_1325/IMG_3_1325.jpg"",""SV_PolicingMSA/CO_1325/IMG_9_1325.jpg"",""SV_PolicingMSA/CO_1325/IMG_14_1325.jpg"",""SV_PolicingMSA/CO_1325/IMG_11_1325.jpg"",""SV_PolicingMSA/CO_1325/IMG_1_1325.jpg"",""SV_PolicingMSA/CO_1325/IMG_8_1325.jpg""]","4","","","","","","3","","4","[""./rc_img/cop_condGroup_20_CommunitySafety_autoscaled.png"",""./rc_img/cop_condGroup_20_SafeStreets_autoscaled.png""]","4",""
"sliderTrial","html-slider-response","19","21171","0.0-19.0","","656776a7904ae00d6b91d1dd","0fbm7ypyh8va","4","","","","","","","","","","","","147","[""SV_PolicingMSA/CO_1325/IMG_13_1325.jpg"",""SV_PolicingMSA/CO_1325/IMG_5_1325.jpg"",""SV_PolicingMSA/CO_1325/IMG_3_1325.jpg"",""SV_PolicingMSA/CO_1325/IMG_9_1325.jpg"",""SV_PolicingMSA/CO_1325/IMG_14_1325.jpg"",""SV_PolicingMSA/CO_1325/IMG_11_1325.jpg"",""SV_PolicingMSA/CO_1325/IMG_1_1325.jpg"",""SV_PolicingMSA/CO_1325/IMG_8_1325.jpg""]","4","","","","","","3","","4","[""./rc_img/cop_condGroup_1_SafeStreets_autoscaled.png"",""./rc_img/cop_condGroup_1_CommunitySafety_autoscaled.png""]","4",""
"sliderTrial","html-slider-response","20","21424","0.0-20.0","","656776a7904ae00d6b91d1dd","0fbm7ypyh8va","4","","","","","","","","","","","","251","[""SV_PolicingMSA/CO_1325/IMG_13_1325.jpg"",""SV_PolicingMSA/CO_1325/IMG_5_1325.jpg"",""SV_PolicingMSA/CO_1325/IMG_3_1325.jpg"",""SV_PolicingMSA/CO_1325/IMG_9_1325.jpg"",""SV_PolicingMSA/CO_1325/IMG_14_1325.jpg"",""SV_PolicingMSA/CO_1325/IMG_11_1325.jpg"",""SV_PolicingMSA/CO_1325/IMG_1_1325.jpg"",""SV_PolicingMSA/CO_1325/IMG_8_1325.jpg""]","4","","","","","","3","","4","[""./rc_img/cop_condGroup_14_SafeStreets_autoscaled.png"",""./rc_img/cop_condGroup_14_CommunitySafety_autoscaled.png""]","4",""
"sliderTrial","html-slider-response","21","21538","0.0-21.0","","656776a7904ae00d6b91d1dd","0fbm7ypyh8va","4","","","","","","","","","","","","111","[""SV_PolicingMSA/CO_1325/IMG_13_1325.jpg"",""SV_PolicingMSA/CO_1325/IMG_5_1325.jpg"",""SV_PolicingMSA/CO_1325/IMG_3_1325.jpg"",""SV_PolicingMSA/CO_1325/IMG_9_1325.jpg"",""SV_PolicingMSA/CO_1325/IMG_14_1325.jpg"",""SV_PolicingMSA/CO_1325/IMG_11_1325.jpg"",""SV_PolicingMSA/CO_1325/IMG_1_1325.jpg"",""SV_PolicingMSA/CO_1325/IMG_8_1325.jpg""]","4","","","","","","3","","4","[""./rc_img/cop_condGroup_19_CommunitySafety_autoscaled.png"",""./rc_img/cop_condGroup_19_SafeStreets_autoscaled.png""]","4",""
"sliderTrial","html-slider-response","22","21654","0.0-22.0","","656776a7904ae00d6b91d1dd","0fbm7ypyh8va","4","","","","","","","","","","","","114","[""SV_PolicingMSA/CO_1325/IMG_13_1325.jpg"",""SV_PolicingMSA/CO_1325/IMG_5_1325.jpg"",""SV_PolicingMSA/CO_1325/IMG_3_1325.jpg"",""SV_PolicingMSA/CO_1325/IMG_9_1325.jpg"",""SV_PolicingMSA/CO_1325/IMG_14_1325.jpg"",""SV_PolicingMSA/CO_1325/IMG_11_1325.jpg"",""SV_PolicingMSA/CO_1325/IMG_1_1325.jpg"",""SV_PolicingMSA/CO_1325/IMG_8_1325.jpg""]","4","","","","","","3","","4","[""./rc_img/cop_condGroup_18_SafeStreets_autoscaled.png"",""./rc_img/cop_condGroup_18_CommunitySafety_autoscaled.png""]","4",""
"before_SVSlide_prompt","html-button-response","23","22760","0.0-23.0","","656776a7904ae00d6b91d1dd","0fbm7ypyh8va","4","","","","","","","","","","","","1103","Click [Next] to see the next neighborhood!","0","","","","","","","","","","",""
"street view slide show","image-button-response","24","23769","0.0-24.0","","656776a7904ae00d6b91d1dd","0fbm7ypyh8va","4","","","","","","","","","","","","null","stimulus/SV_PolicingMSA/CO_649/IMG_11_649.jpg","null","","","","","","2","","","","",""
"street view slide show","image-button-response","25","24777","0.0-25.0","","656776a7904ae00d6b91d1dd","0fbm7ypyh8va","4","","","","","","","","","","","","null","stimulus/SV_PolicingMSA/CO_649/IMG_6_649.jpg","null","","","","","","2","","","","",""
"street view slide show","image-button-response","26","25785","0.0-26.0","","656776a7904ae00d6b91d1dd","0fbm7ypyh8va","4","","","","","","","","","","","","null","stimulus/SV_PolicingMSA/CO_649/IMG_14_649.jpg","null","","","","","","2","","","","",""
"street view slide show","image-button-response","27","26793","0.0-27.0","","656776a7904ae00d6b91d1dd","0fbm7ypyh8va","4","","","","","","","","","","","","null","stimulus/SV_PolicingMSA/CO_649/IMG_9_649.jpg","null","","","","","","2","","","","",""
"street view slide show","image-button-response","28","27801","0.0-28.0","","656776a7904ae00d6b91d1dd","0fbm7ypyh8va","4","","","","","","","","","","","","null","stimulus/SV_PolicingMSA/CO_649/IMG_12_649.jpg","null","","","","","","2","","","","",""
"street view slide show","image-button-response","29","28809","0.0-29.0","","656776a7904ae00d6b91d1dd","0fbm7ypyh8va","4","","","","","","","","","","","","null","stimulus/SV_PolicingMSA/CO_649/IMG_3_649.jpg","null","","","","","","2","","","","",""
"street view slide show","image-button-response","30","29817","0.0-30.0","","656776a7904ae00d6b91d1dd","0fbm7ypyh8va","4","","","","","","","","","","","","null","stimulus/SV_PolicingMSA/CO_649/IMG_4_649.jpg","null","","","","","","2","","","","",""
"street view slide show","image-button-response","31","30825","0.0-31.0","","656776a7904ae00d6b91d1dd","0fbm7ypyh8va","4","","","","","","","","","","","","null","stimulus/SV_PolicingMSA/CO_649/IMG_8_649.jpg","null","","","","","","2","","","","",""
"dot matrix survey1","survey","32","32942","0.0-32.0","","656776a7904ae00d6b91d1dd","0fbm7ypyh8va","4","","","","","","","","","","","","2098","","{""P0_Q0"":null,""P0_Q1"":null}","","","","","","2","[]","","","",""
"dot matrix survey2","survey","33","33468","0.0-33.0","","656776a7904ae00d6b91d1dd","0fbm7ypyh8va","4","","","","","","","","","","","","512","","{""P0_Q0"":null,""P0_Q1"":null}","","","","","","2","[]","","","",""
"dot matrix survey3","survey","34","34132","0.0-34.0","","656776a7904ae00d6b91d1dd","0fbm7ypyh8va","4","","","","","","","","","","","","654","","{""P0_Q0"":null,""P0_Q1"":null}","","","","","","2","[]","","","",""
"sliderTrial","html-slider-response","35","35023","0.0-35.0","","656776a7904ae00d6b91d1dd","0fbm7ypyh8va","4","","","","","","","","","","","","890","[""SV_PolicingMSA/CO_649/IMG_11_649.jpg"",""SV_PolicingMSA/CO_649/IMG_6_649.jpg"",""SV_PolicingMSA/CO_649/IMG_14_649.jpg"",""SV_PolicingMSA/CO_649/IMG_9_649.jpg"",""SV_PolicingMSA/CO_649/IMG_12_649.jpg"",""SV_PolicingMSA/CO_649/IMG_3_649.jpg"",""SV_PolicingMSA/CO_649/IMG_4_649.jpg"",""SV_PolicingMSA/CO_649/IMG_8_649.jpg""]","4","","","","","","2","","4","[""./rc_img/cop_condGroup_15_SafeStreets_autoscaled.png"",""./rc_img/cop_condGroup_15_CommunitySafety_autoscaled.png""]","4",""
"sliderTrial","html-slider-response","36","35175","0.0-36.0","","656776a7904ae00d6b91d1dd","0fbm7ypyh8va","4","","","","","","","","","","","","149","[""SV_PolicingMSA/CO_649/IMG_11_649.jpg"",""SV_PolicingMSA/CO_649/IMG_6_649.jpg"",""SV_PolicingMSA/CO_649/IMG_14_649.jpg"",""SV_PolicingMSA/CO_649/IMG_9_649.jpg"",""SV_PolicingMSA/CO_649/IMG_12_649.jpg"",""SV_PolicingMSA/CO_649/IMG_3_649.jpg"",""SV_PolicingMSA/CO_649/IMG_4_649.jpg"",""SV_PolicingMSA/CO_649/IMG_8_649.jpg""]","4","","","","","","2","","4","[""./rc_img/cop_condGroup_16_CommunitySafety_autoscaled.png"",""./rc_img/cop_condGroup_16_SafeStreets_autoscaled.png""]","4",""
"sliderTrial","html-slider-response","37","35307","0.0-37.0","","656776a7904ae00d6b91d1dd","0fbm7ypyh8va","4","","","","","","","","","","","","129","[""SV_PolicingMSA/CO_649/IMG_11_649.jpg"",""SV_PolicingMSA/CO_649/IMG_6_649.jpg"",""SV_PolicingMSA/CO_649/IMG_14_649.jpg"",""SV_PolicingMSA/CO_649/IMG_9_649.jpg"",""SV_PolicingMSA/CO_649/IMG_12_649.jpg"",""SV_PolicingMSA/CO_649/IMG_3_649.jpg"",""SV_PolicingMSA/CO_649/IMG_4_649.jpg"",""SV_PolicingMSA/CO_649/IMG_8_649.jpg""]","4","","","","","","2","","4","[""./rc_img/cop_condGroup_8_CommunitySafety_autoscaled.png"",""./rc_img/cop_condGroup_8_SafeStreets_autoscaled.png""]","4",""
"sliderTrial","html-slider-response","38","35422","0.0-38.0","","656776a7904ae00d6b91d1dd","0fbm7ypyh8va","4","","","","","","","","","","","","113","[""SV_PolicingMSA/CO_649/IMG_11_649.jpg"",""SV_PolicingMSA/CO_649/IMG_6_649.jpg"",""SV_PolicingMSA/CO_649/IMG_14_649.jpg"",""SV_PolicingMSA/CO_649/IMG_9_649.jpg"",""SV_PolicingMSA/CO_649/IMG_12_649.jpg"",""SV_PolicingMSA/CO_649/IMG_3_649.jpg"",""SV_PolicingMSA/CO_649/IMG_4_649.jpg"",""SV_PolicingMSA/CO_649/IMG_8_649.jpg""]","4","","","","","","2","","4","[""./rc_img/cop_condGroup_6_CommunitySafety_autoscaled.png"",""./rc_img/cop_condGroup_6_SafeStreets_autoscaled.png""]","4",""
"sliderTrial","html-slider-response","39","35538","0.0-39.0","","656776a7904ae00d6b91d1dd","0fbm7ypyh8va","4","","","","","","","","","","","","114","[""SV_PolicingMSA/CO_649/IMG_11_649.jpg"",""SV_PolicingMSA/CO_649/IMG_6_649.jpg"",""SV_PolicingMSA/CO_649/IMG_14_649.jpg"",""SV_PolicingMSA/CO_649/IMG_9_649.jpg"",""SV_PolicingMSA/CO_649/IMG_12_649.jpg"",""SV_PolicingMSA/CO_649/IMG_3_649.jpg"",""SV_PolicingMSA/CO_649/IMG_4_649.jpg"",""SV_PolicingMSA/CO_649/IMG_8_649.jpg""]","4","","","","","","2","","4","[""./rc_img/cop_condGroup_3_CommunitySafety_autoscaled.png"",""./rc_img/cop_condGroup_3_SafeStreets_autoscaled.png""]","4",""
"before_SVSlide_prompt","html-button-response","40","36438","0.0-40.0","","656776a7904ae00d6b91d1dd","0fbm7ypyh8va","4","","","","","","","","","","","","898","Click [Next] to see the next neighborhood!","0","","","","","","","","","","",""
"street view slide show","image-button-response","41","37447","0.0-41.0","","656776a7904ae00d6b91d1dd","0fbm7ypyh8va","4","","","","","","","","","","","","null","stimulus/SV_PolicingMSA/CO_674/IMG_8_674.jpg","null","","","","","","4","","","","",""
"street view slide show","image-button-response","42","38456","0.0-42.0","","656776a7904ae00d6b91d1dd","0fbm7ypyh8va","4","","","","","","","","","","","","null","stimulus/SV_PolicingMSA/CO_674/IMG_4_674.jpg","null","","","","","","4","","","","",""
"street view slide show","image-button-response","43","39465","0.0-43.0","","656776a7904ae00d6b91d1dd","0fbm7ypyh8va","4","","","","","","","","","","","","null","stimulus/SV_PolicingMSA/CO_674/IMG_13_674.jpg","null","","","","","","4","","","","",""
"street view slide show","image-button-response","44","40472","0.0-44.0","","656776a7904ae00d6b91d1dd","0fbm7ypyh8va","4","","","","","","","","","","","","null","stimulus/SV_PolicingMSA/CO_674/IMG_7_674.jpg","null","","","","","","4","","","","",""
"street view slide show","image-button-response","45","41481","0.0-45.0","","656776a7904ae00d6b91d1dd","0fbm7ypyh8va","4","","","","","","","","","","","","null","stimulus/SV_PolicingMSA/CO_674/IMG_0_674.jpg","null","","","","","","4","","","","",""
"street view slide show","image-button-response","46","42488","0.0-46.0","","656776a7904ae00d6b91d1dd","0fbm7ypyh8va","4","","","","","","","","","","","","null","stimulus/SV_PolicingMSA/CO_674/IMG_2_674.jpg","null","","","","","","4","","","","",""
"street view slide show","image-button-response","47","43496","0.0-47.0","","656776a7904ae00d6b91d1dd","0fbm7ypyh8va","4","","","","","","","","","","","","null","stimulus/SV_PolicingMSA/CO_674/IMG_10_674.jpg","null","","","","","","4","","","","",""
"street view slide show","image-button-response","48","44503","0.0-48.0","","656776a7904ae00d6b91d1dd","0fbm7ypyh8va","4","","","","","","","","","","","","null","stimulus/SV_PolicingMSA/CO_674/IMG_14_674.jpg","null","","","","","","4","","","","",""
"dot matrix survey1","survey","49","45534","0.0-49.0","","656776a7904ae00d6b91d1dd","0fbm7ypyh8va","4","","","","","","","","","","","","1007","","{""P0_Q0"":null,""P0_Q1"":null}","","","","","","4","[]","","","",""
"dot matrix survey2","survey","50","46035","0.0-50.0","","656776a7904ae00d6b91d1dd","0fbm7ypyh8va","4","","","","","","","","","","","","492","","{""P0_Q0"":null,""P0_Q1"":null}","","","","","","4","[]","","","",""
"dot matrix survey3","survey","51","46750","0.0-51.0","","656776a7904ae00d6b91d1dd","0fbm7ypyh8va","4","","","","","","","","","","","","708","","{""P0_Q0"":null,""P0_Q1"":null}","","","","","","4","[]","","","",""
"sliderTrial","html-slider-response","52","47654","0.0-52.0","","656776a7904ae00d6b91d1dd","0fbm7ypyh8va","4","","","","","","","","","","","","902","[""SV_PolicingMSA/CO_674/IMG_8_674.jpg"",""SV_PolicingMSA/CO_674/IMG_4_674.jpg"",""SV_PolicingMSA/CO_674/IMG_13_674.jpg"",""SV_PolicingMSA/CO_674/IMG_7_674.jpg"",""SV_PolicingMSA/CO_674/IMG_0_674.jpg"",""SV_PolicingMSA/CO_674/IMG_2_674.jpg"",""SV_PolicingMSA/CO_674/IMG_10_674.jpg"",""SV_PolicingMSA/CO_674/IMG_14_674.jpg""]","4","","","","","","4","","4","[""./rc_img/cop_condGroup_15_SafeStreets_autoscaled.png"",""./rc_img/cop_condGroup_15_CommunitySafety_autoscaled.png""]","4",""
"sliderTrial","html-slider-response","53","47789","0.0-53.0","","656776a7904ae00d6b91d1dd","0fbm7ypyh8va","4","","","","","","","","","","","","133","[""SV_PolicingMSA/CO_674/IMG_8_674.jpg"",""SV_PolicingMSA/CO_674/IMG_4_674.jpg"",""SV_PolicingMSA/CO_674/IMG_13_674.jpg"",""SV_PolicingMSA/CO_674/IMG_7_674.jpg"",""SV_PolicingMSA/CO_674/IMG_0_674.jpg"",""SV_PolicingMSA/CO_674/IMG_2_674.jpg"",""SV_PolicingMSA/CO_674/IMG_10_674.jpg"",""SV_PolicingMSA/CO_674/IMG_14_674.jpg""]","4","","","","","","4","","4","[""./rc_img/cop_condGroup_16_CommunitySafety_autoscaled.png"",""./rc_img/cop_condGroup_16_SafeStreets_autoscaled.png""]","4",""
"sliderTrial","html-slider-response","54","47906","0.0-54.0","","656776a7904ae00d6b91d1dd","0fbm7ypyh8va","4","","","","","","","","","","","","114","[""SV_PolicingMSA/CO_674/IMG_8_674.jpg"",""SV_PolicingMSA/CO_674/IMG_4_674.jpg"",""SV_PolicingMSA/CO_674/IMG_13_674.jpg"",""SV_PolicingMSA/CO_674/IMG_7_674.jpg"",""SV_PolicingMSA/CO_674/IMG_0_674.jpg"",""SV_PolicingMSA/CO_674/IMG_2_674.jpg"",""SV_PolicingMSA/CO_674/IMG_10_674.jpg"",""SV_PolicingMSA/CO_674/IMG_14_674.jpg""]","4","","","","","","4","","4","[""./rc_img/cop_condGroup_8_CommunitySafety_autoscaled.png"",""./rc_img/cop_condGroup_8_SafeStreets_autoscaled.png""]","4",""
"sliderTrial","html-slider-response","55","48041","0.0-55.0","","656776a7904ae00d6b91d1dd","0fbm7ypyh8va","4","","","","","","","","","","","","133","[""SV_PolicingMSA/CO_674/IMG_8_674.jpg"",""SV_PolicingMSA/CO_674/IMG_4_674.jpg"",""SV_PolicingMSA/CO_674/IMG_13_674.jpg"",""SV_PolicingMSA/CO_674/IMG_7_674.jpg"",""SV_PolicingMSA/CO_674/IMG_0_674.jpg"",""SV_PolicingMSA/CO_674/IMG_2_674.jpg"",""SV_PolicingMSA/CO_674/IMG_10_674.jpg"",""SV_PolicingMSA/CO_674/IMG_14_674.jpg""]","4","","","","","","4","","4","[""./rc_img/cop_condGroup_6_CommunitySafety_autoscaled.png"",""./rc_img/cop_condGroup_6_SafeStreets_autoscaled.png""]","4",""
"sliderTrial","html-slider-response","56","48160","0.0-56.0","","656776a7904ae00d6b91d1dd","0fbm7ypyh8va","4","","","","","","","","","","","","117","[""SV_PolicingMSA/CO_674/IMG_8_674.jpg"",""SV_PolicingMSA/CO_674/IMG_4_674.jpg"",""SV_PolicingMSA/CO_674/IMG_13_674.jpg"",""SV_PolicingMSA/CO_674/IMG_7_674.jpg"",""SV_PolicingMSA/CO_674/IMG_0_674.jpg"",""SV_PolicingMSA/CO_674/IMG_2_674.jpg"",""SV_PolicingMSA/CO_674/IMG_10_674.jpg"",""SV_PolicingMSA/CO_674/IMG_14_674.jpg""]","4","","","","","","4","","4","[""./rc_img/cop_condGroup_3_CommunitySafety_autoscaled.png"",""./rc_img/cop_condGroup_3_SafeStreets_autoscaled.png""]","4",""
"before_SVSlide_prompt","html-button-response","57","49056","0.0-57.0","","656776a7904ae00d6b91d1dd","0fbm7ypyh8va","4","","","","","","","","","","","","894","Click [Next] to see the next neighborhood!","0","","","","","","","","","","",""
"street view slide show","image-button-response","58","50064","0.0-58.0","","656776a7904ae00d6b91d1dd","0fbm7ypyh8va","4","","","","","","","","","","","","null","stimulus/SV_PolicingMSA/CO_252/IMG_14_252.jpg","null","","","","","","0","","","","",""
"street view slide show","image-button-response","59","51072","0.0-59.0","","656776a7904ae00d6b91d1dd","0fbm7ypyh8va","4","","","","","","","","","","","","null","stimulus/SV_PolicingMSA/CO_252/IMG_3_252.jpg","null","","","","","","0","","","","",""
"street view slide show","image-button-response","60","52080","0.0-60.0","","656776a7904ae00d6b91d1dd","0fbm7ypyh8va","4","","","","","","","","","","","","null","stimulus/SV_PolicingMSA/CO_252/IMG_11_252.jpg","null","","","","","","0","","","","",""
"street view slide show","image-button-response","61","53087","0.0-61.0","","656776a7904ae00d6b91d1dd","0fbm7ypyh8va","4","","","","","","","","","","","","null","stimulus/SV_PolicingMSA/CO_252/IMG_6_252.jpg","null","","","","","","0","","","","",""
"street view slide show","image-button-response","62","54096","0.0-62.0","","656776a7904ae00d6b91d1dd","0fbm7ypyh8va","4","","","","","","","","","","","","null","stimulus/SV_PolicingMSA/CO_252/IMG_0_252.jpg","null","","","","","","0","","","","",""
"street view slide show","image-button-response","63","55104","0.0-63.0","","656776a7904ae00d6b91d1dd","0fbm7ypyh8va","4","","","","","","","","","","","","null","stimulus/SV_PolicingMSA/CO_252/IMG_8_252.jpg","null","","","","","","0","","","","",""
"street view slide show","image-button-response","64","56112","0.0-64.0","","656776a7904ae00d6b91d1dd","0fbm7ypyh8va","4","","","","","","","","","","","","null","stimulus/SV_PolicingMSA/CO_252/IMG_7_252.jpg","null","","","","","","0","","","","",""
"street view slide show","image-button-response","65","57119","0.0-65.0","","656776a7904ae00d6b91d1dd","0fbm7ypyh8va","4","","","","","","","","","","","","null","stimulus/SV_PolicingMSA/CO_252/IMG_12_252.jpg","null","","","","","","0","","","","",""
"dot matrix survey1","survey","66","58386","0.0-66.0","","656776a7904ae00d6b91d1dd","0fbm7ypyh8va","4","","","","","","","","","","","","1251","","{""P0_Q0"":null,""P0_Q1"":null}","","","","","","0","[]","","","",""
"dot matrix survey2","survey","67","58934","0.0-67.0","","656776a7904ae00d6b91d1dd","0fbm7ypyh8va","4","","","","","","","","","","","","537","","{""P0_Q0"":null,""P0_Q1"":null}","","","","","","0","[]","","","",""
"dot matrix survey3","survey","68","59581","0.0-68.0","","656776a7904ae00d6b91d1dd","0fbm7ypyh8va","4","","","","","","","","","","","","638","","{""P0_Q0"":null,""P0_Q1"":null}","","","","","","0","[]","","","",""
"sliderTrial_attention","html-slider-response","69","60740","0.0-69.0","","656776a7904ae00d6b91d1dd","0fbm7ypyh8va","4","","","","","","","","","","","","1157","[""SV_PolicingMSA/CO_252/IMG_14_252.jpg"",""SV_PolicingMSA/CO_252/IMG_3_252.jpg"",""SV_PolicingMSA/CO_252/IMG_11_252.jpg"",""SV_PolicingMSA/CO_252/IMG_6_252.jpg"",""SV_PolicingMSA/CO_252/IMG_0_252.jpg"",""SV_PolicingMSA/CO_252/IMG_8_252.jpg"",""SV_PolicingMSA/CO_252/IMG_7_252.jpg"",""SV_PolicingMSA/CO_252/IMG_12_252.jpg""]","4","","","","","","0","","4","[""./assets/img/attnchk.png"",""./assets/img/attnchk.png""]","",""
"sliderTrial","html-slider-response","70","60887","0.0-70.0","","656776a7904ae00d6b91d1dd","0fbm7ypyh8va","4","","","","","","","","","","","","143","[""SV_PolicingMSA/CO_252/IMG_14_252.jpg"",""SV_PolicingMSA/CO_252/IMG_3_252.jpg"",""SV_PolicingMSA/CO_252/IMG_11_252.jpg"",""SV_PolicingMSA/CO_252/IMG_6_252.jpg"",""SV_PolicingMSA/CO_252/IMG_0_252.jpg"",""SV_PolicingMSA/CO_252/IMG_8_252.jpg"",""SV_PolicingMSA/CO_252/IMG_7_252.jpg"",""SV_PolicingMSA/CO_252/IMG_12_252.jpg""]","4","","","","","","0","","4","[""./rc_img/cop_condGroup_4_CommunitySafety_autoscaled.png"",""./rc_img/cop_condGroup_4_SafeStreets_autoscaled.png""]","4",""
"sliderTrial","html-slider-response","71","61126","0.0-71.0","","656776a7904ae00d6b91d1dd","0fbm7ypyh8va","4","","","","","","","","","","","","236","[""SV_PolicingMSA/CO_252/IMG_14_252.jpg"",""SV_PolicingMSA/CO_252/IMG_3_252.jpg"",""SV_PolicingMSA/CO_252/IMG_11_252.jpg"",""SV_PolicingMSA/CO_252/IMG_6_252.jpg"",""SV_PolicingMSA/CO_252/IMG_0_252.jpg"",""SV_PolicingMSA/CO_252/IMG_8_252.jpg"",""SV_PolicingMSA/CO_252/IMG_7_252.jpg"",""SV_PolicingMSA/CO_252/IMG_12_252.jpg""]","4","","","","","","0","","4","[""./rc_img/cop_condGroup_7_SafeStreets_autoscaled.png"",""./rc_img/cop_condGroup_7_CommunitySafety_autoscaled.png""]","4",""
"sliderTrial","html-slider-response","72","61255","0.0-72.0","","656776a7904ae00d6b91d1dd","0fbm7ypyh8va","4","","","","","","","","","","","","127","[""SV_PolicingMSA/CO_252/IMG_14_252.jpg"",""SV_PolicingMSA/CO_252/IMG_3_252.jpg"",""SV_PolicingMSA/CO_252/IMG_11_252.jpg"",""SV_PolicingMSA/CO_252/IMG_6_252.jpg"",""SV_PolicingMSA/CO_252/IMG_0_252.jpg"",""SV_PolicingMSA/CO_252/IMG_8_252.jpg"",""SV_PolicingMSA/CO_252/IMG_7_252.jpg"",""SV_PolicingMSA/CO_252/IMG_12_252.jpg""]","4","","","","","","0","","4","[""./rc_img/cop_condGroup_17_SafeStreets_autoscaled.png"",""./rc_img/cop_condGroup_17_CommunitySafety_autoscaled.png""]","4",""
"sliderTrial","html-slider-response","73","61705","0.0-73.0","","656776a7904ae00d6b91d1dd","0fbm7ypyh8va","4","","","","","","","","","","","","447","[""SV_PolicingMSA/CO_252/IMG_14_252.jpg"",""SV_PolicingMSA/CO_252/IMG_3_252.jpg"",""SV_PolicingMSA/CO_252/IMG_11_252.jpg"",""SV_PolicingMSA/CO_252/IMG_6_252.jpg"",""SV_PolicingMSA/CO_252/IMG_0_252.jpg"",""SV_PolicingMSA/CO_252/IMG_8_252.jpg"",""SV_PolicingMSA/CO_252/IMG_7_252.jpg"",""SV_PolicingMSA/CO_252/IMG_12_252.jpg""]","4","","","","","","0","","4","[""./rc_img/cop_condGroup_13_CommunitySafety_autoscaled.png"",""./rc_img/cop_condGroup_13_SafeStreets_autoscaled.png""]","4",""
"sliderTrial","html-slider-response","74","62222","0.0-74.0","","656776a7904ae00d6b91d1dd","0fbm7ypyh8va","4","","","","","","","","","","","","514","[""SV_PolicingMSA/CO_252/IMG_14_252.jpg"",""SV_PolicingMSA/CO_252/IMG_3_252.jpg"",""SV_PolicingMSA/CO_252/IMG_11_252.jpg"",""SV_PolicingMSA/CO_252/IMG_6_252.jpg"",""SV_PolicingMSA/CO_252/IMG_0_252.jpg"",""SV_PolicingMSA/CO_252/IMG_8_252.jpg"",""SV_PolicingMSA/CO_252/IMG_7_252.jpg"",""SV_PolicingMSA/CO_252/IMG_12_252.jpg""]","4","","","","","","0","","4","[""./rc_img/cop_condGroup_2_SafeStreets_autoscaled.png"",""./rc_img/cop_condGroup_2_CommunitySafety_autoscaled.png""]","4",""
"half-way","html-button-response","75","63155","0.0-75.0","","656776a7904ae00d6b91d1dd","0fbm7ypyh8va","4","","","","","","","","","","","","931","
    <h3>You are now half way through the study.</h3>
    <p>Please take a quick, 15-second break before you continue.</p>
    <img src='assets/img/countdown-15.gif'>
    <p>The study will automatically advance forward after the countdown is complete. <br> However, you may click ""Next"" to advance forward now if you wish.</p>
    ","0","","","","","","","","","","",""
"before_SVSlide_prompt","html-button-response","76","64555","0.0-76.0","","656776a7904ae00d6b91d1dd","0fbm7ypyh8va","4","","","","","","","","","","","","1399","Click [Next] to see the next neighborhood!","0","","","","","","","","","","",""
"street view slide show","image-button-response","77","65562","0.0-77.0","","656776a7904ae00d6b91d1dd","0fbm7ypyh8va","4","","","","","","","","","","","","null","stimulus/SV_PolicingMSA/CO_368/IMG_4_368.jpg","null","","","","","","1","","","","",""
"street view slide show","image-button-response","78","66568","0.0-78.0","","656776a7904ae00d6b91d1dd","0fbm7ypyh8va","4","","","","","","","","","","","","null","stimulus/SV_PolicingMSA/CO_368/IMG_7_368.jpg","null","","","","","","1","","","","",""
"street view slide show","image-button-response","79","67576","0.0-79.0","","656776a7904ae00d6b91d1dd","0fbm7ypyh8va","4","","","","","","","","","","","","null","stimulus/SV_PolicingMSA/CO_368/IMG_6_368.jpg","null","","","","","","1","","","","",""
"street view slide show","image-button-response","80","68585","0.0-80.0","","656776a7904ae00d6b91d1dd","0fbm7ypyh8va","4","","","","","","","","","","","","null","stimulus/SV_PolicingMSA/CO_368/IMG_1_368.jpg","null","","","","","","1","","","","",""
"street view slide show","image-button-response","81","69592","0.0-81.0","","656776a7904ae00d6b91d1dd","0fbm7ypyh8va","4","","","","","","","","","","","","null","stimulus/SV_PolicingMSA/CO_368/IMG_10_368.jpg","null","","","","","","1","","","","",""
"street view slide show","image-button-response","82","70598","0.0-82.0","","656776a7904ae00d6b91d1dd","0fbm7ypyh8va","4","","","","","","","","","","","","null","stimulus/SV_PolicingMSA/CO_368/IMG_9_368.jpg","null","","","","","","1","","","","",""
"street view slide show","image-button-response","83","71605","0.0-83.0","","656776a7904ae00d6b91d1dd","0fbm7ypyh8va","4","","","","","","","","","","","","null","stimulus/SV_PolicingMSA/CO_368/IMG_2_368.jpg","null","","","","","","1","","","","",""
"street view slide show","image-button-response","84","72613","0.0-84.0","","656776a7904ae00d6b91d1dd","0fbm7ypyh8va","4","","","","","","","","","","","","null","stimulus/SV_PolicingMSA/CO_368/IMG_11_368.jpg","null","","","","","","1","","","","",""
"dot matrix survey1","survey","85","74099","0.0-85.0","","656776a7904ae00d6b91d1dd","0fbm7ypyh8va","4","","","","","","","","","","","","1466","","{""P0_Q0"":null,""P0_Q1"":null}","","","","","","1","[]","","","",""
"dot matrix survey2","survey","86","74655","0.0-86.0","","656776a7904ae00d6b91d1dd","0fbm7ypyh8va","4","","","","","","","","","","","","547","","{""P0_Q0"":null,""P0_Q1"":null}","","","","","","1","[]","","","",""
"dot matrix survey3","survey","87","75254","0.0-87.0","","656776a7904ae00d6b91d1dd","0fbm7ypyh8va","4","","","","","","","","","","","","580","","{""P0_Q0"":null,""P0_Q1"":null}","","","","","","1","[]","","","",""
"sliderTrial","html-slider-response","88","76188","0.0-88.0","","656776a7904ae00d6b91d1dd","0fbm7ypyh8va","4","","","","","","","","","","","","933","[""SV_PolicingMSA/CO_368/IMG_4_368.jpg"",""SV_PolicingMSA/CO_368/IMG_7_368.jpg"",""SV_PolicingMSA/CO_368/IMG_6_368.jpg"",""SV_PolicingMSA/CO_368/IMG_1_368.jpg"",""SV_PolicingMSA/CO_368/IMG_10_368.jpg"",""SV_PolicingMSA/CO_368/IMG_9_368.jpg"",""SV_PolicingMSA/CO_368/IMG_2_368.jpg"",""SV_PolicingMSA/CO_368/IMG_11_368.jpg""]","4","","","","","","1","","4","[""./rc_img/cop_condGroup_20_CommunitySafety_autoscaled.png"",""./rc_img/cop_condGroup_20_SafeStreets_autoscaled.png""]","4",""
"sliderTrial","html-slider-response","89","76338","0.0-89.0","","656776a7904ae00d6b91d1dd","0fbm7ypyh8va","4","","","","","","","","","","","","147","[""SV_PolicingMSA/CO_368/IMG_4_368.jpg"",""SV_PolicingMSA/CO_368/IMG_7_368.jpg"",""SV_PolicingMSA/CO_368/IMG_6_368.jpg"",""SV_PolicingMSA/CO_368/IMG_1_368.jpg"",""SV_PolicingMSA/CO_368/IMG_10_368.jpg"",""SV_PolicingMSA/CO_368/IMG_9_368.jpg"",""SV_PolicingMSA/CO_368/IMG_2_368.jpg"",""SV_PolicingMSA/CO_368/IMG_11_368.jpg""]","4","","","","","","1","","4","[""./rc_img/cop_condGroup_1_SafeStreets_autoscaled.png"",""./rc_img/cop_condGroup_1_CommunitySafety_autoscaled.png""]","4",""
"sliderTrial_attention","html-slider-response","90","76474","0.0-90.0","","656776a7904ae00d6b91d1dd","0fbm7ypyh8va","4","","","","","","","","","","","","133","[""SV_PolicingMSA/CO_368/IMG_4_368.jpg"",""SV_PolicingMSA/CO_368/IMG_7_368.jpg"",""SV_PolicingMSA/CO_368/IMG_6_368.jpg"",""SV_PolicingMSA/CO_368/IMG_1_368.jpg"",""SV_PolicingMSA/CO_368/IMG_10_368.jpg"",""SV_PolicingMSA/CO_368/IMG_9_368.jpg"",""SV_PolicingMSA/CO_368/IMG_2_368.jpg"",""SV_PolicingMSA/CO_368/IMG_11_368.jpg""]","4","","","","","","1","","4","[""./assets/img/attnchk.png"",""./assets/img/attnchk.png""]","",""
"sliderTrial","html-slider-response","91","76623","0.0-91.0","","656776a7904ae00d6b91d1dd","0fbm7ypyh8va","4","","","","","","","","","","","","146","[""SV_PolicingMSA/CO_368/IMG_4_368.jpg"",""SV_PolicingMSA/CO_368/IMG_7_368.jpg"",""SV_PolicingMSA/CO_368/IMG_6_368.jpg"",""SV_PolicingMSA/CO_368/IMG_1_368.jpg"",""SV_PolicingMSA/CO_368/IMG_10_368.jpg"",""SV_PolicingMSA/CO_368/IMG_9_368.jpg"",""SV_PolicingMSA/CO_368/IMG_2_368.jpg"",""SV_PolicingMSA/CO_368/IMG_11_368.jpg""]","4","","","","","","1","","4","[""./rc_img/cop_condGroup_14_SafeStreets_autoscaled.png"",""./rc_img/cop_condGroup_14_CommunitySafety_autoscaled.png""]","4",""
"sliderTrial","html-slider-response","92","76704","0.0-92.0","","656776a7904ae00d6b91d1dd","0fbm7ypyh8va","4","","","","","","","","","","","","80","[""SV_PolicingMSA/CO_368/IMG_4_368.jpg"",""SV_PolicingMSA/CO_368/IMG_7_368.jpg"",""SV_PolicingMSA/CO_368/IMG_6_368.jpg"",""SV_PolicingMSA/CO_368/IMG_1_368.jpg"",""SV_PolicingMSA/CO_368/IMG_10_368.jpg"",""SV_PolicingMSA/CO_368/IMG_9_368.jpg"",""SV_PolicingMSA/CO_368/IMG_2_368.jpg"",""SV_PolicingMSA/CO_368/IMG_11_368.jpg""]","4","","","","","","1","","4","[""./rc_img/cop_condGroup_19_CommunitySafety_autoscaled.png"",""./rc_img/cop_condGroup_19_SafeStreets_autoscaled.png""]","4",""
"sliderTrial","html-slider-response","93","76889","0.0-93.0","","656776a7904ae00d6b91d1dd","0fbm7ypyh8va","4","","","","","","","","","","","","182","[""SV_PolicingMSA/CO_368/IMG_4_368.jpg"",""SV_PolicingMSA/CO_368/IMG_7_368.jpg"",""SV_PolicingMSA/CO_368/IMG_6_368.jpg"",""SV_PolicingMSA/CO_368/IMG_1_368.jpg"",""SV_PolicingMSA/CO_368/IMG_10_368.jpg"",""SV_PolicingMSA/CO_368/IMG_9_368.jpg"",""SV_PolicingMSA/CO_368/IMG_2_368.jpg"",""SV_PolicingMSA/CO_368/IMG_11_368.jpg""]","4","","","","","","1","","4","[""./rc_img/cop_condGroup_18_SafeStreets_autoscaled.png"",""./rc_img/cop_condGroup_18_CommunitySafety_autoscaled.png""]","4",""
"before_SVSlide_prompt","html-button-response","94","77803","0.0-94.0","","656776a7904ae00d6b91d1dd","0fbm7ypyh8va","4","","","","","","","","","","","","913","Click [Next] to see the next neighborhood!","0","","","","","","","","","","",""
"street view slide show","image-button-response","95","78806","0.0-95.0","","656776a7904ae00d6b91d1dd","0fbm7ypyh8va","4","","","","","","","","","","","","null","stimulus/SV_PolicingMSA/CO_1308/IMG_4_1308.jpg","null","","","","","","3","","","","",""
"street view slide show","image-button-response","96","79813","0.0-96.0","","656776a7904ae00d6b91d1dd","0fbm7ypyh8va","4","","","","","","","","","","","","null","stimulus/SV_PolicingMSA/CO_1308/IMG_3_1308.jpg","null","","","","","","3","","","","",""
"street view slide show","image-button-response","97","80820","0.0-97.0","","656776a7904ae00d6b91d1dd","0fbm7ypyh8va","4","","","","","","","","","","","","null","stimulus/SV_PolicingMSA/CO_1308/IMG_8_1308.jpg","null","","","","","","3","","","","",""
"street view slide show","image-button-response","98","81827","0.0-98.0","","656776a7904ae00d6b91d1dd","0fbm7ypyh8va","4","","","","","","","","","","","","null","stimulus/SV_PolicingMSA/CO_1308/IMG_14_1308.jpg","null","","","","","","3","","","","",""
"street view slide show","image-button-response","99","82831","0.0-99.0","","656776a7904ae00d6b91d1dd","0fbm7ypyh8va","4","","","","","","","","","","","","null","stimulus/SV_PolicingMSA/CO_1308/IMG_0_1308.jpg","null","","","","","","3","","","","",""
"street view slide show","image-button-response","100","83837","0.0-100.0","","656776a7904ae00d6b91d1dd","0fbm7ypyh8va","4","","","","","","","","","","","","null","stimulus/SV_PolicingMSA/CO_1308/IMG_2_1308.jpg","null","","","","","","3","","","","",""
"street view slide show","image-button-response","101","84844","0.0-101.0","","656776a7904ae00d6b91d1dd","0fbm7ypyh8va","4","","","","","","","","","","","","null","stimulus/SV_PolicingMSA/CO_1308/IMG_13_1308.jpg","null","","","","","","3","","","","",""
"street view slide show","image-button-response","102","85854","0.0-102.0","","656776a7904ae00d6b91d1dd","0fbm7ypyh8va","4","","","","","","","","","","","","null","stimulus/SV_PolicingMSA/CO_1308/IMG_11_1308.jpg","null","","","","","","3","","","","",""
"dot matrix survey1","survey","103","86982","0.0-103.0","","656776a7904ae00d6b91d1dd","0fbm7ypyh8va","4","","","","","","","","","","","","1108","","{""P0_Q0"":null,""P0_Q1"":null}","","","","","","3","[]","","","",""
"dot matrix survey2","survey","104","87511","0.0-104.0","","656776a7904ae00d6b91d1dd","0fbm7ypyh8va","4","","","","","","","","","","","","524","","{""P0_Q0"":null,""P0_Q1"":null}","","","","","","3","[]","","","",""
"dot matrix survey3","survey","105","88216","0.0-105.0","","656776a7904ae00d6b91d1dd","0fbm7ypyh8va","4","","","","","","","","","","","","701","","{""P0_Q0"":null,""P0_Q1"":null}","","","","","","3","[]","","","",""
"sliderTrial","html-slider-response","106","89106","0.0-106.0","","656776a7904ae00d6b91d1dd","0fbm7ypyh8va","4","","","","","","","","","","","","890","[""SV_PolicingMSA/CO_1308/IMG_4_1308.jpg"",""SV_PolicingMSA/CO_1308/IMG_3_1308.jpg"",""SV_PolicingMSA/CO_1308/IMG_8_1308.jpg"",""SV_PolicingMSA/CO_1308/IMG_14_1308.jpg"",""SV_PolicingMSA/CO_1308/IMG_0_1308.jpg"",""SV_PolicingMSA/CO_1308/IMG_2_1308.jpg"",""SV_PolicingMSA/CO_1308/IMG_13_1308.jpg"",""SV_PolicingMSA/CO_1308/IMG_11_1308.jpg""]","4","","","","","","3","","4","[""./rc_img/cop_condGroup_5_SafeStreets_autoscaled.png"",""./rc_img/cop_condGroup_5_CommunitySafety_autoscaled.png""]","4",""
"sliderTrial","html-slider-response","107","89254","0.0-107.0","","656776a7904ae00d6b91d1dd","0fbm7ypyh8va","4","","","","","","","","","","","","145","[""SV_PolicingMSA/CO_1308/IMG_4_1308.jpg"",""SV_PolicingMSA/CO_1308/IMG_3_1308.jpg"",""SV_PolicingMSA/CO_1308/IMG_8_1308.jpg"",""SV_PolicingMSA/CO_1308/IMG_14_1308.jpg"",""SV_PolicingMSA/CO_1308/IMG_0_1308.jpg"",""SV_PolicingMSA/CO_1308/IMG_2_1308.jpg"",""SV_PolicingMSA/CO_1308/IMG_13_1308.jpg"",""SV_PolicingMSA/CO_1308/IMG_11_1308.jpg""]","4","","","","","","3","","4","[""./rc_img/cop_condGroup_12_SafeStreets_autoscaled.png"",""./rc_img/cop_condGroup_12_CommunitySafety_autoscaled.png""]","4",""
"sliderTrial","html-slider-response","108","89354","0.0-108.0","","656776a7904ae00d6b91d1dd","0fbm7ypyh8va","4","","","","","","","","","","","","97","[""SV_PolicingMSA/CO_1308/IMG_4_1308.jpg"",""SV_PolicingMSA/CO_1308/IMG_3_1308.jpg"",""SV_PolicingMSA/CO_1308/IMG_8_1308.jpg"",""SV_PolicingMSA/CO_1308/IMG_14_1308.jpg"",""SV_PolicingMSA/CO_1308/IMG_0_1308.jpg"",""SV_PolicingMSA/CO_1308/IMG_2_1308.jpg"",""SV_PolicingMSA/CO_1308/IMG_13_1308.jpg"",""SV_PolicingMSA/CO_1308/IMG_11_1308.jpg""]","4","","","","","","3","","4","[""./rc_img/cop_condGroup_9_SafeStreets_autoscaled.png"",""./rc_img/cop_condGroup_9_CommunitySafety_autoscaled.png""]","4",""
"sliderTrial","html-slider-response","109","89472","0.0-109.0","","656776a7904ae00d6b91d1dd","0fbm7ypyh8va","4","","","","","","","","","","","","116","[""SV_PolicingMSA/CO_1308/IMG_4_1308.jpg"",""SV_PolicingMSA/CO_1308/IMG_3_1308.jpg"",""SV_PolicingMSA/CO_1308/IMG_8_1308.jpg"",""SV_PolicingMSA/CO_1308/IMG_14_1308.jpg"",""SV_PolicingMSA/CO_1308/IMG_0_1308.jpg"",""SV_PolicingMSA/CO_1308/IMG_2_1308.jpg"",""SV_PolicingMSA/CO_1308/IMG_13_1308.jpg"",""SV_PolicingMSA/CO_1308/IMG_11_1308.jpg""]","4","","","","","","3","","4","[""./rc_img/cop_condGroup_10_SafeStreets_autoscaled.png"",""./rc_img/cop_condGroup_10_CommunitySafety_autoscaled.png""]","4",""
"sliderTrial","html-slider-response","110","89588","0.0-110.0","","656776a7904ae00d6b91d1dd","0fbm7ypyh8va","4","","","","","","","","","","","","114","[""SV_PolicingMSA/CO_1308/IMG_4_1308.jpg"",""SV_PolicingMSA/CO_1308/IMG_3_1308.jpg"",""SV_PolicingMSA/CO_1308/IMG_8_1308.jpg"",""SV_PolicingMSA/CO_1308/IMG_14_1308.jpg"",""SV_PolicingMSA/CO_1308/IMG_0_1308.jpg"",""SV_PolicingMSA/CO_1308/IMG_2_1308.jpg"",""SV_PolicingMSA/CO_1308/IMG_13_1308.jpg"",""SV_PolicingMSA/CO_1308/IMG_11_1308.jpg""]","4","","","","","","3","","4","[""./rc_img/cop_condGroup_11_CommunitySafety_autoscaled.png"",""./rc_img/cop_condGroup_11_SafeStreets_autoscaled.png""]","4",""
"before_SVSlide_prompt","html-button-response","111","90573","0.0-111.0","","656776a7904ae00d6b91d1dd","0fbm7ypyh8va","4","","","","","","","","","","","","984","Click [Next] to see the next neighborhood!","0","","","","","","","","","","",""
"street view slide show","image-button-response","112","91582","0.0-112.0","","656776a7904ae00d6b91d1dd","0fbm7ypyh8va","4","","","","","","","","","","","","null","stimulus/SV_PolicingMSA/CO_572/IMG_3_572.jpg","null","","","","","","5","","","","",""
"street view slide show","image-button-response","113","92590","0.0-113.0","","656776a7904ae00d6b91d1dd","0fbm7ypyh8va","4","","","","","","","","","","","","null","stimulus/SV_PolicingMSA/CO_572/IMG_8_572.jpg","null","","","","","","5","","","","",""
"street view slide show","image-button-response","114","93598","0.0-114.0","","656776a7904ae00d6b91d1dd","0fbm7ypyh8va","4","","","","","","","","","","","","null","stimulus/SV_PolicingMSA/CO_572/IMG_14_572.jpg","null","","","","","","5","","","","",""
"street view slide show","image-button-response","115","94606","0.0-115.0","","656776a7904ae00d6b91d1dd","0fbm7ypyh8va","4","","","","","","","","","","","","null","stimulus/SV_PolicingMSA/CO_572/IMG_4_572.jpg","null","","","","","","5","","","","",""
"street view slide show","image-button-response","116","95614","0.0-116.0","","656776a7904ae00d6b91d1dd","0fbm7ypyh8va","4","","","","","","","","","","","","null","stimulus/SV_PolicingMSA/CO_572/IMG_11_572.jpg","null","","","","","","5","","","","",""
"street view slide show","image-button-response","117","96621","0.0-117.0","","656776a7904ae00d6b91d1dd","0fbm7ypyh8va","4","","","","","","","","","","","","null","stimulus/SV_PolicingMSA/CO_572/IMG_5_572.jpg","null","","","","","","5","","","","",""
"street view slide show","image-button-response","118","97629","0.0-118.0","","656776a7904ae00d6b91d1dd","0fbm7ypyh8va","4","","","","","","","","","","","","null","stimulus/SV_PolicingMSA/CO_572/IMG_1_572.jpg","null","","","","","","5","","","","",""
"street view slide show","image-button-response","119","98638","0.0-119.0","","656776a7904ae00d6b91d1dd","0fbm7ypyh8va","4","","","","","","","","","","","","null","stimulus/SV_PolicingMSA/CO_572/IMG_2_572.jpg","null","","","","","","5","","","","",""
"dot matrix survey1","survey","120","100100","0.0-120.0","","656776a7904ae00d6b91d1dd","0fbm7ypyh8va","4","","","","","","","","","","","","1443","","{""P0_Q0"":null,""P0_Q1"":null}","","","","","","5","[]","","","",""
"dot matrix survey2","survey","121","100602","0.0-121.0","","656776a7904ae00d6b91d1dd","0fbm7ypyh8va","4","","","","","","","","","","","","490","","{""P0_Q0"":null,""P0_Q1"":null}","","","","","","5","[]","","","",""
"dot matrix survey3","survey","122","101201","0.0-122.0","","656776a7904ae00d6b91d1dd","0fbm7ypyh8va","4","","","","","","","","","","","","588","","{""P0_Q0"":null,""P0_Q1"":null}","","","","","","5","[]","","","",""
"sliderTrial","html-slider-response","123","101989","0.0-123.0","","656776a7904ae00d6b91d1dd","0fbm7ypyh8va","4","","","","","","","","","","","","787","[""SV_PolicingMSA/CO_572/IMG_3_572.jpg"",""SV_PolicingMSA/CO_572/IMG_8_572.jpg"",""SV_PolicingMSA/CO_572/IMG_14_572.jpg"",""SV_PolicingMSA/CO_572/IMG_4_572.jpg"",""SV_PolicingMSA/CO_572/IMG_11_572.jpg"",""SV_PolicingMSA/CO_572/IMG_5_572.jpg"",""SV_PolicingMSA/CO_572/IMG_1_572.jpg"",""SV_PolicingMSA/CO_572/IMG_2_572.jpg""]","4","","","","","","5","","4","[""./rc_img/cop_condGroup_5_SafeStreets_autoscaled.png"",""./rc_img/cop_condGroup_5_CommunitySafety_autoscaled.png""]","4",""
"sliderTrial","html-slider-response","124","102120","0.0-124.0","","656776a7904ae00d6b91d1dd","0fbm7ypyh8va","4","","","","","","","","","","","","129","[""SV_PolicingMSA/CO_572/IMG_3_572.jpg"",""SV_PolicingMSA/CO_572/IMG_8_572.jpg"",""SV_PolicingMSA/CO_572/IMG_14_572.jpg"",""SV_PolicingMSA/CO_572/IMG_4_572.jpg"",""SV_PolicingMSA/CO_572/IMG_11_572.jpg"",""SV_PolicingMSA/CO_572/IMG_5_572.jpg"",""SV_PolicingMSA/CO_572/IMG_1_572.jpg"",""SV_PolicingMSA/CO_572/IMG_2_572.jpg""]","4","","","","","","5","","4","[""./rc_img/cop_condGroup_12_SafeStreets_autoscaled.png"",""./rc_img/cop_condGroup_12_CommunitySafety_autoscaled.png""]","4",""
"sliderTrial","html-slider-response","125","102237","0.0-125.0","","656776a7904ae00d6b91d1dd","0fbm7ypyh8va","4","","","","","","","","","","","","117","[""SV_PolicingMSA/CO_572/IMG_3_572.jpg"",""SV_PolicingMSA/CO_572/IMG_8_572.jpg"",""SV_PolicingMSA/CO_572/IMG_14_572.jpg"",""SV_PolicingMSA/CO_572/IMG_4_572.jpg"",""SV_PolicingMSA/CO_572/IMG_11_572.jpg"",""SV_PolicingMSA/CO_572/IMG_5_572.jpg"",""SV_PolicingMSA/CO_572/IMG_1_572.jpg"",""SV_PolicingMSA/CO_572/IMG_2_572.jpg""]","4","","","","","","5","","4","[""./rc_img/cop_condGroup_9_SafeStreets_autoscaled.png"",""./rc_img/cop_condGroup_9_CommunitySafety_autoscaled.png""]","4",""
"sliderTrial","html-slider-response","126","102354","0.0-126.0","","656776a7904ae00d6b91d1dd","0fbm7ypyh8va","4","","","","","","","","","","","","115","[""SV_PolicingMSA/CO_572/IMG_3_572.jpg"",""SV_PolicingMSA/CO_572/IMG_8_572.jpg"",""SV_PolicingMSA/CO_572/IMG_14_572.jpg"",""SV_PolicingMSA/CO_572/IMG_4_572.jpg"",""SV_PolicingMSA/CO_572/IMG_11_572.jpg"",""SV_PolicingMSA/CO_572/IMG_5_572.jpg"",""SV_PolicingMSA/CO_572/IMG_1_572.jpg"",""SV_PolicingMSA/CO_572/IMG_2_572.jpg""]","4","","","","","","5","","4","[""./rc_img/cop_condGroup_10_SafeStreets_autoscaled.png"",""./rc_img/cop_condGroup_10_CommunitySafety_autoscaled.png""]","4",""
"sliderTrial","html-slider-response","127","102471","0.0-127.0","","656776a7904ae00d6b91d1dd","0fbm7ypyh8va","4","","","","","","","","","","","","115","[""SV_PolicingMSA/CO_572/IMG_3_572.jpg"",""SV_PolicingMSA/CO_572/IMG_8_572.jpg"",""SV_PolicingMSA/CO_572/IMG_14_572.jpg"",""SV_PolicingMSA/CO_572/IMG_4_572.jpg"",""SV_PolicingMSA/CO_572/IMG_11_572.jpg"",""SV_PolicingMSA/CO_572/IMG_5_572.jpg"",""SV_PolicingMSA/CO_572/IMG_1_572.jpg"",""SV_PolicingMSA/CO_572/IMG_2_572.jpg""]","4","","","","","","5","","4","[""./rc_img/cop_condGroup_11_CommunitySafety_autoscaled.png"",""./rc_img/cop_condGroup_11_SafeStreets_autoscaled.png""]","4",""
"before_SVSlide_prompt","html-button-response","128","103454","0.0-128.0","","656776a7904ae00d6b91d1dd","0fbm7ypyh8va","4","","","","","","","","","","","","982","Click [Next] to see the next neighborhood!","0","","","","","","","","","","",""
"street view slide show","image-button-response","129","104459","0.0-129.0","","656776a7904ae00d6b91d1dd","0fbm7ypyh8va","4","","","","","","","","","","","","null","stimulus/SV_PolicingMSA/CO_543/IMG_10_543.jpg","null","","","","","","2","","","","",""
"street view slide show","image-button-response","130","105467","0.0-130.0","","656776a7904ae00d6b91d1dd","0fbm7ypyh8va","4","","","","","","","","","","","","null","stimulus/SV_PolicingMSA/CO_543/IMG_6_543.jpg","null","","","","","","2","","","","",""
"street view slide show","image-button-response","131","106473","0.0-131.0","","656776a7904ae00d6b91d1dd","0fbm7ypyh8va","4","","","","","","","","","","","","null","stimulus/SV_PolicingMSA/CO_543/IMG_14_543.jpg","null","","","","","","2","","","","",""
"street view slide show","image-button-response","132","107480","0.0-132.0","","656776a7904ae00d6b91d1dd","0fbm7ypyh8va","4","","","","","","","","","","","","null","stimulus/SV_PolicingMSA/CO_543/IMG_0_543.jpg","null","","","","","","2","","","","",""
"street view slide show","image-button-response","133","108485","0.0-133.0","","656776a7904ae00d6b91d1dd","0fbm7ypyh8va","4","","","","","","","","","","","","null","stimulus/SV_PolicingMSA/CO_543/IMG_5_543.jpg","null","","","","","","2","","","","",""
"street view slide show","image-button-response","134","109492","0.0-134.0","","656776a7904ae00d6b91d1dd","0fbm7ypyh8va","4","","","","","","","","","","","","null","stimulus/SV_PolicingMSA/CO_543/IMG_9_543.jpg","null","","","","","","2","","","","",""
"street view slide show","image-button-response","135","110499","0.0-135.0","","656776a7904ae00d6b91d1dd","0fbm7ypyh8va","4","","","","","","","","","","","","null","stimulus/SV_PolicingMSA/CO_543/IMG_1_543.jpg","null","","","","","","2","","","","",""
"street view slide show","image-button-response","136","111506","0.0-136.0","","656776a7904ae00d6b91d1dd","0fbm7ypyh8va","4","","","","","","","","","","","","null","stimulus/SV_PolicingMSA/CO_543/IMG_13_543.jpg","null","","","","","","2","","","","",""
"dot matrix survey1","survey","137","112645","0.0-137.0","","656776a7904ae00d6b91d1dd","0fbm7ypyh8va","4","","","","","","","","","","","","1127","","{""P0_Q0"":null,""P0_Q1"":null}","","","","","","2","[]","","","",""
"dot matrix survey2","survey","138","113330","0.0-138.0","","656776a7904ae00d6b91d1dd","0fbm7ypyh8va","4","","","","","","","","","","","","682","","{""P0_Q0"":null,""P0_Q1"":null}","","","","","","2","[]","","","",""
"dot matrix survey3","survey","139","113876","0.0-139.0","","656776a7904ae00d6b91d1dd","0fbm7ypyh8va","4","","","","","","","","","","","","543","","{""P0_Q0"":null,""P0_Q1"":null}","","","","","","2","[]","","","",""
"sliderTrial","html-slider-response","140","114887","0.0-140.0","","656776a7904ae00d6b91d1dd","0fbm7ypyh8va","4","","","","","","","","","","","","1010","[""SV_PolicingMSA/CO_543/IMG_10_543.jpg"",""SV_PolicingMSA/CO_543/IMG_6_543.jpg"",""SV_PolicingMSA/CO_543/IMG_14_543.jpg"",""SV_PolicingMSA/CO_543/IMG_0_543.jpg"",""SV_PolicingMSA/CO_543/IMG_5_543.jpg"",""SV_PolicingMSA/CO_543/IMG_9_543.jpg"",""SV_PolicingMSA/CO_543/IMG_1_543.jpg"",""SV_PolicingMSA/CO_543/IMG_13_543.jpg""]","4","","","","","","2","","4","[""./rc_img/cop_condGroup_4_CommunitySafety_autoscaled.png"",""./rc_img/cop_condGroup_4_SafeStreets_autoscaled.png""]","4",""
"sliderTrial","html-slider-response","141","115039","0.0-141.0","","656776a7904ae00d6b91d1dd","0fbm7ypyh8va","4","","","","","","","","","","","","150","[""SV_PolicingMSA/CO_543/IMG_10_543.jpg"",""SV_PolicingMSA/CO_543/IMG_6_543.jpg"",""SV_PolicingMSA/CO_543/IMG_14_543.jpg"",""SV_PolicingMSA/CO_543/IMG_0_543.jpg"",""SV_PolicingMSA/CO_543/IMG_5_543.jpg"",""SV_PolicingMSA/CO_543/IMG_9_543.jpg"",""SV_PolicingMSA/CO_543/IMG_1_543.jpg"",""SV_PolicingMSA/CO_543/IMG_13_543.jpg""]","4","","","","","","2","","4","[""./rc_img/cop_condGroup_7_SafeStreets_autoscaled.png"",""./rc_img/cop_condGroup_7_CommunitySafety_autoscaled.png""]","4",""
"sliderTrial","html-slider-response","142","115172","0.0-142.0","","656776a7904ae00d6b91d1dd","0fbm7ypyh8va","4","","","","","","","","","","","","130","[""SV_PolicingMSA/CO_543/IMG_10_543.jpg"",""SV_PolicingMSA/CO_543/IMG_6_543.jpg"",""SV_PolicingMSA/CO_543/IMG_14_543.jpg"",""SV_PolicingMSA/CO_543/IMG_0_543.jpg"",""SV_PolicingMSA/CO_543/IMG_5_543.jpg"",""SV_PolicingMSA/CO_543/IMG_9_543.jpg"",""SV_PolicingMSA/CO_543/IMG_1_543.jpg"",""SV_PolicingMSA/CO_543/IMG_13_543.jpg""]","4","","","","","","2","","4","[""./rc_img/cop_condGroup_17_SafeStreets_autoscaled.png"",""./rc_img/cop_condGroup_17_CommunitySafety_autoscaled.png""]","4",""
"sliderTrial","html-slider-response","143","115287","0.0-143.0","","656776a7904ae00d6b91d1dd","0fbm7ypyh8va","4","","","","","","","","","","","","114","[""SV_PolicingMSA/CO_543/IMG_10_543.jpg"",""SV_PolicingMSA/CO_543/IMG_6_543.jpg"",""SV_PolicingMSA/CO_543/IMG_14_543.jpg"",""SV_PolicingMSA/CO_543/IMG_0_543.jpg"",""SV_PolicingMSA/CO_543/IMG_5_543.jpg"",""SV_PolicingMSA/CO_543/IMG_9_543.jpg"",""SV_PolicingMSA/CO_543/IMG_1_543.jpg"",""SV_PolicingMSA/CO_543/IMG_13_543.jpg""]","4","","","","","","2","","4","[""./rc_img/cop_condGroup_13_CommunitySafety_autoscaled.png"",""./rc_img/cop_condGroup_13_SafeStreets_autoscaled.png""]","4",""
"sliderTrial","html-slider-response","144","115387","0.0-144.0","","656776a7904ae00d6b91d1dd","0fbm7ypyh8va","4","","","","","","","","","","","","98","[""SV_PolicingMSA/CO_543/IMG_10_543.jpg"",""SV_PolicingMSA/CO_543/IMG_6_543.jpg"",""SV_PolicingMSA/CO_543/IMG_14_543.jpg"",""SV_PolicingMSA/CO_543/IMG_0_543.jpg"",""SV_PolicingMSA/CO_543/IMG_5_543.jpg"",""SV_PolicingMSA/CO_543/IMG_9_543.jpg"",""SV_PolicingMSA/CO_543/IMG_1_543.jpg"",""SV_PolicingMSA/CO_543/IMG_13_543.jpg""]","4","","","","","","2","","4","[""./rc_img/cop_condGroup_2_SafeStreets_autoscaled.png"",""./rc_img/cop_condGroup_2_CommunitySafety_autoscaled.png""]","4",""
"demographics","survey-html-form","145","117036","0.0-145.0","","656776a7904ae00d6b91d1dd","0fbm7ypyh8va","4","","","","","","","","","","","","1646","","{""age"":"""",""gender-self-describe"":"""",""zipcode"":""""}","","","","","","","","","","",""
"demographics-list","survey","146","121644","0.0-146.0","","656776a7904ae00d6b91d1dd","0fbm7ypyh8va","4","","","","","","","","","","","","4573","","{""P0_Q0"":null,""race-ethnicity"":[],""education"":"""",""P1_Q0"":null,""ideology"":"""",""P2_Q0"":null,""num-moves"":"""",""P3_Q0"":null,""social-ladder"":null}","","","","","","","[]","","","",""
"end-survey","survey-text","147","279310","0.0-147.0","","656776a7904ae00d6b91d1dd","0fbm7ypyh8va","4","","","","","","","","","","","","157661","","{""Q0"":""""}","","","","","","","","","","","0"
"end-survey","html-button-response","148","284677","0.0-148.0","","656776a7904ae00d6b91d1dd","0fbm7ypyh8va","4","","","","","","","","","","","","5364","
    You've reached the end of the survey. <br><br> 
    <b>Do not close or refresh this window.</b><br>
    In the next page, you will see a pop-up like below after a few moment.<br><br>
    <img src='assets/img/chrome.PNG'> <br><br>
    Press the <b>'Leave'</b> button to exit from the experiment without losing your record.<br>
    You will be automatically redirected to Prolific once you click the <b>'Leave'</b> button. <br><br>
","0","","","","","","","","","","",""
