"task","trial_type","trial_index","time_elapsed","internal_node_id","subject_id","study_id","session_id","section","width","height","webaudio","browser","browser_version","mobile","os","fullscreen","vsync_rate","webcam","microphone","rt","stimulus","response","success","timeout","failed_images","failed_audio","failed_video","block","accuracy","slider_start","choices","standardized_response","correct","num_attention_checks_correct"
"pavlovia-init","pavlovia","0","1219","0.0-0.0","","656776a7904ae00d6b91d1dd","6568abf80701421fc3443fda","1","","","","","","","","","","","","","","","","","","","","","","","","","",""
"browser-check","browser-check","1","2206","0.0-1.0","","656776a7904ae00d6b91d1dd","6568abf80701421fc3443fda","1","1920","937","true","firefox","120.0.0","false","Windows 10","true","61.86","false","true","","","","","","","","","","","","","","",""
"consent","html-button-response","2","44642","0.0-2.0","","656776a7904ae00d6b91d1dd","6568abf80701421fc3443fda","1","","","","","","","","","","","","42429","
        <div style=""font-size: 80%; max-width:700px"">
            <h2>CONSENT FORM</h2>
        
            <div style=""text-align: left"">
            <h4>DESCRIPTION</h4>
            <p>
            You will complete a short task where you give your impressions of various neighborhoods and assign individuals to those spaces, and answer some questions about your thoughts and opinions.<br>
            The University of Michigan Institutional Review Board Health Sciences and Behavioral Sciences has determined that this study is exempt from IRB oversight.
            </p>

            <h4>TIME INVOLVEMENT</h4>
            <p>Your participation will take approximately 15 minutes. You will receive $3.15 upon completion of the study.</p>
        
            <h4>RISKS AND BENEFITS</h4>
            <p>
            The risks associated with this study are minimal. The benefits which may reasonably be expected to result from this study are none. We cannot and do not guarantee or promise that you will receive any benefits from this study.
            </p>
          
            <h4>SUBJECT'S RIGHTS</h4>
            <p>
            If you have read this form and have decided to participate in this project, please understand your participation is voluntary and you have the right to withdraw your consent or discontinue participation at any time without penalty or loss of benefits to which you are otherwise entitled. The alternative is not to participate. You have the right to refuse to answer particular questions. Your individual privacy will be maintained in all published and written data resulting from the study.
            </p>

            <h4>HUMAN SUBJECT APPROVAL</h4>
            <p>
            This study is exempt from ongoing IRB review.
            </p>

            <h4>CONTACT INFORMATION</h4>
            If you have any questions, concerns or complaints about this research, its procedures, risks and benefits, contact the Protocol Director, Nicholas Camp, npcamp@umich.edu, (443) 851-6783. <br>

            If you have questions about your rights as a research participant, or wish to obtain information, ask questions or discuss any concerns about this study with someone other than the researcher(s), please contact the following:<br><br>
            University of Michigan<br>
            Health Sciences and Behavioral Sciences Institutional Review Board (IRB-HSBS)<br>
            2800 Plymouth Road<br>
            Building 520, Room 1169Ann Arbor, MI 48109-2800<br>
            Telephone: 734-936-0933 or toll free (866) 936-0933<br>
            Fax: 734-936-1852<br>
            E-mail: irbhsbs@umich.edu<br><br>

            You can also contact the University of Michigan Compliance Hotline at 1-866-990-0111. You may also print this consent form to keep.
            <br><br>
            <div class=""alert alert-warning""><b>
            Do you consent to participate in this study? If you consent to participate in this study, please click “Accept and Continue”. If you select ""Decline and Exit"", you will be exited from the survey. <br>
            </b></div>
            </div>
        </div>
    ","1","","","","","","","","","","","",""
"","preload","3","57716","0.0-3.0","","656776a7904ae00d6b91d1dd","6568abf80701421fc3443fda","1","","","","","","","","","","","","","","","true","false","[]","[]","[]","","","","","","",""
"instructions","html-button-response","4","66155","0.0-4.0","","656776a7904ae00d6b91d1dd","6568abf80701421fc3443fda","1","","","","","","","","","","","","8438","
        <div class=""text-container"">
        <h1>Welcome to the study!</h1>
        
        <div class=""text-left"">
            <p>
                In this study, we are interested in what people can tell about spaces from Google Street View images. <br> Google Street View takes pictures of streets used for Google Earth and Google Maps. <br>You’ll see Google Street View images of different places and answer some questions about each one.<br>
            </p>
        </div>
        <img src = ""assets/img/example.png"" width = 500px, height = auto>
        <br>
    <br>
    ","0","","","","","","","","","","","",""
"instructions","html-button-response","5","69076","0.0-5.0","","656776a7904ae00d6b91d1dd","6568abf80701421fc3443fda","1","","","","","","","","","","","","2919","
    <div class=""text-container"">
        <div class=""text-center"">
            <p>Please remember that your answers are completely anonymous.<br>Go with your gut response- there are no right or wrong answers!</p>
        </div>
    <br>
","0","","","","","","","","","","","",""
"before_SVSlide_prompt","html-button-response","6","70575","0.0-6.0","","656776a7904ae00d6b91d1dd","6568abf80701421fc3443fda","1","","","","","","","","","","","","1499","Click [Next] to see the next neighborhood!","0","","","","","","","","","","","",""
"street view slide show","image-button-response","7","71594","0.0-7.0","","656776a7904ae00d6b91d1dd","6568abf80701421fc3443fda","1","","","","","","","","","","","","null","stimulus/SV_PolicingMSA/CA_2009/IMG_8_2009.jpg","null","","","","","","1","","","","","",""
"street view slide show","image-button-response","8","72607","0.0-8.0","","656776a7904ae00d6b91d1dd","6568abf80701421fc3443fda","1","","","","","","","","","","","","null","stimulus/SV_PolicingMSA/CA_2009/IMG_9_2009.jpg","null","","","","","","1","","","","","",""
"street view slide show","image-button-response","9","73633","0.0-9.0","","656776a7904ae00d6b91d1dd","6568abf80701421fc3443fda","1","","","","","","","","","","","","null","stimulus/SV_PolicingMSA/CA_2009/IMG_1_2009.jpg","null","","","","","","1","","","","","",""
"street view slide show","image-button-response","10","74645","0.0-10.0","","656776a7904ae00d6b91d1dd","6568abf80701421fc3443fda","1","","","","","","","","","","","","null","stimulus/SV_PolicingMSA/CA_2009/IMG_6_2009.jpg","null","","","","","","1","","","","","",""
"street view slide show","image-button-response","11","75657","0.0-11.0","","656776a7904ae00d6b91d1dd","6568abf80701421fc3443fda","1","","","","","","","","","","","","null","stimulus/SV_PolicingMSA/CA_2009/IMG_5_2009.jpg","null","","","","","","1","","","","","",""
"street view slide show","image-button-response","12","76671","0.0-12.0","","656776a7904ae00d6b91d1dd","6568abf80701421fc3443fda","1","","","","","","","","","","","","null","stimulus/SV_PolicingMSA/CA_2009/IMG_2_2009.jpg","null","","","","","","1","","","","","",""
"street view slide show","image-button-response","13","77683","0.0-13.0","","656776a7904ae00d6b91d1dd","6568abf80701421fc3443fda","1","","","","","","","","","","","","null","stimulus/SV_PolicingMSA/CA_2009/IMG_0_2009.jpg","null","","","","","","1","","","","","",""
"street view slide show","image-button-response","14","78696","0.0-14.0","","656776a7904ae00d6b91d1dd","6568abf80701421fc3443fda","1","","","","","","","","","","","","null","stimulus/SV_PolicingMSA/CA_2009/IMG_3_2009.jpg","null","","","","","","1","","","","","",""
"dot matrix survey1","survey","15","98888","0.0-15.0","","656776a7904ae00d6b91d1dd","6568abf80701421fc3443fda","1","","","","","","","","","","","","20137","","{""P0_Q0"":null,""P0_Q1"":{""wealthy"":0,""safe"":2,""walkable"":1,""traditional"":1,""diverse"":2}}","","","","","","1","[]","","","","",""
"dot matrix survey2","survey","16","111442","0.0-16.0","","656776a7904ae00d6b91d1dd","6568abf80701421fc3443fda","1","","","","","","","","","","","","12542","","{""P0_Q0"":null,""P0_Q1"":{""violence"":3,""crime"":3,""drug"":4,""schools"":0,""opportunities"":0}}","","","","","","1","[]","","","","",""
"dot matrix survey3","survey","17","130171","0.0-17.0","","656776a7904ae00d6b91d1dd","6568abf80701421fc3443fda","1","","","","","","","","","","","","18720","","{""P0_Q0"":null,""P0_Q1"":{""movein"":4,""moveout"":4,""shopping"":1,""walk"":2,""park"":2,""school"":2}}","","","","","","1","[]","","","","",""
"sliderTrial","html-slider-response","18","140251","0.0-18.0","","656776a7904ae00d6b91d1dd","6568abf80701421fc3443fda","1","","","","","","","","","","","","10079","[""SV_PolicingMSA/CA_2009/IMG_8_2009.jpg"",""SV_PolicingMSA/CA_2009/IMG_9_2009.jpg"",""SV_PolicingMSA/CA_2009/IMG_1_2009.jpg"",""SV_PolicingMSA/CA_2009/IMG_6_2009.jpg"",""SV_PolicingMSA/CA_2009/IMG_5_2009.jpg"",""SV_PolicingMSA/CA_2009/IMG_2_2009.jpg"",""SV_PolicingMSA/CA_2009/IMG_0_2009.jpg"",""SV_PolicingMSA/CA_2009/IMG_3_2009.jpg""]","3","","","","","","1","","4","[""./rc_img/cop_condGroup_5_CommunitySafety_autoscaled.png"",""./rc_img/cop_condGroup_5_SafeStreets_autoscaled.png""]","3","",""
"sliderTrial","html-slider-response","19","145718","0.0-19.0","","656776a7904ae00d6b91d1dd","6568abf80701421fc3443fda","1","","","","","","","","","","","","5465","[""SV_PolicingMSA/CA_2009/IMG_8_2009.jpg"",""SV_PolicingMSA/CA_2009/IMG_9_2009.jpg"",""SV_PolicingMSA/CA_2009/IMG_1_2009.jpg"",""SV_PolicingMSA/CA_2009/IMG_6_2009.jpg"",""SV_PolicingMSA/CA_2009/IMG_5_2009.jpg"",""SV_PolicingMSA/CA_2009/IMG_2_2009.jpg"",""SV_PolicingMSA/CA_2009/IMG_0_2009.jpg"",""SV_PolicingMSA/CA_2009/IMG_3_2009.jpg""]","5","","","","","","1","","4","[""./rc_img/cop_condGroup_9_SafeStreets_autoscaled.png"",""./rc_img/cop_condGroup_9_CommunitySafety_autoscaled.png""]","3","",""
"sliderTrial","html-slider-response","20","150277","0.0-20.0","","656776a7904ae00d6b91d1dd","6568abf80701421fc3443fda","1","","","","","","","","","","","","4558","[""SV_PolicingMSA/CA_2009/IMG_8_2009.jpg"",""SV_PolicingMSA/CA_2009/IMG_9_2009.jpg"",""SV_PolicingMSA/CA_2009/IMG_1_2009.jpg"",""SV_PolicingMSA/CA_2009/IMG_6_2009.jpg"",""SV_PolicingMSA/CA_2009/IMG_5_2009.jpg"",""SV_PolicingMSA/CA_2009/IMG_2_2009.jpg"",""SV_PolicingMSA/CA_2009/IMG_0_2009.jpg"",""SV_PolicingMSA/CA_2009/IMG_3_2009.jpg""]","3","","","","","","1","","4","[""./rc_img/cop_condGroup_6_CommunitySafety_autoscaled.png"",""./rc_img/cop_condGroup_6_SafeStreets_autoscaled.png""]","3","",""
"sliderTrial_attention","html-slider-response","21","160288","0.0-21.0","","656776a7904ae00d6b91d1dd","6568abf80701421fc3443fda","1","","","","","","","","","","","","null","[""SV_PolicingMSA/CA_2009/IMG_8_2009.jpg"",""SV_PolicingMSA/CA_2009/IMG_9_2009.jpg"",""SV_PolicingMSA/CA_2009/IMG_1_2009.jpg"",""SV_PolicingMSA/CA_2009/IMG_6_2009.jpg"",""SV_PolicingMSA/CA_2009/IMG_5_2009.jpg"",""SV_PolicingMSA/CA_2009/IMG_2_2009.jpg"",""SV_PolicingMSA/CA_2009/IMG_0_2009.jpg"",""SV_PolicingMSA/CA_2009/IMG_3_2009.jpg""]","null","","","","","","1","","4","[""./assets/img/attnchk.png"",""./assets/img/attnchk.png""]","","true",""
"sliderTrial","html-slider-response","22","164504","0.0-22.0","","656776a7904ae00d6b91d1dd","6568abf80701421fc3443fda","1","","","","","","","","","","","","4213","[""SV_PolicingMSA/CA_2009/IMG_8_2009.jpg"",""SV_PolicingMSA/CA_2009/IMG_9_2009.jpg"",""SV_PolicingMSA/CA_2009/IMG_1_2009.jpg"",""SV_PolicingMSA/CA_2009/IMG_6_2009.jpg"",""SV_PolicingMSA/CA_2009/IMG_5_2009.jpg"",""SV_PolicingMSA/CA_2009/IMG_2_2009.jpg"",""SV_PolicingMSA/CA_2009/IMG_0_2009.jpg"",""SV_PolicingMSA/CA_2009/IMG_3_2009.jpg""]","5","","","","","","1","","4","[""./rc_img/cop_condGroup_12_SafeStreets_autoscaled.png"",""./rc_img/cop_condGroup_12_CommunitySafety_autoscaled.png""]","3","",""
"sliderTrial","html-slider-response","23","167536","0.0-23.0","","656776a7904ae00d6b91d1dd","6568abf80701421fc3443fda","1","","","","","","","","","","","","3032","[""SV_PolicingMSA/CA_2009/IMG_8_2009.jpg"",""SV_PolicingMSA/CA_2009/IMG_9_2009.jpg"",""SV_PolicingMSA/CA_2009/IMG_1_2009.jpg"",""SV_PolicingMSA/CA_2009/IMG_6_2009.jpg"",""SV_PolicingMSA/CA_2009/IMG_5_2009.jpg"",""SV_PolicingMSA/CA_2009/IMG_2_2009.jpg"",""SV_PolicingMSA/CA_2009/IMG_0_2009.jpg"",""SV_PolicingMSA/CA_2009/IMG_3_2009.jpg""]","3","","","","","","1","","4","[""./rc_img/cop_condGroup_10_CommunitySafety_autoscaled.png"",""./rc_img/cop_condGroup_10_SafeStreets_autoscaled.png""]","3","",""
"before_SVSlide_prompt","html-button-response","24","169036","0.0-24.0","","656776a7904ae00d6b91d1dd","6568abf80701421fc3443fda","1","","","","","","","","","","","","1498","Click [Next] to see the next neighborhood!","0","","","","","","","","","","","",""
"street view slide show","image-button-response","25","170041","0.0-25.0","","656776a7904ae00d6b91d1dd","6568abf80701421fc3443fda","1","","","","","","","","","","","","null","stimulus/SV_PolicingMSA/CA_8565/IMG_3_8565.jpg","null","","","","","","4","","","","","",""
"street view slide show","image-button-response","26","171050","0.0-26.0","","656776a7904ae00d6b91d1dd","6568abf80701421fc3443fda","1","","","","","","","","","","","","null","stimulus/SV_PolicingMSA/CA_8565/IMG_12_8565.jpg","null","","","","","","4","","","","","",""
"street view slide show","image-button-response","27","172097","0.0-27.0","","656776a7904ae00d6b91d1dd","6568abf80701421fc3443fda","1","","","","","","","","","","","","null","stimulus/SV_PolicingMSA/CA_8565/IMG_5_8565.jpg","null","","","","","","4","","","","","",""
"street view slide show","image-button-response","28","173120","0.0-28.0","","656776a7904ae00d6b91d1dd","6568abf80701421fc3443fda","1","","","","","","","","","","","","null","stimulus/SV_PolicingMSA/CA_8565/IMG_7_8565.jpg","null","","","","","","4","","","","","",""
"street view slide show","image-button-response","29","174138","0.0-29.0","","656776a7904ae00d6b91d1dd","6568abf80701421fc3443fda","1","","","","","","","","","","","","null","stimulus/SV_PolicingMSA/CA_8565/IMG_1_8565.jpg","null","","","","","","4","","","","","",""
"street view slide show","image-button-response","30","175150","0.0-30.0","","656776a7904ae00d6b91d1dd","6568abf80701421fc3443fda","1","","","","","","","","","","","","null","stimulus/SV_PolicingMSA/CA_8565/IMG_2_8565.jpg","null","","","","","","4","","","","","",""
"street view slide show","image-button-response","31","176161","0.0-31.0","","656776a7904ae00d6b91d1dd","6568abf80701421fc3443fda","1","","","","","","","","","","","","null","stimulus/SV_PolicingMSA/CA_8565/IMG_8_8565.jpg","null","","","","","","4","","","","","",""
"street view slide show","image-button-response","32","177175","0.0-32.0","","656776a7904ae00d6b91d1dd","6568abf80701421fc3443fda","1","","","","","","","","","","","","null","stimulus/SV_PolicingMSA/CA_8565/IMG_6_8565.jpg","null","","","","","","4","","","","","",""
"dot matrix survey1","survey","33","204311","0.0-33.0","","656776a7904ae00d6b91d1dd","6568abf80701421fc3443fda","1","","","","","","","","","","","","27094","","{""P0_Q0"":null,""P0_Q1"":{""wealthy"":3,""safe"":2,""walkable"":1,""traditional"":3,""diverse"":2}}","","","","","","4","[]","","","","",""
"dot matrix survey2","survey","34","224888","0.0-34.0","","656776a7904ae00d6b91d1dd","6568abf80701421fc3443fda","1","","","","","","","","","","","","20568","","{""P0_Q0"":null,""P0_Q1"":{""violence"":1,""crime"":1,""drug"":2,""schools"":3,""opportunities"":3}}","","","","","","4","[]","","","","",""
"dot matrix survey3","survey","35","245490","0.0-35.0","","656776a7904ae00d6b91d1dd","6568abf80701421fc3443fda","1","","","","","","","","","","","","20594","","{""P0_Q0"":null,""P0_Q1"":{""movein"":3,""moveout"":2,""shopping"":2,""walk"":2,""park"":2,""school"":2}}","","","","","","4","[]","","","","",""
"sliderTrial","html-slider-response","36","250331","0.0-36.0","","656776a7904ae00d6b91d1dd","6568abf80701421fc3443fda","1","","","","","","","","","","","","4840","[""SV_PolicingMSA/CA_8565/IMG_3_8565.jpg"",""SV_PolicingMSA/CA_8565/IMG_12_8565.jpg"",""SV_PolicingMSA/CA_8565/IMG_5_8565.jpg"",""SV_PolicingMSA/CA_8565/IMG_7_8565.jpg"",""SV_PolicingMSA/CA_8565/IMG_1_8565.jpg"",""SV_PolicingMSA/CA_8565/IMG_2_8565.jpg"",""SV_PolicingMSA/CA_8565/IMG_8_8565.jpg"",""SV_PolicingMSA/CA_8565/IMG_6_8565.jpg""]","3","","","","","","4","","4","[""./rc_img/cop_condGroup_16_CommunitySafety_autoscaled.png"",""./rc_img/cop_condGroup_16_SafeStreets_autoscaled.png""]","3","",""
"sliderTrial","html-slider-response","37","252952","0.0-37.0","","656776a7904ae00d6b91d1dd","6568abf80701421fc3443fda","1","","","","","","","","","","","","2620","[""SV_PolicingMSA/CA_8565/IMG_3_8565.jpg"",""SV_PolicingMSA/CA_8565/IMG_12_8565.jpg"",""SV_PolicingMSA/CA_8565/IMG_5_8565.jpg"",""SV_PolicingMSA/CA_8565/IMG_7_8565.jpg"",""SV_PolicingMSA/CA_8565/IMG_1_8565.jpg"",""SV_PolicingMSA/CA_8565/IMG_2_8565.jpg"",""SV_PolicingMSA/CA_8565/IMG_8_8565.jpg"",""SV_PolicingMSA/CA_8565/IMG_6_8565.jpg""]","5","","","","","","4","","4","[""./rc_img/cop_condGroup_11_SafeStreets_autoscaled.png"",""./rc_img/cop_condGroup_11_CommunitySafety_autoscaled.png""]","3","",""
"sliderTrial","html-slider-response","38","255507","0.0-38.0","","656776a7904ae00d6b91d1dd","6568abf80701421fc3443fda","1","","","","","","","","","","","","2554","[""SV_PolicingMSA/CA_8565/IMG_3_8565.jpg"",""SV_PolicingMSA/CA_8565/IMG_12_8565.jpg"",""SV_PolicingMSA/CA_8565/IMG_5_8565.jpg"",""SV_PolicingMSA/CA_8565/IMG_7_8565.jpg"",""SV_PolicingMSA/CA_8565/IMG_1_8565.jpg"",""SV_PolicingMSA/CA_8565/IMG_2_8565.jpg"",""SV_PolicingMSA/CA_8565/IMG_8_8565.jpg"",""SV_PolicingMSA/CA_8565/IMG_6_8565.jpg""]","3","","","","","","4","","4","[""./rc_img/cop_condGroup_7_CommunitySafety_autoscaled.png"",""./rc_img/cop_condGroup_7_SafeStreets_autoscaled.png""]","3","",""
"sliderTrial","html-slider-response","39","258140","0.0-39.0","","656776a7904ae00d6b91d1dd","6568abf80701421fc3443fda","1","","","","","","","","","","","","2631","[""SV_PolicingMSA/CA_8565/IMG_3_8565.jpg"",""SV_PolicingMSA/CA_8565/IMG_12_8565.jpg"",""SV_PolicingMSA/CA_8565/IMG_5_8565.jpg"",""SV_PolicingMSA/CA_8565/IMG_7_8565.jpg"",""SV_PolicingMSA/CA_8565/IMG_1_8565.jpg"",""SV_PolicingMSA/CA_8565/IMG_2_8565.jpg"",""SV_PolicingMSA/CA_8565/IMG_8_8565.jpg"",""SV_PolicingMSA/CA_8565/IMG_6_8565.jpg""]","3","","","","","","4","","4","[""./rc_img/cop_condGroup_15_CommunitySafety_autoscaled.png"",""./rc_img/cop_condGroup_15_SafeStreets_autoscaled.png""]","3","",""
"sliderTrial","html-slider-response","40","260421","0.0-40.0","","656776a7904ae00d6b91d1dd","6568abf80701421fc3443fda","1","","","","","","","","","","","","2281","[""SV_PolicingMSA/CA_8565/IMG_3_8565.jpg"",""SV_PolicingMSA/CA_8565/IMG_12_8565.jpg"",""SV_PolicingMSA/CA_8565/IMG_5_8565.jpg"",""SV_PolicingMSA/CA_8565/IMG_7_8565.jpg"",""SV_PolicingMSA/CA_8565/IMG_1_8565.jpg"",""SV_PolicingMSA/CA_8565/IMG_2_8565.jpg"",""SV_PolicingMSA/CA_8565/IMG_8_8565.jpg"",""SV_PolicingMSA/CA_8565/IMG_6_8565.jpg""]","3","","","","","","4","","4","[""./rc_img/cop_condGroup_13_CommunitySafety_autoscaled.png"",""./rc_img/cop_condGroup_13_SafeStreets_autoscaled.png""]","3","",""
"before_SVSlide_prompt","html-button-response","41","261716","0.0-41.0","","656776a7904ae00d6b91d1dd","6568abf80701421fc3443fda","1","","","","","","","","","","","","1294","Click [Next] to see the next neighborhood!","0","","","","","","","","","","","",""
"street view slide show","image-button-response","42","262725","0.0-42.0","","656776a7904ae00d6b91d1dd","6568abf80701421fc3443fda","1","","","","","","","","","","","","null","stimulus/SV_PolicingMSA/CA_8990/IMG_8_8990.jpg","null","","","","","","3","","","","","",""
"street view slide show","image-button-response","43","263741","0.0-43.0","","656776a7904ae00d6b91d1dd","6568abf80701421fc3443fda","1","","","","","","","","","","","","null","stimulus/SV_PolicingMSA/CA_8990/IMG_9_8990.jpg","null","","","","","","3","","","","","",""
"street view slide show","image-button-response","44","264753","0.0-44.0","","656776a7904ae00d6b91d1dd","6568abf80701421fc3443fda","1","","","","","","","","","","","","null","stimulus/SV_PolicingMSA/CA_8990/IMG_13_8990.jpg","null","","","","","","3","","","","","",""
"street view slide show","image-button-response","45","265768","0.0-45.0","","656776a7904ae00d6b91d1dd","6568abf80701421fc3443fda","1","","","","","","","","","","","","null","stimulus/SV_PolicingMSA/CA_8990/IMG_5_8990.jpg","null","","","","","","3","","","","","",""
"street view slide show","image-button-response","46","266785","0.0-46.0","","656776a7904ae00d6b91d1dd","6568abf80701421fc3443fda","1","","","","","","","","","","","","null","stimulus/SV_PolicingMSA/CA_8990/IMG_2_8990.jpg","null","","","","","","3","","","","","",""
"street view slide show","image-button-response","47","267799","0.0-47.0","","656776a7904ae00d6b91d1dd","6568abf80701421fc3443fda","1","","","","","","","","","","","","null","stimulus/SV_PolicingMSA/CA_8990/IMG_14_8990.jpg","null","","","","","","3","","","","","",""
"street view slide show","image-button-response","48","268813","0.0-48.0","","656776a7904ae00d6b91d1dd","6568abf80701421fc3443fda","1","","","","","","","","","","","","null","stimulus/SV_PolicingMSA/CA_8990/IMG_12_8990.jpg","null","","","","","","3","","","","","",""
"street view slide show","image-button-response","49","269829","0.0-49.0","","656776a7904ae00d6b91d1dd","6568abf80701421fc3443fda","1","","","","","","","","","","","","null","stimulus/SV_PolicingMSA/CA_8990/IMG_10_8990.jpg","null","","","","","","3","","","","","",""
"dot matrix survey1","survey","50","296889","0.0-50.0","","656776a7904ae00d6b91d1dd","6568abf80701421fc3443fda","1","","","","","","","","","","","","27046","","{""P0_Q0"":null,""P0_Q1"":{""wealthy"":0,""safe"":1,""walkable"":2,""traditional"":1,""diverse"":1}}","","","","","","3","[]","","","","",""
"dot matrix survey2","survey","51","306247","0.0-51.0","","656776a7904ae00d6b91d1dd","6568abf80701421fc3443fda","1","","","","","","","","","","","","9351","","{""P0_Q0"":null,""P0_Q1"":{""violence"":3,""crime"":3,""drug"":4,""schools"":0,""opportunities"":0}}","","","","","","3","[]","","","","",""
"dot matrix survey3","survey","52","322100","0.0-52.0","","656776a7904ae00d6b91d1dd","6568abf80701421fc3443fda","1","","","","","","","","","","","","15845","","{""P0_Q0"":null,""P0_Q1"":{""movein"":1,""moveout"":3,""shopping"":2,""walk"":1,""park"":2,""school"":2}}","","","","","","3","[]","","","","",""
"sliderTrial","html-slider-response","53","325283","0.0-53.0","","656776a7904ae00d6b91d1dd","6568abf80701421fc3443fda","1","","","","","","","","","","","","3181","[""SV_PolicingMSA/CA_8990/IMG_8_8990.jpg"",""SV_PolicingMSA/CA_8990/IMG_9_8990.jpg"",""SV_PolicingMSA/CA_8990/IMG_13_8990.jpg"",""SV_PolicingMSA/CA_8990/IMG_5_8990.jpg"",""SV_PolicingMSA/CA_8990/IMG_2_8990.jpg"",""SV_PolicingMSA/CA_8990/IMG_14_8990.jpg"",""SV_PolicingMSA/CA_8990/IMG_12_8990.jpg"",""SV_PolicingMSA/CA_8990/IMG_10_8990.jpg""]","3","","","","","","3","","4","[""./rc_img/cop_condGroup_14_CommunitySafety_autoscaled.png"",""./rc_img/cop_condGroup_14_SafeStreets_autoscaled.png""]","3","",""
"sliderTrial","html-slider-response","54","327359","0.0-54.0","","656776a7904ae00d6b91d1dd","6568abf80701421fc3443fda","1","","","","","","","","","","","","2075","[""SV_PolicingMSA/CA_8990/IMG_8_8990.jpg"",""SV_PolicingMSA/CA_8990/IMG_9_8990.jpg"",""SV_PolicingMSA/CA_8990/IMG_13_8990.jpg"",""SV_PolicingMSA/CA_8990/IMG_5_8990.jpg"",""SV_PolicingMSA/CA_8990/IMG_2_8990.jpg"",""SV_PolicingMSA/CA_8990/IMG_14_8990.jpg"",""SV_PolicingMSA/CA_8990/IMG_12_8990.jpg"",""SV_PolicingMSA/CA_8990/IMG_10_8990.jpg""]","5","","","","","","3","","4","[""./rc_img/cop_condGroup_18_SafeStreets_autoscaled.png"",""./rc_img/cop_condGroup_18_CommunitySafety_autoscaled.png""]","3","",""
"sliderTrial","html-slider-response","55","329650","0.0-55.0","","656776a7904ae00d6b91d1dd","6568abf80701421fc3443fda","1","","","","","","","","","","","","2290","[""SV_PolicingMSA/CA_8990/IMG_8_8990.jpg"",""SV_PolicingMSA/CA_8990/IMG_9_8990.jpg"",""SV_PolicingMSA/CA_8990/IMG_13_8990.jpg"",""SV_PolicingMSA/CA_8990/IMG_5_8990.jpg"",""SV_PolicingMSA/CA_8990/IMG_2_8990.jpg"",""SV_PolicingMSA/CA_8990/IMG_14_8990.jpg"",""SV_PolicingMSA/CA_8990/IMG_12_8990.jpg"",""SV_PolicingMSA/CA_8990/IMG_10_8990.jpg""]","3","","","","","","3","","4","[""./rc_img/cop_condGroup_19_CommunitySafety_autoscaled.png"",""./rc_img/cop_condGroup_19_SafeStreets_autoscaled.png""]","3","",""
"sliderTrial","html-slider-response","56","335040","0.0-56.0","","656776a7904ae00d6b91d1dd","6568abf80701421fc3443fda","1","","","","","","","","","","","","5390","[""SV_PolicingMSA/CA_8990/IMG_8_8990.jpg"",""SV_PolicingMSA/CA_8990/IMG_9_8990.jpg"",""SV_PolicingMSA/CA_8990/IMG_13_8990.jpg"",""SV_PolicingMSA/CA_8990/IMG_5_8990.jpg"",""SV_PolicingMSA/CA_8990/IMG_2_8990.jpg"",""SV_PolicingMSA/CA_8990/IMG_14_8990.jpg"",""SV_PolicingMSA/CA_8990/IMG_12_8990.jpg"",""SV_PolicingMSA/CA_8990/IMG_10_8990.jpg""]","3","","","","","","3","","4","[""./rc_img/cop_condGroup_17_CommunitySafety_autoscaled.png"",""./rc_img/cop_condGroup_17_SafeStreets_autoscaled.png""]","3","",""
"sliderTrial","html-slider-response","57","337885","0.0-57.0","","656776a7904ae00d6b91d1dd","6568abf80701421fc3443fda","1","","","","","","","","","","","","2845","[""SV_PolicingMSA/CA_8990/IMG_8_8990.jpg"",""SV_PolicingMSA/CA_8990/IMG_9_8990.jpg"",""SV_PolicingMSA/CA_8990/IMG_13_8990.jpg"",""SV_PolicingMSA/CA_8990/IMG_5_8990.jpg"",""SV_PolicingMSA/CA_8990/IMG_2_8990.jpg"",""SV_PolicingMSA/CA_8990/IMG_14_8990.jpg"",""SV_PolicingMSA/CA_8990/IMG_12_8990.jpg"",""SV_PolicingMSA/CA_8990/IMG_10_8990.jpg""]","3","","","","","","3","","4","[""./rc_img/cop_condGroup_20_CommunitySafety_autoscaled.png"",""./rc_img/cop_condGroup_20_SafeStreets_autoscaled.png""]","3","",""
"before_SVSlide_prompt","html-button-response","58","339250","0.0-58.0","","656776a7904ae00d6b91d1dd","6568abf80701421fc3443fda","1","","","","","","","","","","","","1363","Click [Next] to see the next neighborhood!","0","","","","","","","","","","","",""
"street view slide show","image-button-response","59","340370","0.0-59.0","","656776a7904ae00d6b91d1dd","6568abf80701421fc3443fda","1","","","","","","","","","","","","null","stimulus/SV_PolicingMSA/CA_2011/IMG_0_2011.jpg","null","","","","","","2","","","","","",""
"street view slide show","image-button-response","60","341378","0.0-60.0","","656776a7904ae00d6b91d1dd","6568abf80701421fc3443fda","1","","","","","","","","","","","","null","stimulus/SV_PolicingMSA/CA_2011/IMG_1_2011.jpg","null","","","","","","2","","","","","",""
"street view slide show","image-button-response","61","342390","0.0-61.0","","656776a7904ae00d6b91d1dd","6568abf80701421fc3443fda","1","","","","","","","","","","","","null","stimulus/SV_PolicingMSA/CA_2011/IMG_6_2011.jpg","null","","","","","","2","","","","","",""
"street view slide show","image-button-response","62","343403","0.0-62.0","","656776a7904ae00d6b91d1dd","6568abf80701421fc3443fda","1","","","","","","","","","","","","null","stimulus/SV_PolicingMSA/CA_2011/IMG_14_2011.jpg","null","","","","","","2","","","","","",""
"street view slide show","image-button-response","63","344418","0.0-63.0","","656776a7904ae00d6b91d1dd","6568abf80701421fc3443fda","1","","","","","","","","","","","","null","stimulus/SV_PolicingMSA/CA_2011/IMG_9_2011.jpg","null","","","","","","2","","","","","",""
"street view slide show","image-button-response","64","345432","0.0-64.0","","656776a7904ae00d6b91d1dd","6568abf80701421fc3443fda","1","","","","","","","","","","","","null","stimulus/SV_PolicingMSA/CA_2011/IMG_13_2011.jpg","null","","","","","","2","","","","","",""
"street view slide show","image-button-response","65","346455","0.0-65.0","","656776a7904ae00d6b91d1dd","6568abf80701421fc3443fda","1","","","","","","","","","","","","null","stimulus/SV_PolicingMSA/CA_2011/IMG_11_2011.jpg","null","","","","","","2","","","","","",""
"street view slide show","image-button-response","66","347469","0.0-66.0","","656776a7904ae00d6b91d1dd","6568abf80701421fc3443fda","1","","","","","","","","","","","","null","stimulus/SV_PolicingMSA/CA_2011/IMG_5_2011.jpg","null","","","","","","2","","","","","",""
"dot matrix survey1","survey","67","367310","0.0-67.0","","656776a7904ae00d6b91d1dd","6568abf80701421fc3443fda","1","","","","","","","","","","","","19827","","{""P0_Q0"":null,""P0_Q1"":{""wealthy"":0,""safe"":1,""walkable"":1,""traditional"":2,""diverse"":1}}","","","","","","2","[]","","","","",""
"dot matrix survey2","survey","68","377678","0.0-68.0","","656776a7904ae00d6b91d1dd","6568abf80701421fc3443fda","1","","","","","","","","","","","","10362","","{""P0_Q0"":null,""P0_Q1"":{""violence"":3,""crime"":3,""drug"":4,""schools"":0,""opportunities"":0}}","","","","","","2","[]","","","","",""
"dot matrix survey3","survey","69","391502","0.0-69.0","","656776a7904ae00d6b91d1dd","6568abf80701421fc3443fda","1","","","","","","","","","","","","13818","","{""P0_Q0"":null,""P0_Q1"":{""movein"":1,""moveout"":3,""shopping"":2,""walk"":2,""park"":2,""school"":2}}","","","","","","2","[]","","","","",""
"sliderTrial","html-slider-response","70","394497","0.0-70.0","","656776a7904ae00d6b91d1dd","6568abf80701421fc3443fda","1","","","","","","","","","","","","2992","[""SV_PolicingMSA/CA_2011/IMG_0_2011.jpg"",""SV_PolicingMSA/CA_2011/IMG_1_2011.jpg"",""SV_PolicingMSA/CA_2011/IMG_6_2011.jpg"",""SV_PolicingMSA/CA_2011/IMG_14_2011.jpg"",""SV_PolicingMSA/CA_2011/IMG_9_2011.jpg"",""SV_PolicingMSA/CA_2011/IMG_13_2011.jpg"",""SV_PolicingMSA/CA_2011/IMG_11_2011.jpg"",""SV_PolicingMSA/CA_2011/IMG_5_2011.jpg""]","3","","","","","","2","","4","[""./rc_img/cop_condGroup_16_CommunitySafety_autoscaled.png"",""./rc_img/cop_condGroup_16_SafeStreets_autoscaled.png""]","3","",""
"sliderTrial","html-slider-response","71","396467","0.0-71.0","","656776a7904ae00d6b91d1dd","6568abf80701421fc3443fda","1","","","","","","","","","","","","1970","[""SV_PolicingMSA/CA_2011/IMG_0_2011.jpg"",""SV_PolicingMSA/CA_2011/IMG_1_2011.jpg"",""SV_PolicingMSA/CA_2011/IMG_6_2011.jpg"",""SV_PolicingMSA/CA_2011/IMG_14_2011.jpg"",""SV_PolicingMSA/CA_2011/IMG_9_2011.jpg"",""SV_PolicingMSA/CA_2011/IMG_13_2011.jpg"",""SV_PolicingMSA/CA_2011/IMG_11_2011.jpg"",""SV_PolicingMSA/CA_2011/IMG_5_2011.jpg""]","5","","","","","","2","","4","[""./rc_img/cop_condGroup_11_SafeStreets_autoscaled.png"",""./rc_img/cop_condGroup_11_CommunitySafety_autoscaled.png""]","3","",""
"sliderTrial","html-slider-response","72","400875","0.0-72.0","","656776a7904ae00d6b91d1dd","6568abf80701421fc3443fda","1","","","","","","","","","","","","4406","[""SV_PolicingMSA/CA_2011/IMG_0_2011.jpg"",""SV_PolicingMSA/CA_2011/IMG_1_2011.jpg"",""SV_PolicingMSA/CA_2011/IMG_6_2011.jpg"",""SV_PolicingMSA/CA_2011/IMG_14_2011.jpg"",""SV_PolicingMSA/CA_2011/IMG_9_2011.jpg"",""SV_PolicingMSA/CA_2011/IMG_13_2011.jpg"",""SV_PolicingMSA/CA_2011/IMG_11_2011.jpg"",""SV_PolicingMSA/CA_2011/IMG_5_2011.jpg""]","3","","","","","","2","","4","[""./rc_img/cop_condGroup_7_CommunitySafety_autoscaled.png"",""./rc_img/cop_condGroup_7_SafeStreets_autoscaled.png""]","3","",""
"sliderTrial","html-slider-response","73","403967","0.0-73.0","","656776a7904ae00d6b91d1dd","6568abf80701421fc3443fda","1","","","","","","","","","","","","3092","[""SV_PolicingMSA/CA_2011/IMG_0_2011.jpg"",""SV_PolicingMSA/CA_2011/IMG_1_2011.jpg"",""SV_PolicingMSA/CA_2011/IMG_6_2011.jpg"",""SV_PolicingMSA/CA_2011/IMG_14_2011.jpg"",""SV_PolicingMSA/CA_2011/IMG_9_2011.jpg"",""SV_PolicingMSA/CA_2011/IMG_13_2011.jpg"",""SV_PolicingMSA/CA_2011/IMG_11_2011.jpg"",""SV_PolicingMSA/CA_2011/IMG_5_2011.jpg""]","3","","","","","","2","","4","[""./rc_img/cop_condGroup_15_CommunitySafety_autoscaled.png"",""./rc_img/cop_condGroup_15_SafeStreets_autoscaled.png""]","3","",""
"sliderTrial","html-slider-response","74","406639","0.0-74.0","","656776a7904ae00d6b91d1dd","6568abf80701421fc3443fda","1","","","","","","","","","","","","2670","[""SV_PolicingMSA/CA_2011/IMG_0_2011.jpg"",""SV_PolicingMSA/CA_2011/IMG_1_2011.jpg"",""SV_PolicingMSA/CA_2011/IMG_6_2011.jpg"",""SV_PolicingMSA/CA_2011/IMG_14_2011.jpg"",""SV_PolicingMSA/CA_2011/IMG_9_2011.jpg"",""SV_PolicingMSA/CA_2011/IMG_13_2011.jpg"",""SV_PolicingMSA/CA_2011/IMG_11_2011.jpg"",""SV_PolicingMSA/CA_2011/IMG_5_2011.jpg""]","3","","","","","","2","","4","[""./rc_img/cop_condGroup_13_CommunitySafety_autoscaled.png"",""./rc_img/cop_condGroup_13_SafeStreets_autoscaled.png""]","3","",""
"half-way","html-button-response","75","422403","0.0-75.0","","656776a7904ae00d6b91d1dd","6568abf80701421fc3443fda","1","","","","","","","","","","","","null","
    <h3>You are now half way through the study.</h3>
    <p>Please take a quick, 15-second break before you continue.</p>
    <img src='assets/img/countdown-15.gif'>
    <p>The study will automatically advance forward after the countdown is complete. <br> However, you may click ""Next"" to advance forward now if you wish.</p>
    ","null","","","","","","","","","","","",""
"before_SVSlide_prompt","html-button-response","76","462296","0.0-76.0","","656776a7904ae00d6b91d1dd","6568abf80701421fc3443fda","1","","","","","","","","","","","","39892","Click [Next] to see the next neighborhood!","0","","","","","","","","","","","",""
"street view slide show","image-button-response","77","463311","0.0-77.0","","656776a7904ae00d6b91d1dd","6568abf80701421fc3443fda","1","","","","","","","","","","","","null","stimulus/SV_PolicingMSA/CA_2534/IMG_14_2534.jpg","null","","","","","","0","","","","","",""
"street view slide show","image-button-response","78","464325","0.0-78.0","","656776a7904ae00d6b91d1dd","6568abf80701421fc3443fda","1","","","","","","","","","","","","null","stimulus/SV_PolicingMSA/CA_2534/IMG_5_2534.jpg","null","","","","","","0","","","","","",""
"street view slide show","image-button-response","79","465338","0.0-79.0","","656776a7904ae00d6b91d1dd","6568abf80701421fc3443fda","1","","","","","","","","","","","","null","stimulus/SV_PolicingMSA/CA_2534/IMG_1_2534.jpg","null","","","","","","0","","","","","",""
"street view slide show","image-button-response","80","466446","0.0-80.0","","656776a7904ae00d6b91d1dd","6568abf80701421fc3443fda","1","","","","","","","","","","","","null","stimulus/SV_PolicingMSA/CA_2534/IMG_11_2534.jpg","null","","","","","","0","","","","","",""
"street view slide show","image-button-response","81","467459","0.0-81.0","","656776a7904ae00d6b91d1dd","6568abf80701421fc3443fda","1","","","","","","","","","","","","null","stimulus/SV_PolicingMSA/CA_2534/IMG_8_2534.jpg","null","","","","","","0","","","","","",""
"street view slide show","image-button-response","82","468475","0.0-82.0","","656776a7904ae00d6b91d1dd","6568abf80701421fc3443fda","1","","","","","","","","","","","","null","stimulus/SV_PolicingMSA/CA_2534/IMG_10_2534.jpg","null","","","","","","0","","","","","",""
"street view slide show","image-button-response","83","469581","0.0-83.0","","656776a7904ae00d6b91d1dd","6568abf80701421fc3443fda","1","","","","","","","","","","","","null","stimulus/SV_PolicingMSA/CA_2534/IMG_4_2534.jpg","null","","","","","","0","","","","","",""
"street view slide show","image-button-response","84","470595","0.0-84.0","","656776a7904ae00d6b91d1dd","6568abf80701421fc3443fda","1","","","","","","","","","","","","null","stimulus/SV_PolicingMSA/CA_2534/IMG_6_2534.jpg","null","","","","","","0","","","","","",""
"dot matrix survey1","survey","85","509356","0.0-85.0","","656776a7904ae00d6b91d1dd","6568abf80701421fc3443fda","1","","","","","","","","","","","","38732","","{""P0_Q0"":null,""P0_Q1"":{""wealthy"":0,""safe"":1,""walkable"":1,""traditional"":1,""diverse"":1}}","","","","","","0","[]","","","","",""
"dot matrix survey2","survey","86","519393","0.0-86.0","","656776a7904ae00d6b91d1dd","6568abf80701421fc3443fda","1","","","","","","","","","","","","10026","","{""P0_Q0"":null,""P0_Q1"":{""violence"":3,""crime"":3,""drug"":4,""schools"":0,""opportunities"":0}}","","","","","","0","[]","","","","",""
"dot matrix survey3","survey","87","531605","0.0-87.0","","656776a7904ae00d6b91d1dd","6568abf80701421fc3443fda","1","","","","","","","","","","","","12204","","{""P0_Q0"":null,""P0_Q1"":{""movein"":0,""moveout"":3,""shopping"":2,""walk"":1,""park"":2,""school"":2}}","","","","","","0","[]","","","","",""
"sliderTrial","html-slider-response","88","534680","0.0-88.0","","656776a7904ae00d6b91d1dd","6568abf80701421fc3443fda","1","","","","","","","","","","","","3072","[""SV_PolicingMSA/CA_2534/IMG_14_2534.jpg"",""SV_PolicingMSA/CA_2534/IMG_5_2534.jpg"",""SV_PolicingMSA/CA_2534/IMG_1_2534.jpg"",""SV_PolicingMSA/CA_2534/IMG_11_2534.jpg"",""SV_PolicingMSA/CA_2534/IMG_8_2534.jpg"",""SV_PolicingMSA/CA_2534/IMG_10_2534.jpg"",""SV_PolicingMSA/CA_2534/IMG_4_2534.jpg"",""SV_PolicingMSA/CA_2534/IMG_6_2534.jpg""]","3","","","","","","0","","4","[""./rc_img/cop_condGroup_1_CommunitySafety_autoscaled.png"",""./rc_img/cop_condGroup_1_SafeStreets_autoscaled.png""]","3","",""
"sliderTrial","html-slider-response","89","536823","0.0-89.0","","656776a7904ae00d6b91d1dd","6568abf80701421fc3443fda","1","","","","","","","","","","","","2143","[""SV_PolicingMSA/CA_2534/IMG_14_2534.jpg"",""SV_PolicingMSA/CA_2534/IMG_5_2534.jpg"",""SV_PolicingMSA/CA_2534/IMG_1_2534.jpg"",""SV_PolicingMSA/CA_2534/IMG_11_2534.jpg"",""SV_PolicingMSA/CA_2534/IMG_8_2534.jpg"",""SV_PolicingMSA/CA_2534/IMG_10_2534.jpg"",""SV_PolicingMSA/CA_2534/IMG_4_2534.jpg"",""SV_PolicingMSA/CA_2534/IMG_6_2534.jpg""]","3","","","","","","0","","4","[""./rc_img/cop_condGroup_4_CommunitySafety_autoscaled.png"",""./rc_img/cop_condGroup_4_SafeStreets_autoscaled.png""]","3","",""
"sliderTrial_attention","html-slider-response","90","546829","0.0-90.0","","656776a7904ae00d6b91d1dd","6568abf80701421fc3443fda","1","","","","","","","","","","","","null","[""SV_PolicingMSA/CA_2534/IMG_14_2534.jpg"",""SV_PolicingMSA/CA_2534/IMG_5_2534.jpg"",""SV_PolicingMSA/CA_2534/IMG_1_2534.jpg"",""SV_PolicingMSA/CA_2534/IMG_11_2534.jpg"",""SV_PolicingMSA/CA_2534/IMG_8_2534.jpg"",""SV_PolicingMSA/CA_2534/IMG_10_2534.jpg"",""SV_PolicingMSA/CA_2534/IMG_4_2534.jpg"",""SV_PolicingMSA/CA_2534/IMG_6_2534.jpg""]","null","","","","","","0","","4","[""./assets/img/attnchk.png"",""./assets/img/attnchk.png""]","","true",""
"sliderTrial","html-slider-response","91","550288","0.0-91.0","","656776a7904ae00d6b91d1dd","6568abf80701421fc3443fda","1","","","","","","","","","","","","3455","[""SV_PolicingMSA/CA_2534/IMG_14_2534.jpg"",""SV_PolicingMSA/CA_2534/IMG_5_2534.jpg"",""SV_PolicingMSA/CA_2534/IMG_1_2534.jpg"",""SV_PolicingMSA/CA_2534/IMG_11_2534.jpg"",""SV_PolicingMSA/CA_2534/IMG_8_2534.jpg"",""SV_PolicingMSA/CA_2534/IMG_10_2534.jpg"",""SV_PolicingMSA/CA_2534/IMG_4_2534.jpg"",""SV_PolicingMSA/CA_2534/IMG_6_2534.jpg""]","3","","","","","","0","","4","[""./rc_img/cop_condGroup_3_CommunitySafety_autoscaled.png"",""./rc_img/cop_condGroup_3_SafeStreets_autoscaled.png""]","3","",""
"sliderTrial","html-slider-response","92","552841","0.0-92.0","","656776a7904ae00d6b91d1dd","6568abf80701421fc3443fda","1","","","","","","","","","","","","2552","[""SV_PolicingMSA/CA_2534/IMG_14_2534.jpg"",""SV_PolicingMSA/CA_2534/IMG_5_2534.jpg"",""SV_PolicingMSA/CA_2534/IMG_1_2534.jpg"",""SV_PolicingMSA/CA_2534/IMG_11_2534.jpg"",""SV_PolicingMSA/CA_2534/IMG_8_2534.jpg"",""SV_PolicingMSA/CA_2534/IMG_10_2534.jpg"",""SV_PolicingMSA/CA_2534/IMG_4_2534.jpg"",""SV_PolicingMSA/CA_2534/IMG_6_2534.jpg""]","3","","","","","","0","","4","[""./rc_img/cop_condGroup_2_CommunitySafety_autoscaled.png"",""./rc_img/cop_condGroup_2_SafeStreets_autoscaled.png""]","3","",""
"sliderTrial","html-slider-response","93","555455","0.0-93.0","","656776a7904ae00d6b91d1dd","6568abf80701421fc3443fda","1","","","","","","","","","","","","2613","[""SV_PolicingMSA/CA_2534/IMG_14_2534.jpg"",""SV_PolicingMSA/CA_2534/IMG_5_2534.jpg"",""SV_PolicingMSA/CA_2534/IMG_1_2534.jpg"",""SV_PolicingMSA/CA_2534/IMG_11_2534.jpg"",""SV_PolicingMSA/CA_2534/IMG_8_2534.jpg"",""SV_PolicingMSA/CA_2534/IMG_10_2534.jpg"",""SV_PolicingMSA/CA_2534/IMG_4_2534.jpg"",""SV_PolicingMSA/CA_2534/IMG_6_2534.jpg""]","5","","","","","","0","","4","[""./rc_img/cop_condGroup_8_SafeStreets_autoscaled.png"",""./rc_img/cop_condGroup_8_CommunitySafety_autoscaled.png""]","3","",""
"before_SVSlide_prompt","html-button-response","94","557155","0.0-94.0","","656776a7904ae00d6b91d1dd","6568abf80701421fc3443fda","1","","","","","","","","","","","","1698","Click [Next] to see the next neighborhood!","0","","","","","","","","","","","",""
"street view slide show","image-button-response","95","558160","0.0-95.0","","656776a7904ae00d6b91d1dd","6568abf80701421fc3443fda","1","","","","","","","","","","","","null","stimulus/SV_PolicingMSA/CA_2537/IMG_10_2537.jpg","null","","","","","","2","","","","","",""
"street view slide show","image-button-response","96","559166","0.0-96.0","","656776a7904ae00d6b91d1dd","6568abf80701421fc3443fda","1","","","","","","","","","","","","null","stimulus/SV_PolicingMSA/CA_2537/IMG_4_2537.jpg","null","","","","","","2","","","","","",""
"street view slide show","image-button-response","97","560181","0.0-97.0","","656776a7904ae00d6b91d1dd","6568abf80701421fc3443fda","1","","","","","","","","","","","","null","stimulus/SV_PolicingMSA/CA_2537/IMG_9_2537.jpg","null","","","","","","2","","","","","",""
"street view slide show","image-button-response","98","561193","0.0-98.0","","656776a7904ae00d6b91d1dd","6568abf80701421fc3443fda","1","","","","","","","","","","","","null","stimulus/SV_PolicingMSA/CA_2537/IMG_8_2537.jpg","null","","","","","","2","","","","","",""
"street view slide show","image-button-response","99","562206","0.0-99.0","","656776a7904ae00d6b91d1dd","6568abf80701421fc3443fda","1","","","","","","","","","","","","null","stimulus/SV_PolicingMSA/CA_2537/IMG_6_2537.jpg","null","","","","","","2","","","","","",""
"street view slide show","image-button-response","100","563221","0.0-100.0","","656776a7904ae00d6b91d1dd","6568abf80701421fc3443fda","1","","","","","","","","","","","","null","stimulus/SV_PolicingMSA/CA_2537/IMG_7_2537.jpg","null","","","","","","2","","","","","",""
"street view slide show","image-button-response","101","564237","0.0-101.0","","656776a7904ae00d6b91d1dd","6568abf80701421fc3443fda","1","","","","","","","","","","","","null","stimulus/SV_PolicingMSA/CA_2537/IMG_12_2537.jpg","null","","","","","","2","","","","","",""
"street view slide show","image-button-response","102","565252","0.0-102.0","","656776a7904ae00d6b91d1dd","6568abf80701421fc3443fda","1","","","","","","","","","","","","null","stimulus/SV_PolicingMSA/CA_2537/IMG_2_2537.jpg","null","","","","","","2","","","","","",""
"dot matrix survey1","survey","103","576613","0.0-103.0","","656776a7904ae00d6b91d1dd","6568abf80701421fc3443fda","1","","","","","","","","","","","","11296","","{""P0_Q0"":null,""P0_Q1"":{""wealthy"":1,""safe"":2,""walkable"":2,""traditional"":2,""diverse"":2}}","","","","","","2","[]","","","","",""
"dot matrix survey2","survey","104","589373","0.0-104.0","","656776a7904ae00d6b91d1dd","6568abf80701421fc3443fda","1","","","","","","","","","","","","12751","","{""P0_Q0"":null,""P0_Q1"":{""violence"":3,""crime"":3,""drug"":3,""schools"":1,""opportunities"":1}}","","","","","","2","[]","","","","",""
"dot matrix survey3","survey","105","604804","0.0-105.0","","656776a7904ae00d6b91d1dd","6568abf80701421fc3443fda","1","","","","","","","","","","","","15423","","{""P0_Q0"":null,""P0_Q1"":{""movein"":2,""moveout"":3,""shopping"":3,""walk"":2,""park"":2,""school"":2}}","","","","","","2","[]","","","","",""
"sliderTrial","html-slider-response","106","607661","0.0-106.0","","656776a7904ae00d6b91d1dd","6568abf80701421fc3443fda","1","","","","","","","","","","","","2854","[""SV_PolicingMSA/CA_2537/IMG_10_2537.jpg"",""SV_PolicingMSA/CA_2537/IMG_4_2537.jpg"",""SV_PolicingMSA/CA_2537/IMG_9_2537.jpg"",""SV_PolicingMSA/CA_2537/IMG_8_2537.jpg"",""SV_PolicingMSA/CA_2537/IMG_6_2537.jpg"",""SV_PolicingMSA/CA_2537/IMG_7_2537.jpg"",""SV_PolicingMSA/CA_2537/IMG_12_2537.jpg"",""SV_PolicingMSA/CA_2537/IMG_2_2537.jpg""]","3","","","","","","2","","4","[""./rc_img/cop_condGroup_1_CommunitySafety_autoscaled.png"",""./rc_img/cop_condGroup_1_SafeStreets_autoscaled.png""]","3","",""
"sliderTrial","html-slider-response","107","609715","0.0-107.0","","656776a7904ae00d6b91d1dd","6568abf80701421fc3443fda","1","","","","","","","","","","","","2052","[""SV_PolicingMSA/CA_2537/IMG_10_2537.jpg"",""SV_PolicingMSA/CA_2537/IMG_4_2537.jpg"",""SV_PolicingMSA/CA_2537/IMG_9_2537.jpg"",""SV_PolicingMSA/CA_2537/IMG_8_2537.jpg"",""SV_PolicingMSA/CA_2537/IMG_6_2537.jpg"",""SV_PolicingMSA/CA_2537/IMG_7_2537.jpg"",""SV_PolicingMSA/CA_2537/IMG_12_2537.jpg"",""SV_PolicingMSA/CA_2537/IMG_2_2537.jpg""]","3","","","","","","2","","4","[""./rc_img/cop_condGroup_4_CommunitySafety_autoscaled.png"",""./rc_img/cop_condGroup_4_SafeStreets_autoscaled.png""]","3","",""
"sliderTrial","html-slider-response","108","611676","0.0-108.0","","656776a7904ae00d6b91d1dd","6568abf80701421fc3443fda","1","","","","","","","","","","","","1961","[""SV_PolicingMSA/CA_2537/IMG_10_2537.jpg"",""SV_PolicingMSA/CA_2537/IMG_4_2537.jpg"",""SV_PolicingMSA/CA_2537/IMG_9_2537.jpg"",""SV_PolicingMSA/CA_2537/IMG_8_2537.jpg"",""SV_PolicingMSA/CA_2537/IMG_6_2537.jpg"",""SV_PolicingMSA/CA_2537/IMG_7_2537.jpg"",""SV_PolicingMSA/CA_2537/IMG_12_2537.jpg"",""SV_PolicingMSA/CA_2537/IMG_2_2537.jpg""]","3","","","","","","2","","4","[""./rc_img/cop_condGroup_3_CommunitySafety_autoscaled.png"",""./rc_img/cop_condGroup_3_SafeStreets_autoscaled.png""]","3","",""
"sliderTrial","html-slider-response","109","613541","0.0-109.0","","656776a7904ae00d6b91d1dd","6568abf80701421fc3443fda","1","","","","","","","","","","","","1864","[""SV_PolicingMSA/CA_2537/IMG_10_2537.jpg"",""SV_PolicingMSA/CA_2537/IMG_4_2537.jpg"",""SV_PolicingMSA/CA_2537/IMG_9_2537.jpg"",""SV_PolicingMSA/CA_2537/IMG_8_2537.jpg"",""SV_PolicingMSA/CA_2537/IMG_6_2537.jpg"",""SV_PolicingMSA/CA_2537/IMG_7_2537.jpg"",""SV_PolicingMSA/CA_2537/IMG_12_2537.jpg"",""SV_PolicingMSA/CA_2537/IMG_2_2537.jpg""]","3","","","","","","2","","4","[""./rc_img/cop_condGroup_2_CommunitySafety_autoscaled.png"",""./rc_img/cop_condGroup_2_SafeStreets_autoscaled.png""]","3","",""
"sliderTrial","html-slider-response","110","615488","0.0-110.0","","656776a7904ae00d6b91d1dd","6568abf80701421fc3443fda","1","","","","","","","","","","","","1946","[""SV_PolicingMSA/CA_2537/IMG_10_2537.jpg"",""SV_PolicingMSA/CA_2537/IMG_4_2537.jpg"",""SV_PolicingMSA/CA_2537/IMG_9_2537.jpg"",""SV_PolicingMSA/CA_2537/IMG_8_2537.jpg"",""SV_PolicingMSA/CA_2537/IMG_6_2537.jpg"",""SV_PolicingMSA/CA_2537/IMG_7_2537.jpg"",""SV_PolicingMSA/CA_2537/IMG_12_2537.jpg"",""SV_PolicingMSA/CA_2537/IMG_2_2537.jpg""]","5","","","","","","2","","4","[""./rc_img/cop_condGroup_8_SafeStreets_autoscaled.png"",""./rc_img/cop_condGroup_8_CommunitySafety_autoscaled.png""]","3","",""
"before_SVSlide_prompt","html-button-response","111","616906","0.0-111.0","","656776a7904ae00d6b91d1dd","6568abf80701421fc3443fda","1","","","","","","","","","","","","1416","Click [Next] to see the next neighborhood!","0","","","","","","","","","","","",""
"street view slide show","image-button-response","112","617988","0.0-112.0","","656776a7904ae00d6b91d1dd","6568abf80701421fc3443fda","1","","","","","","","","","","","","null","stimulus/SV_PolicingMSA/CA_2555/IMG_8_2555.jpg","null","","","","","","3","","","","","",""
"street view slide show","image-button-response","113","619005","0.0-113.0","","656776a7904ae00d6b91d1dd","6568abf80701421fc3443fda","1","","","","","","","","","","","","null","stimulus/SV_PolicingMSA/CA_2555/IMG_13_2555.jpg","null","","","","","","3","","","","","",""
"street view slide show","image-button-response","114","620018","0.0-114.0","","656776a7904ae00d6b91d1dd","6568abf80701421fc3443fda","1","","","","","","","","","","","","null","stimulus/SV_PolicingMSA/CA_2555/IMG_3_2555.jpg","null","","","","","","3","","","","","",""
"street view slide show","image-button-response","115","621036","0.0-115.0","","656776a7904ae00d6b91d1dd","6568abf80701421fc3443fda","1","","","","","","","","","","","","null","stimulus/SV_PolicingMSA/CA_2555/IMG_14_2555.jpg","null","","","","","","3","","","","","",""
"street view slide show","image-button-response","116","622048","0.0-116.0","","656776a7904ae00d6b91d1dd","6568abf80701421fc3443fda","1","","","","","","","","","","","","null","stimulus/SV_PolicingMSA/CA_2555/IMG_9_2555.jpg","null","","","","","","3","","","","","",""
"street view slide show","image-button-response","117","623068","0.0-117.0","","656776a7904ae00d6b91d1dd","6568abf80701421fc3443fda","1","","","","","","","","","","","","null","stimulus/SV_PolicingMSA/CA_2555/IMG_6_2555.jpg","null","","","","","","3","","","","","",""
"street view slide show","image-button-response","118","624084","0.0-118.0","","656776a7904ae00d6b91d1dd","6568abf80701421fc3443fda","1","","","","","","","","","","","","null","stimulus/SV_PolicingMSA/CA_2555/IMG_2_2555.jpg","null","","","","","","3","","","","","",""
"street view slide show","image-button-response","119","625088","0.0-119.0","","656776a7904ae00d6b91d1dd","6568abf80701421fc3443fda","1","","","","","","","","","","","","null","stimulus/SV_PolicingMSA/CA_2555/IMG_7_2555.jpg","null","","","","","","3","","","","","",""
"dot matrix survey1","survey","120","645189","0.0-120.0","","656776a7904ae00d6b91d1dd","6568abf80701421fc3443fda","1","","","","","","","","","","","","20083","","{""P0_Q0"":null,""P0_Q1"":{""wealthy"":3,""safe"":3,""walkable"":0,""traditional"":3,""diverse"":1}}","","","","","","3","[]","","","","",""
"dot matrix survey2","survey","121","668716","0.0-121.0","","656776a7904ae00d6b91d1dd","6568abf80701421fc3443fda","1","","","","","","","","","","","","23517","","{""P0_Q0"":null,""P0_Q1"":{""violence"":0,""crime"":0,""drug"":2,""schools"":3,""opportunities"":3}}","","","","","","3","[]","","","","",""
"dot matrix survey3","survey","122","681712","0.0-122.0","","656776a7904ae00d6b91d1dd","6568abf80701421fc3443fda","1","","","","","","","","","","","","12977","","{""P0_Q0"":null,""P0_Q1"":{""movein"":2,""moveout"":3,""shopping"":3,""walk"":3,""park"":3,""school"":3}}","","","","","","3","[]","","","","",""
"sliderTrial","html-slider-response","123","686203","0.0-123.0","","656776a7904ae00d6b91d1dd","6568abf80701421fc3443fda","1","","","","","","","","","","","","4490","[""SV_PolicingMSA/CA_2555/IMG_8_2555.jpg"",""SV_PolicingMSA/CA_2555/IMG_13_2555.jpg"",""SV_PolicingMSA/CA_2555/IMG_3_2555.jpg"",""SV_PolicingMSA/CA_2555/IMG_14_2555.jpg"",""SV_PolicingMSA/CA_2555/IMG_9_2555.jpg"",""SV_PolicingMSA/CA_2555/IMG_6_2555.jpg"",""SV_PolicingMSA/CA_2555/IMG_2_2555.jpg"",""SV_PolicingMSA/CA_2555/IMG_7_2555.jpg""]","3","","","","","","3","","4","[""./rc_img/cop_condGroup_5_CommunitySafety_autoscaled.png"",""./rc_img/cop_condGroup_5_SafeStreets_autoscaled.png""]","3","",""
"sliderTrial","html-slider-response","124","690015","0.0-124.0","","656776a7904ae00d6b91d1dd","6568abf80701421fc3443fda","1","","","","","","","","","","","","3810","[""SV_PolicingMSA/CA_2555/IMG_8_2555.jpg"",""SV_PolicingMSA/CA_2555/IMG_13_2555.jpg"",""SV_PolicingMSA/CA_2555/IMG_3_2555.jpg"",""SV_PolicingMSA/CA_2555/IMG_14_2555.jpg"",""SV_PolicingMSA/CA_2555/IMG_9_2555.jpg"",""SV_PolicingMSA/CA_2555/IMG_6_2555.jpg"",""SV_PolicingMSA/CA_2555/IMG_2_2555.jpg"",""SV_PolicingMSA/CA_2555/IMG_7_2555.jpg""]","5","","","","","","3","","4","[""./rc_img/cop_condGroup_9_SafeStreets_autoscaled.png"",""./rc_img/cop_condGroup_9_CommunitySafety_autoscaled.png""]","3","",""
"sliderTrial","html-slider-response","125","693781","0.0-125.0","","656776a7904ae00d6b91d1dd","6568abf80701421fc3443fda","1","","","","","","","","","","","","3765","[""SV_PolicingMSA/CA_2555/IMG_8_2555.jpg"",""SV_PolicingMSA/CA_2555/IMG_13_2555.jpg"",""SV_PolicingMSA/CA_2555/IMG_3_2555.jpg"",""SV_PolicingMSA/CA_2555/IMG_14_2555.jpg"",""SV_PolicingMSA/CA_2555/IMG_9_2555.jpg"",""SV_PolicingMSA/CA_2555/IMG_6_2555.jpg"",""SV_PolicingMSA/CA_2555/IMG_2_2555.jpg"",""SV_PolicingMSA/CA_2555/IMG_7_2555.jpg""]","3","","","","","","3","","4","[""./rc_img/cop_condGroup_6_CommunitySafety_autoscaled.png"",""./rc_img/cop_condGroup_6_SafeStreets_autoscaled.png""]","3","",""
"sliderTrial","html-slider-response","126","696365","0.0-126.0","","656776a7904ae00d6b91d1dd","6568abf80701421fc3443fda","1","","","","","","","","","","","","2583","[""SV_PolicingMSA/CA_2555/IMG_8_2555.jpg"",""SV_PolicingMSA/CA_2555/IMG_13_2555.jpg"",""SV_PolicingMSA/CA_2555/IMG_3_2555.jpg"",""SV_PolicingMSA/CA_2555/IMG_14_2555.jpg"",""SV_PolicingMSA/CA_2555/IMG_9_2555.jpg"",""SV_PolicingMSA/CA_2555/IMG_6_2555.jpg"",""SV_PolicingMSA/CA_2555/IMG_2_2555.jpg"",""SV_PolicingMSA/CA_2555/IMG_7_2555.jpg""]","5","","","","","","3","","4","[""./rc_img/cop_condGroup_12_SafeStreets_autoscaled.png"",""./rc_img/cop_condGroup_12_CommunitySafety_autoscaled.png""]","3","",""
"sliderTrial","html-slider-response","127","699387","0.0-127.0","","656776a7904ae00d6b91d1dd","6568abf80701421fc3443fda","1","","","","","","","","","","","","3022","[""SV_PolicingMSA/CA_2555/IMG_8_2555.jpg"",""SV_PolicingMSA/CA_2555/IMG_13_2555.jpg"",""SV_PolicingMSA/CA_2555/IMG_3_2555.jpg"",""SV_PolicingMSA/CA_2555/IMG_14_2555.jpg"",""SV_PolicingMSA/CA_2555/IMG_9_2555.jpg"",""SV_PolicingMSA/CA_2555/IMG_6_2555.jpg"",""SV_PolicingMSA/CA_2555/IMG_2_2555.jpg"",""SV_PolicingMSA/CA_2555/IMG_7_2555.jpg""]","3","","","","","","3","","4","[""./rc_img/cop_condGroup_10_CommunitySafety_autoscaled.png"",""./rc_img/cop_condGroup_10_SafeStreets_autoscaled.png""]","3","",""
"before_SVSlide_prompt","html-button-response","128","700761","0.0-128.0","","656776a7904ae00d6b91d1dd","6568abf80701421fc3443fda","1","","","","","","","","","","","","1373","Click [Next] to see the next neighborhood!","0","","","","","","","","","","","",""
"street view slide show","image-button-response","129","701853","0.0-129.0","","656776a7904ae00d6b91d1dd","6568abf80701421fc3443fda","1","","","","","","","","","","","","null","stimulus/SV_PolicingMSA/CA_5098/IMG_5_5098.jpg","null","","","","","","5","","","","","",""
"street view slide show","image-button-response","130","702871","0.0-130.0","","656776a7904ae00d6b91d1dd","6568abf80701421fc3443fda","1","","","","","","","","","","","","null","stimulus/SV_PolicingMSA/CA_5098/IMG_2_5098.jpg","null","","","","","","5","","","","","",""
"street view slide show","image-button-response","131","703882","0.0-131.0","","656776a7904ae00d6b91d1dd","6568abf80701421fc3443fda","1","","","","","","","","","","","","null","stimulus/SV_PolicingMSA/CA_5098/IMG_0_5098.jpg","null","","","","","","5","","","","","",""
"street view slide show","image-button-response","132","704895","0.0-132.0","","656776a7904ae00d6b91d1dd","6568abf80701421fc3443fda","1","","","","","","","","","","","","null","stimulus/SV_PolicingMSA/CA_5098/IMG_14_5098.jpg","null","","","","","","5","","","","","",""
"street view slide show","image-button-response","133","705910","0.0-133.0","","656776a7904ae00d6b91d1dd","6568abf80701421fc3443fda","1","","","","","","","","","","","","null","stimulus/SV_PolicingMSA/CA_5098/IMG_7_5098.jpg","null","","","","","","5","","","","","",""
"street view slide show","image-button-response","134","706928","0.0-134.0","","656776a7904ae00d6b91d1dd","6568abf80701421fc3443fda","1","","","","","","","","","","","","null","stimulus/SV_PolicingMSA/CA_5098/IMG_4_5098.jpg","null","","","","","","5","","","","","",""
"street view slide show","image-button-response","135","707939","0.0-135.0","","656776a7904ae00d6b91d1dd","6568abf80701421fc3443fda","1","","","","","","","","","","","","null","stimulus/SV_PolicingMSA/CA_5098/IMG_11_5098.jpg","null","","","","","","5","","","","","",""
"street view slide show","image-button-response","136","708948","0.0-136.0","","656776a7904ae00d6b91d1dd","6568abf80701421fc3443fda","1","","","","","","","","","","","","null","stimulus/SV_PolicingMSA/CA_5098/IMG_13_5098.jpg","null","","","","","","5","","","","","",""
"dot matrix survey1","survey","137","731564","0.0-137.0","","656776a7904ae00d6b91d1dd","6568abf80701421fc3443fda","1","","","","","","","","","","","","22592","","{""P0_Q0"":null,""P0_Q1"":{""wealthy"":2,""safe"":3,""walkable"":1,""traditional"":2,""diverse"":1}}","","","","","","5","[]","","","","",""
"dot matrix survey2","survey","138","745207","0.0-138.0","","656776a7904ae00d6b91d1dd","6568abf80701421fc3443fda","1","","","","","","","","","","","","13624","","{""P0_Q0"":null,""P0_Q1"":{""violence"":1,""crime"":1,""drug"":2,""schools"":2,""opportunities"":2}}","","","","","","5","[]","","","","",""
"dot matrix survey3","survey","139","754834","0.0-139.0","","656776a7904ae00d6b91d1dd","6568abf80701421fc3443fda","1","","","","","","","","","","","","9617","","{""P0_Q0"":null,""P0_Q1"":{""movein"":2,""moveout"":3,""shopping"":3,""walk"":3,""park"":3,""school"":3}}","","","","","","5","[]","","","","",""
"sliderTrial","html-slider-response","140","757945","0.0-140.0","","656776a7904ae00d6b91d1dd","6568abf80701421fc3443fda","1","","","","","","","","","","","","3109","[""SV_PolicingMSA/CA_5098/IMG_5_5098.jpg"",""SV_PolicingMSA/CA_5098/IMG_2_5098.jpg"",""SV_PolicingMSA/CA_5098/IMG_0_5098.jpg"",""SV_PolicingMSA/CA_5098/IMG_14_5098.jpg"",""SV_PolicingMSA/CA_5098/IMG_7_5098.jpg"",""SV_PolicingMSA/CA_5098/IMG_4_5098.jpg"",""SV_PolicingMSA/CA_5098/IMG_11_5098.jpg"",""SV_PolicingMSA/CA_5098/IMG_13_5098.jpg""]","3","","","","","","5","","4","[""./rc_img/cop_condGroup_14_CommunitySafety_autoscaled.png"",""./rc_img/cop_condGroup_14_SafeStreets_autoscaled.png""]","3","",""
"sliderTrial","html-slider-response","141","760388","0.0-141.0","","656776a7904ae00d6b91d1dd","6568abf80701421fc3443fda","1","","","","","","","","","","","","2441","[""SV_PolicingMSA/CA_5098/IMG_5_5098.jpg"",""SV_PolicingMSA/CA_5098/IMG_2_5098.jpg"",""SV_PolicingMSA/CA_5098/IMG_0_5098.jpg"",""SV_PolicingMSA/CA_5098/IMG_14_5098.jpg"",""SV_PolicingMSA/CA_5098/IMG_7_5098.jpg"",""SV_PolicingMSA/CA_5098/IMG_4_5098.jpg"",""SV_PolicingMSA/CA_5098/IMG_11_5098.jpg"",""SV_PolicingMSA/CA_5098/IMG_13_5098.jpg""]","5","","","","","","5","","4","[""./rc_img/cop_condGroup_18_SafeStreets_autoscaled.png"",""./rc_img/cop_condGroup_18_CommunitySafety_autoscaled.png""]","3","",""
"sliderTrial","html-slider-response","142","763053","0.0-142.0","","656776a7904ae00d6b91d1dd","6568abf80701421fc3443fda","1","","","","","","","","","","","","2663","[""SV_PolicingMSA/CA_5098/IMG_5_5098.jpg"",""SV_PolicingMSA/CA_5098/IMG_2_5098.jpg"",""SV_PolicingMSA/CA_5098/IMG_0_5098.jpg"",""SV_PolicingMSA/CA_5098/IMG_14_5098.jpg"",""SV_PolicingMSA/CA_5098/IMG_7_5098.jpg"",""SV_PolicingMSA/CA_5098/IMG_4_5098.jpg"",""SV_PolicingMSA/CA_5098/IMG_11_5098.jpg"",""SV_PolicingMSA/CA_5098/IMG_13_5098.jpg""]","3","","","","","","5","","4","[""./rc_img/cop_condGroup_19_CommunitySafety_autoscaled.png"",""./rc_img/cop_condGroup_19_SafeStreets_autoscaled.png""]","3","",""
"sliderTrial","html-slider-response","143","765756","0.0-143.0","","656776a7904ae00d6b91d1dd","6568abf80701421fc3443fda","1","","","","","","","","","","","","2701","[""SV_PolicingMSA/CA_5098/IMG_5_5098.jpg"",""SV_PolicingMSA/CA_5098/IMG_2_5098.jpg"",""SV_PolicingMSA/CA_5098/IMG_0_5098.jpg"",""SV_PolicingMSA/CA_5098/IMG_14_5098.jpg"",""SV_PolicingMSA/CA_5098/IMG_7_5098.jpg"",""SV_PolicingMSA/CA_5098/IMG_4_5098.jpg"",""SV_PolicingMSA/CA_5098/IMG_11_5098.jpg"",""SV_PolicingMSA/CA_5098/IMG_13_5098.jpg""]","3","","","","","","5","","4","[""./rc_img/cop_condGroup_17_CommunitySafety_autoscaled.png"",""./rc_img/cop_condGroup_17_SafeStreets_autoscaled.png""]","3","",""
"sliderTrial","html-slider-response","144","769295","0.0-144.0","","656776a7904ae00d6b91d1dd","6568abf80701421fc3443fda","1","","","","","","","","","","","","3539","[""SV_PolicingMSA/CA_5098/IMG_5_5098.jpg"",""SV_PolicingMSA/CA_5098/IMG_2_5098.jpg"",""SV_PolicingMSA/CA_5098/IMG_0_5098.jpg"",""SV_PolicingMSA/CA_5098/IMG_14_5098.jpg"",""SV_PolicingMSA/CA_5098/IMG_7_5098.jpg"",""SV_PolicingMSA/CA_5098/IMG_4_5098.jpg"",""SV_PolicingMSA/CA_5098/IMG_11_5098.jpg"",""SV_PolicingMSA/CA_5098/IMG_13_5098.jpg""]","3","","","","","","5","","4","[""./rc_img/cop_condGroup_20_CommunitySafety_autoscaled.png"",""./rc_img/cop_condGroup_20_SafeStreets_autoscaled.png""]","3","",""
"demographics","survey-html-form","145","815032","0.0-145.0","","656776a7904ae00d6b91d1dd","6568abf80701421fc3443fda","1","","","","","","","","","","","","45735","","{""age"":""48"",""sex"":""male"",""gender"":""nonbinary"",""gender-self-describe"":""Man and nonbinary"",""zipcode"":""49120""}","","","","","","","","","","","",""
"demographics-list","survey","146","836806","0.0-146.0","","656776a7904ae00d6b91d1dd","6568abf80701421fc3443fda","1","","","","","","","","","","","","21736","","{""P0_Q0"":null,""race-ethnicity"":[""White or of European ancestry""],""education"":""Bachelor’s degree"",""P1_Q0"":null,""ideology"":""Very Liberal"",""P2_Q0"":null,""num-moves"":4,""P3_Q0"":null,""social-ladder"":2}","","","","","","","[]","","","","",""
"end-survey","survey-text","147","843826","0.0-147.0","","656776a7904ae00d6b91d1dd","6568abf80701421fc3443fda","1","","","","","","","","","","","","7014","","{""Q0"":""Nothing, thanks!""}","","","","","","","","","","","","2"
"end-survey","html-button-response","148","846830","0.0-148.0","","656776a7904ae00d6b91d1dd","6568abf80701421fc3443fda","1","","","","","","","","","","","","3003","
    You've reached the end of the survey. <br><br> 
    <b>Do not close or refresh this window.</b><br>
    On the next page, you will be automatically redirected to Prolific. <br><br>

    <div class=""alert alert-warning""><b>
    </div>
","0","","","","","","","","","","","",""
