"task","trial_type","trial_index","time_elapsed","internal_node_id","subject_id","study_id","session_id","section","width","height","webaudio","browser","browser_version","mobile","os","fullscreen","vsync_rate","webcam","microphone","rt","stimulus","response","success","timeout","failed_images","failed_audio","failed_video","block","accuracy","slider_start","choices","standardized_response","correct","num_attention_checks_correct"
"pavlovia-init","pavlovia","0","3578","0.0-0.0","","656776a7904ae00d6b91d1dd","6568ac32da819028e0decbaa","1","","","","","","","","","","","","","","","","","","","","","","","","","",""
"browser-check","browser-check","1","4586","0.0-1.0","","656776a7904ae00d6b91d1dd","6568ac32da819028e0decbaa","1","1536","739","true","chrome","119.0.0","false","Windows 10","true","59.98","false","true","","","","","","","","","","","","","","",""
"consent","html-button-response","2","32054","0.0-2.0","","656776a7904ae00d6b91d1dd","6568ac32da819028e0decbaa","1","","","","","","","","","","","","27467","
        <div style=""font-size: 80%; max-width:700px"">
            <h2>CONSENT FORM</h2>
        
            <div style=""text-align: left"">
            <h4>DESCRIPTION</h4>
            <p>
            You will complete a short task where you give your impressions of various neighborhoods and assign individuals to those spaces, and answer some questions about your thoughts and opinions.<br>
            The University of Michigan Institutional Review Board Health Sciences and Behavioral Sciences has determined that this study is exempt from IRB oversight.
            </p>

            <h4>TIME INVOLVEMENT</h4>
            <p>Your participation will take approximately 15 minutes. You will receive $3.15 upon completion of the study.</p>
        
            <h4>RISKS AND BENEFITS</h4>
            <p>
            The risks associated with this study are minimal. The benefits which may reasonably be expected to result from this study are none. We cannot and do not guarantee or promise that you will receive any benefits from this study.
            </p>
          
            <h4>SUBJECT'S RIGHTS</h4>
            <p>
            If you have read this form and have decided to participate in this project, please understand your participation is voluntary and you have the right to withdraw your consent or discontinue participation at any time without penalty or loss of benefits to which you are otherwise entitled. The alternative is not to participate. You have the right to refuse to answer particular questions. Your individual privacy will be maintained in all published and written data resulting from the study.
            </p>

            <h4>HUMAN SUBJECT APPROVAL</h4>
            <p>
            This study is exempt from ongoing IRB review.
            </p>

            <h4>CONTACT INFORMATION</h4>
            If you have any questions, concerns or complaints about this research, its procedures, risks and benefits, contact the Protocol Director, Nicholas Camp, npcamp@umich.edu, (443) 851-6783. <br>

            If you have questions about your rights as a research participant, or wish to obtain information, ask questions or discuss any concerns about this study with someone other than the researcher(s), please contact the following:<br><br>
            University of Michigan<br>
            Health Sciences and Behavioral Sciences Institutional Review Board (IRB-HSBS)<br>
            2800 Plymouth Road<br>
            Building 520, Room 1169Ann Arbor, MI 48109-2800<br>
            Telephone: 734-936-0933 or toll free (866) 936-0933<br>
            Fax: 734-936-1852<br>
            E-mail: irbhsbs@umich.edu<br><br>

            You can also contact the University of Michigan Compliance Hotline at 1-866-990-0111. You may also print this consent form to keep.
            <br><br>
            <div class=""alert alert-warning""><b>
            Do you consent to participate in this study? If you consent to participate in this study, please click “Accept and Continue”. If you select ""Decline and Exit"", you will be exited from the survey. <br>
            </b></div>
            </div>
        </div>
    ","1","","","","","","","","","","","",""
"","preload","3","66109","0.0-3.0","","656776a7904ae00d6b91d1dd","6568ac32da819028e0decbaa","1","","","","","","","","","","","","","","","true","false","[]","[]","[]","","","","","","",""
"instructions","html-button-response","4","107925","0.0-4.0","","656776a7904ae00d6b91d1dd","6568ac32da819028e0decbaa","1","","","","","","","","","","","","41815","
        <div class=""text-container"">
        <h1>Welcome to the study!</h1>
        
        <div class=""text-left"">
            <p>
                In this study, we are interested in what people can tell about spaces from Google Street View images. <br> Google Street View takes pictures of streets used for Google Earth and Google Maps. <br>You’ll see Google Street View images of different places and answer some questions about each one.<br>
            </p>
        </div>
        <img src = ""assets/img/example.png"" width = 500px, height = auto>
        <br>
    <br>
    ","0","","","","","","","","","","","",""
"instructions","html-button-response","5","146092","0.0-5.0","","656776a7904ae00d6b91d1dd","6568ac32da819028e0decbaa","1","","","","","","","","","","","","38166","
    <div class=""text-container"">
        <div class=""text-center"">
            <p>Please remember that your answers are completely anonymous.<br>Go with your gut response- there are no right or wrong answers!</p>
        </div>
    <br>
","0","","","","","","","","","","","",""
"before_SVSlide_prompt","html-button-response","6","185304","0.0-6.0","","656776a7904ae00d6b91d1dd","6568ac32da819028e0decbaa","1","","","","","","","","","","","","39212","Click [Next] to see the next neighborhood!","0","","","","","","","","","","","",""
"street view slide show","image-button-response","7","186313","0.0-7.0","","656776a7904ae00d6b91d1dd","6568ac32da819028e0decbaa","1","","","","","","","","","","","","null","stimulus/SV_PolicingMSA/CA_2009/IMG_8_2009.jpg","null","","","","","","1","","","","","",""
"street view slide show","image-button-response","8","187315","0.0-8.0","","656776a7904ae00d6b91d1dd","6568ac32da819028e0decbaa","1","","","","","","","","","","","","null","stimulus/SV_PolicingMSA/CA_2009/IMG_9_2009.jpg","null","","","","","","1","","","","","",""
"street view slide show","image-button-response","9","188329","0.0-9.0","","656776a7904ae00d6b91d1dd","6568ac32da819028e0decbaa","1","","","","","","","","","","","","null","stimulus/SV_PolicingMSA/CA_2009/IMG_1_2009.jpg","null","","","","","","1","","","","","",""
"street view slide show","image-button-response","10","189345","0.0-10.0","","656776a7904ae00d6b91d1dd","6568ac32da819028e0decbaa","1","","","","","","","","","","","","null","stimulus/SV_PolicingMSA/CA_2009/IMG_6_2009.jpg","null","","","","","","1","","","","","",""
"street view slide show","image-button-response","11","190358","0.0-11.0","","656776a7904ae00d6b91d1dd","6568ac32da819028e0decbaa","1","","","","","","","","","","","","null","stimulus/SV_PolicingMSA/CA_2009/IMG_5_2009.jpg","null","","","","","","1","","","","","",""
"street view slide show","image-button-response","12","191373","0.0-12.0","","656776a7904ae00d6b91d1dd","6568ac32da819028e0decbaa","1","","","","","","","","","","","","null","stimulus/SV_PolicingMSA/CA_2009/IMG_2_2009.jpg","null","","","","","","1","","","","","",""
"street view slide show","image-button-response","13","192383","0.0-13.0","","656776a7904ae00d6b91d1dd","6568ac32da819028e0decbaa","1","","","","","","","","","","","","null","stimulus/SV_PolicingMSA/CA_2009/IMG_0_2009.jpg","null","","","","","","1","","","","","",""
"street view slide show","image-button-response","14","193385","0.0-14.0","","656776a7904ae00d6b91d1dd","6568ac32da819028e0decbaa","1","","","","","","","","","","","","null","stimulus/SV_PolicingMSA/CA_2009/IMG_3_2009.jpg","null","","","","","","1","","","","","",""
"dot matrix survey1","survey","15","226599","0.0-15.0","","656776a7904ae00d6b91d1dd","6568ac32da819028e0decbaa","1","","","","","","","","","","","","33173","","{""P0_Q0"":null,""P0_Q1"":{""wealthy"":1,""safe"":2,""walkable"":4,""traditional"":4,""diverse"":1}}","","","","","","1","[]","","","","",""
"dot matrix survey2","survey","16","248264","0.0-16.0","","656776a7904ae00d6b91d1dd","6568ac32da819028e0decbaa","1","","","","","","","","","","","","21657","","{""P0_Q0"":null,""P0_Q1"":{""violence"":1,""crime"":0,""drug"":1,""schools"":1,""opportunities"":1}}","","","","","","1","[]","","","","",""
"dot matrix survey3","survey","17","252632","0.0-17.0","","656776a7904ae00d6b91d1dd","6568ac32da819028e0decbaa","1","","","","","","","","","","","","4362","","{""P0_Q0"":null,""P0_Q1"":null}","","","","","","1","[]","","","","",""
"sliderTrial","html-slider-response","18","285690","0.0-18.0","","656776a7904ae00d6b91d1dd","6568ac32da819028e0decbaa","1","","","","","","","","","","","","33057","[""SV_PolicingMSA/CA_2009/IMG_8_2009.jpg"",""SV_PolicingMSA/CA_2009/IMG_9_2009.jpg"",""SV_PolicingMSA/CA_2009/IMG_1_2009.jpg"",""SV_PolicingMSA/CA_2009/IMG_6_2009.jpg"",""SV_PolicingMSA/CA_2009/IMG_5_2009.jpg"",""SV_PolicingMSA/CA_2009/IMG_2_2009.jpg"",""SV_PolicingMSA/CA_2009/IMG_0_2009.jpg"",""SV_PolicingMSA/CA_2009/IMG_3_2009.jpg""]","4","","","","","","1","","4","[""./rc_img/cop_condGroup_9_CommunitySafety_autoscaled.png"",""./rc_img/cop_condGroup_9_SafeStreets_autoscaled.png""]","4","",""
"sliderTrial","html-slider-response","19","289166","0.0-19.0","","656776a7904ae00d6b91d1dd","6568ac32da819028e0decbaa","1","","","","","","","","","","","","3473","[""SV_PolicingMSA/CA_2009/IMG_8_2009.jpg"",""SV_PolicingMSA/CA_2009/IMG_9_2009.jpg"",""SV_PolicingMSA/CA_2009/IMG_1_2009.jpg"",""SV_PolicingMSA/CA_2009/IMG_6_2009.jpg"",""SV_PolicingMSA/CA_2009/IMG_5_2009.jpg"",""SV_PolicingMSA/CA_2009/IMG_2_2009.jpg"",""SV_PolicingMSA/CA_2009/IMG_0_2009.jpg"",""SV_PolicingMSA/CA_2009/IMG_3_2009.jpg""]","4","","","","","","1","","4","[""./rc_img/cop_condGroup_14_SafeStreets_autoscaled.png"",""./rc_img/cop_condGroup_14_CommunitySafety_autoscaled.png""]","4","",""
"sliderTrial_attention","html-slider-response","20","299181","0.0-20.0","","656776a7904ae00d6b91d1dd","6568ac32da819028e0decbaa","1","","","","","","","","","","","","null","[""SV_PolicingMSA/CA_2009/IMG_8_2009.jpg"",""SV_PolicingMSA/CA_2009/IMG_9_2009.jpg"",""SV_PolicingMSA/CA_2009/IMG_1_2009.jpg"",""SV_PolicingMSA/CA_2009/IMG_6_2009.jpg"",""SV_PolicingMSA/CA_2009/IMG_5_2009.jpg"",""SV_PolicingMSA/CA_2009/IMG_2_2009.jpg"",""SV_PolicingMSA/CA_2009/IMG_0_2009.jpg"",""SV_PolicingMSA/CA_2009/IMG_3_2009.jpg""]","null","","","","","","1","","4","[""./assets/img/attnchk.png"",""./assets/img/attnchk.png""]","","true",""
"sliderTrial","html-slider-response","21","340516","0.0-21.0","","656776a7904ae00d6b91d1dd","6568ac32da819028e0decbaa","1","","","","","","","","","","","","41335","[""SV_PolicingMSA/CA_2009/IMG_8_2009.jpg"",""SV_PolicingMSA/CA_2009/IMG_9_2009.jpg"",""SV_PolicingMSA/CA_2009/IMG_1_2009.jpg"",""SV_PolicingMSA/CA_2009/IMG_6_2009.jpg"",""SV_PolicingMSA/CA_2009/IMG_5_2009.jpg"",""SV_PolicingMSA/CA_2009/IMG_2_2009.jpg"",""SV_PolicingMSA/CA_2009/IMG_0_2009.jpg"",""SV_PolicingMSA/CA_2009/IMG_3_2009.jpg""]","4","","","","","","1","","4","[""./rc_img/cop_condGroup_20_SafeStreets_autoscaled.png"",""./rc_img/cop_condGroup_20_CommunitySafety_autoscaled.png""]","4","",""
"sliderTrial","html-slider-response","22","347032","0.0-22.0","","656776a7904ae00d6b91d1dd","6568ac32da819028e0decbaa","1","","","","","","","","","","","","6514","[""SV_PolicingMSA/CA_2009/IMG_8_2009.jpg"",""SV_PolicingMSA/CA_2009/IMG_9_2009.jpg"",""SV_PolicingMSA/CA_2009/IMG_1_2009.jpg"",""SV_PolicingMSA/CA_2009/IMG_6_2009.jpg"",""SV_PolicingMSA/CA_2009/IMG_5_2009.jpg"",""SV_PolicingMSA/CA_2009/IMG_2_2009.jpg"",""SV_PolicingMSA/CA_2009/IMG_0_2009.jpg"",""SV_PolicingMSA/CA_2009/IMG_3_2009.jpg""]","1","","","","","","1","","4","[""./rc_img/cop_condGroup_1_CommunitySafety_autoscaled.png"",""./rc_img/cop_condGroup_1_SafeStreets_autoscaled.png""]","1","",""
"sliderTrial","html-slider-response","23","351005","0.0-23.0","","656776a7904ae00d6b91d1dd","6568ac32da819028e0decbaa","1","","","","","","","","","","","","3971","[""SV_PolicingMSA/CA_2009/IMG_8_2009.jpg"",""SV_PolicingMSA/CA_2009/IMG_9_2009.jpg"",""SV_PolicingMSA/CA_2009/IMG_1_2009.jpg"",""SV_PolicingMSA/CA_2009/IMG_6_2009.jpg"",""SV_PolicingMSA/CA_2009/IMG_5_2009.jpg"",""SV_PolicingMSA/CA_2009/IMG_2_2009.jpg"",""SV_PolicingMSA/CA_2009/IMG_0_2009.jpg"",""SV_PolicingMSA/CA_2009/IMG_3_2009.jpg""]","7","","","","","","1","","4","[""./rc_img/cop_condGroup_8_SafeStreets_autoscaled.png"",""./rc_img/cop_condGroup_8_CommunitySafety_autoscaled.png""]","1","",""
"before_SVSlide_prompt","html-button-response","24","563604","0.0-24.0","","656776a7904ae00d6b91d1dd","6568ac32da819028e0decbaa","1","","","","","","","","","","","","212595","Click [Next] to see the next neighborhood!","0","","","","","","","","","","","",""
"street view slide show","image-button-response","25","564618","0.0-25.0","","656776a7904ae00d6b91d1dd","6568ac32da819028e0decbaa","1","","","","","","","","","","","","null","stimulus/SV_PolicingMSA/CA_2555/IMG_8_2555.jpg","null","","","","","","3","","","","","",""
"street view slide show","image-button-response","26","565635","0.0-26.0","","656776a7904ae00d6b91d1dd","6568ac32da819028e0decbaa","1","","","","","","","","","","","","null","stimulus/SV_PolicingMSA/CA_2555/IMG_13_2555.jpg","null","","","","","","3","","","","","",""
"street view slide show","image-button-response","27","566649","0.0-27.0","","656776a7904ae00d6b91d1dd","6568ac32da819028e0decbaa","1","","","","","","","","","","","","null","stimulus/SV_PolicingMSA/CA_2555/IMG_3_2555.jpg","null","","","","","","3","","","","","",""
"street view slide show","image-button-response","28","567654","0.0-28.0","","656776a7904ae00d6b91d1dd","6568ac32da819028e0decbaa","1","","","","","","","","","","","","null","stimulus/SV_PolicingMSA/CA_2555/IMG_14_2555.jpg","null","","","","","","3","","","","","",""
"street view slide show","image-button-response","29","568668","0.0-29.0","","656776a7904ae00d6b91d1dd","6568ac32da819028e0decbaa","1","","","","","","","","","","","","null","stimulus/SV_PolicingMSA/CA_2555/IMG_9_2555.jpg","null","","","","","","3","","","","","",""
"street view slide show","image-button-response","30","569682","0.0-30.0","","656776a7904ae00d6b91d1dd","6568ac32da819028e0decbaa","1","","","","","","","","","","","","null","stimulus/SV_PolicingMSA/CA_2555/IMG_6_2555.jpg","null","","","","","","3","","","","","",""
"street view slide show","image-button-response","31","570685","0.0-31.0","","656776a7904ae00d6b91d1dd","6568ac32da819028e0decbaa","1","","","","","","","","","","","","null","stimulus/SV_PolicingMSA/CA_2555/IMG_2_2555.jpg","null","","","","","","3","","","","","",""
"street view slide show","image-button-response","32","571699","0.0-32.0","","656776a7904ae00d6b91d1dd","6568ac32da819028e0decbaa","1","","","","","","","","","","","","null","stimulus/SV_PolicingMSA/CA_2555/IMG_7_2555.jpg","null","","","","","","3","","","","","",""
"dot matrix survey1","survey","33","651882","0.0-33.0","","656776a7904ae00d6b91d1dd","6568ac32da819028e0decbaa","1","","","","","","","","","","","","80170","","{""P0_Q0"":null,""P0_Q1"":{""wealthy"":3,""safe"":3,""walkable"":3,""diverse"":3,""traditional"":2}}","","","","","","3","[]","","","","",""
"dot matrix survey2","survey","34","663492","0.0-34.0","","656776a7904ae00d6b91d1dd","6568ac32da819028e0decbaa","1","","","","","","","","","","","","11603","","{""P0_Q0"":null,""P0_Q1"":{""violence"":1,""crime"":1,""drug"":1,""schools"":3,""opportunities"":3}}","","","","","","3","[]","","","","",""
"dot matrix survey3","survey","35","693382","0.0-35.0","","656776a7904ae00d6b91d1dd","6568ac32da819028e0decbaa","1","","","","","","","","","","","","29885","","{""P0_Q0"":null,""P0_Q1"":{""movein"":4,""moveout"":1,""shopping"":4,""walk"":3,""park"":3,""school"":3}}","","","","","","3","[]","","","","",""
"sliderTrial","html-slider-response","36","700507","0.0-36.0","","656776a7904ae00d6b91d1dd","6568ac32da819028e0decbaa","1","","","","","","","","","","","","7124","[""SV_PolicingMSA/CA_2555/IMG_8_2555.jpg"",""SV_PolicingMSA/CA_2555/IMG_13_2555.jpg"",""SV_PolicingMSA/CA_2555/IMG_3_2555.jpg"",""SV_PolicingMSA/CA_2555/IMG_14_2555.jpg"",""SV_PolicingMSA/CA_2555/IMG_9_2555.jpg"",""SV_PolicingMSA/CA_2555/IMG_6_2555.jpg"",""SV_PolicingMSA/CA_2555/IMG_2_2555.jpg"",""SV_PolicingMSA/CA_2555/IMG_7_2555.jpg""]","1","","","","","","3","","4","[""./rc_img/cop_condGroup_9_CommunitySafety_autoscaled.png"",""./rc_img/cop_condGroup_9_SafeStreets_autoscaled.png""]","1","",""
"sliderTrial","html-slider-response","37","704587","0.0-37.0","","656776a7904ae00d6b91d1dd","6568ac32da819028e0decbaa","1","","","","","","","","","","","","4078","[""SV_PolicingMSA/CA_2555/IMG_8_2555.jpg"",""SV_PolicingMSA/CA_2555/IMG_13_2555.jpg"",""SV_PolicingMSA/CA_2555/IMG_3_2555.jpg"",""SV_PolicingMSA/CA_2555/IMG_14_2555.jpg"",""SV_PolicingMSA/CA_2555/IMG_9_2555.jpg"",""SV_PolicingMSA/CA_2555/IMG_6_2555.jpg"",""SV_PolicingMSA/CA_2555/IMG_2_2555.jpg"",""SV_PolicingMSA/CA_2555/IMG_7_2555.jpg""]","7","","","","","","3","","4","[""./rc_img/cop_condGroup_14_SafeStreets_autoscaled.png"",""./rc_img/cop_condGroup_14_CommunitySafety_autoscaled.png""]","1","",""
"sliderTrial","html-slider-response","38","708283","0.0-38.0","","656776a7904ae00d6b91d1dd","6568ac32da819028e0decbaa","1","","","","","","","","","","","","3693","[""SV_PolicingMSA/CA_2555/IMG_8_2555.jpg"",""SV_PolicingMSA/CA_2555/IMG_13_2555.jpg"",""SV_PolicingMSA/CA_2555/IMG_3_2555.jpg"",""SV_PolicingMSA/CA_2555/IMG_14_2555.jpg"",""SV_PolicingMSA/CA_2555/IMG_9_2555.jpg"",""SV_PolicingMSA/CA_2555/IMG_6_2555.jpg"",""SV_PolicingMSA/CA_2555/IMG_2_2555.jpg"",""SV_PolicingMSA/CA_2555/IMG_7_2555.jpg""]","7","","","","","","3","","4","[""./rc_img/cop_condGroup_20_SafeStreets_autoscaled.png"",""./rc_img/cop_condGroup_20_CommunitySafety_autoscaled.png""]","1","",""
"sliderTrial","html-slider-response","39","716520","0.0-39.0","","656776a7904ae00d6b91d1dd","6568ac32da819028e0decbaa","1","","","","","","","","","","","","8234","[""SV_PolicingMSA/CA_2555/IMG_8_2555.jpg"",""SV_PolicingMSA/CA_2555/IMG_13_2555.jpg"",""SV_PolicingMSA/CA_2555/IMG_3_2555.jpg"",""SV_PolicingMSA/CA_2555/IMG_14_2555.jpg"",""SV_PolicingMSA/CA_2555/IMG_9_2555.jpg"",""SV_PolicingMSA/CA_2555/IMG_6_2555.jpg"",""SV_PolicingMSA/CA_2555/IMG_2_2555.jpg"",""SV_PolicingMSA/CA_2555/IMG_7_2555.jpg""]","1","","","","","","3","","4","[""./rc_img/cop_condGroup_1_CommunitySafety_autoscaled.png"",""./rc_img/cop_condGroup_1_SafeStreets_autoscaled.png""]","1","",""
"sliderTrial","html-slider-response","40","722501","0.0-40.0","","656776a7904ae00d6b91d1dd","6568ac32da819028e0decbaa","1","","","","","","","","","","","","5979","[""SV_PolicingMSA/CA_2555/IMG_8_2555.jpg"",""SV_PolicingMSA/CA_2555/IMG_13_2555.jpg"",""SV_PolicingMSA/CA_2555/IMG_3_2555.jpg"",""SV_PolicingMSA/CA_2555/IMG_14_2555.jpg"",""SV_PolicingMSA/CA_2555/IMG_9_2555.jpg"",""SV_PolicingMSA/CA_2555/IMG_6_2555.jpg"",""SV_PolicingMSA/CA_2555/IMG_2_2555.jpg"",""SV_PolicingMSA/CA_2555/IMG_7_2555.jpg""]","7","","","","","","3","","4","[""./rc_img/cop_condGroup_8_SafeStreets_autoscaled.png"",""./rc_img/cop_condGroup_8_CommunitySafety_autoscaled.png""]","1","",""
"before_SVSlide_prompt","html-button-response","41","1188647","0.0-41.0","","656776a7904ae00d6b91d1dd","6568ac32da819028e0decbaa","1","","","","","","","","","","","","466145","Click [Next] to see the next neighborhood!","0","","","","","","","","","","","",""
"street view slide show","image-button-response","42","1189660","0.0-42.0","","656776a7904ae00d6b91d1dd","6568ac32da819028e0decbaa","1","","","","","","","","","","","","null","stimulus/SV_PolicingMSA/CA_8990/IMG_8_8990.jpg","null","","","","","","3","","","","","",""
"street view slide show","image-button-response","43","1190861","0.0-43.0","","656776a7904ae00d6b91d1dd","6568ac32da819028e0decbaa","1","","","","","","","","","","","","null","stimulus/SV_PolicingMSA/CA_8990/IMG_9_8990.jpg","null","","","","","","3","","","","","",""
"street view slide show","image-button-response","44","1192859","0.0-44.0","","656776a7904ae00d6b91d1dd","6568ac32da819028e0decbaa","1","","","","","","","","","","","","null","stimulus/SV_PolicingMSA/CA_8990/IMG_13_8990.jpg","null","","","","","","3","","","","","",""
"street view slide show","image-button-response","45","1194857","0.0-45.0","","656776a7904ae00d6b91d1dd","6568ac32da819028e0decbaa","1","","","","","","","","","","","","null","stimulus/SV_PolicingMSA/CA_8990/IMG_5_8990.jpg","null","","","","","","3","","","","","",""
"street view slide show","image-button-response","46","1195867","0.0-46.0","","656776a7904ae00d6b91d1dd","6568ac32da819028e0decbaa","1","","","","","","","","","","","","null","stimulus/SV_PolicingMSA/CA_8990/IMG_2_8990.jpg","null","","","","","","3","","","","","",""
"street view slide show","image-button-response","47","1197025","0.0-47.0","","656776a7904ae00d6b91d1dd","6568ac32da819028e0decbaa","1","","","","","","","","","","","","null","stimulus/SV_PolicingMSA/CA_8990/IMG_14_8990.jpg","null","","","","","","3","","","","","",""
"street view slide show","image-button-response","48","1198039","0.0-48.0","","656776a7904ae00d6b91d1dd","6568ac32da819028e0decbaa","1","","","","","","","","","","","","null","stimulus/SV_PolicingMSA/CA_8990/IMG_12_8990.jpg","null","","","","","","3","","","","","",""
"street view slide show","image-button-response","49","1199042","0.0-49.0","","656776a7904ae00d6b91d1dd","6568ac32da819028e0decbaa","1","","","","","","","","","","","","null","stimulus/SV_PolicingMSA/CA_8990/IMG_10_8990.jpg","null","","","","","","3","","","","","",""
"dot matrix survey1","survey","50","1211869","0.0-50.0","","656776a7904ae00d6b91d1dd","6568ac32da819028e0decbaa","1","","","","","","","","","","","","12807","","{""P0_Q0"":null,""P0_Q1"":{""wealthy"":1,""safe"":2,""walkable"":3,""traditional"":3,""diverse"":2}}","","","","","","3","[]","","","","",""
"dot matrix survey2","survey","51","1223591","0.0-51.0","","656776a7904ae00d6b91d1dd","6568ac32da819028e0decbaa","1","","","","","","","","","","","","11717","","{""P0_Q0"":null,""P0_Q1"":{""violence"":1,""crime"":1,""drug"":1,""schools"":2,""opportunities"":2}}","","","","","","3","[]","","","","",""
"dot matrix survey3","survey","52","1235776","0.0-52.0","","656776a7904ae00d6b91d1dd","6568ac32da819028e0decbaa","1","","","","","","","","","","","","12180","","{""P0_Q0"":null,""P0_Q1"":{""movein"":2,""moveout"":2,""shopping"":2,""walk"":2,""park"":2,""school"":2}}","","","","","","3","[]","","","","",""
"sliderTrial","html-slider-response","53","1240693","0.0-53.0","","656776a7904ae00d6b91d1dd","6568ac32da819028e0decbaa","1","","","","","","","","","","","","4915","[""SV_PolicingMSA/CA_8990/IMG_8_8990.jpg"",""SV_PolicingMSA/CA_8990/IMG_9_8990.jpg"",""SV_PolicingMSA/CA_8990/IMG_13_8990.jpg"",""SV_PolicingMSA/CA_8990/IMG_5_8990.jpg"",""SV_PolicingMSA/CA_8990/IMG_2_8990.jpg"",""SV_PolicingMSA/CA_8990/IMG_14_8990.jpg"",""SV_PolicingMSA/CA_8990/IMG_12_8990.jpg"",""SV_PolicingMSA/CA_8990/IMG_10_8990.jpg""]","7","","","","","","3","","4","[""./rc_img/cop_condGroup_19_SafeStreets_autoscaled.png"",""./rc_img/cop_condGroup_19_CommunitySafety_autoscaled.png""]","1","",""
"sliderTrial","html-slider-response","54","1245938","0.0-54.0","","656776a7904ae00d6b91d1dd","6568ac32da819028e0decbaa","1","","","","","","","","","","","","5243","[""SV_PolicingMSA/CA_8990/IMG_8_8990.jpg"",""SV_PolicingMSA/CA_8990/IMG_9_8990.jpg"",""SV_PolicingMSA/CA_8990/IMG_13_8990.jpg"",""SV_PolicingMSA/CA_8990/IMG_5_8990.jpg"",""SV_PolicingMSA/CA_8990/IMG_2_8990.jpg"",""SV_PolicingMSA/CA_8990/IMG_14_8990.jpg"",""SV_PolicingMSA/CA_8990/IMG_12_8990.jpg"",""SV_PolicingMSA/CA_8990/IMG_10_8990.jpg""]","7","","","","","","3","","4","[""./rc_img/cop_condGroup_11_SafeStreets_autoscaled.png"",""./rc_img/cop_condGroup_11_CommunitySafety_autoscaled.png""]","1","",""
"sliderTrial","html-slider-response","55","1251977","0.0-55.0","","656776a7904ae00d6b91d1dd","6568ac32da819028e0decbaa","1","","","","","","","","","","","","6036","[""SV_PolicingMSA/CA_8990/IMG_8_8990.jpg"",""SV_PolicingMSA/CA_8990/IMG_9_8990.jpg"",""SV_PolicingMSA/CA_8990/IMG_13_8990.jpg"",""SV_PolicingMSA/CA_8990/IMG_5_8990.jpg"",""SV_PolicingMSA/CA_8990/IMG_2_8990.jpg"",""SV_PolicingMSA/CA_8990/IMG_14_8990.jpg"",""SV_PolicingMSA/CA_8990/IMG_12_8990.jpg"",""SV_PolicingMSA/CA_8990/IMG_10_8990.jpg""]","6","","","","","","3","","4","[""./rc_img/cop_condGroup_17_SafeStreets_autoscaled.png"",""./rc_img/cop_condGroup_17_CommunitySafety_autoscaled.png""]","2","",""
"sliderTrial","html-slider-response","56","1256563","0.0-56.0","","656776a7904ae00d6b91d1dd","6568ac32da819028e0decbaa","1","","","","","","","","","","","","4584","[""SV_PolicingMSA/CA_8990/IMG_8_8990.jpg"",""SV_PolicingMSA/CA_8990/IMG_9_8990.jpg"",""SV_PolicingMSA/CA_8990/IMG_13_8990.jpg"",""SV_PolicingMSA/CA_8990/IMG_5_8990.jpg"",""SV_PolicingMSA/CA_8990/IMG_2_8990.jpg"",""SV_PolicingMSA/CA_8990/IMG_14_8990.jpg"",""SV_PolicingMSA/CA_8990/IMG_12_8990.jpg"",""SV_PolicingMSA/CA_8990/IMG_10_8990.jpg""]","1","","","","","","3","","4","[""./rc_img/cop_condGroup_3_CommunitySafety_autoscaled.png"",""./rc_img/cop_condGroup_3_SafeStreets_autoscaled.png""]","1","",""
"sliderTrial","html-slider-response","57","1260911","0.0-57.0","","656776a7904ae00d6b91d1dd","6568ac32da819028e0decbaa","1","","","","","","","","","","","","4345","[""SV_PolicingMSA/CA_8990/IMG_8_8990.jpg"",""SV_PolicingMSA/CA_8990/IMG_9_8990.jpg"",""SV_PolicingMSA/CA_8990/IMG_13_8990.jpg"",""SV_PolicingMSA/CA_8990/IMG_5_8990.jpg"",""SV_PolicingMSA/CA_8990/IMG_2_8990.jpg"",""SV_PolicingMSA/CA_8990/IMG_14_8990.jpg"",""SV_PolicingMSA/CA_8990/IMG_12_8990.jpg"",""SV_PolicingMSA/CA_8990/IMG_10_8990.jpg""]","1","","","","","","3","","4","[""./rc_img/cop_condGroup_5_CommunitySafety_autoscaled.png"",""./rc_img/cop_condGroup_5_SafeStreets_autoscaled.png""]","1","",""
"before_SVSlide_prompt","html-button-response","58","1348373","0.0-58.0","","656776a7904ae00d6b91d1dd","6568ac32da819028e0decbaa","1","","","","","","","","","","","","87460","Click [Next] to see the next neighborhood!","0","","","","","","","","","","","",""
"street view slide show","image-button-response","59","1349390","0.0-59.0","","656776a7904ae00d6b91d1dd","6568ac32da819028e0decbaa","1","","","","","","","","","","","","null","stimulus/SV_PolicingMSA/CA_8565/IMG_3_8565.jpg","null","","","","","","4","","","","","",""
"street view slide show","image-button-response","60","1350392","0.0-60.0","","656776a7904ae00d6b91d1dd","6568ac32da819028e0decbaa","1","","","","","","","","","","","","null","stimulus/SV_PolicingMSA/CA_8565/IMG_12_8565.jpg","null","","","","","","4","","","","","",""
"street view slide show","image-button-response","61","1351873","0.0-61.0","","656776a7904ae00d6b91d1dd","6568ac32da819028e0decbaa","1","","","","","","","","","","","","null","stimulus/SV_PolicingMSA/CA_8565/IMG_5_8565.jpg","null","","","","","","4","","","","","",""
"street view slide show","image-button-response","62","1353857","0.0-62.0","","656776a7904ae00d6b91d1dd","6568ac32da819028e0decbaa","1","","","","","","","","","","","","null","stimulus/SV_PolicingMSA/CA_8565/IMG_7_8565.jpg","null","","","","","","4","","","","","",""
"street view slide show","image-button-response","63","1354862","0.0-63.0","","656776a7904ae00d6b91d1dd","6568ac32da819028e0decbaa","1","","","","","","","","","","","","null","stimulus/SV_PolicingMSA/CA_8565/IMG_1_8565.jpg","null","","","","","","4","","","","","",""
"street view slide show","image-button-response","64","1355878","0.0-64.0","","656776a7904ae00d6b91d1dd","6568ac32da819028e0decbaa","1","","","","","","","","","","","","null","stimulus/SV_PolicingMSA/CA_8565/IMG_2_8565.jpg","null","","","","","","4","","","","","",""
"street view slide show","image-button-response","65","1357867","0.0-65.0","","656776a7904ae00d6b91d1dd","6568ac32da819028e0decbaa","1","","","","","","","","","","","","null","stimulus/SV_PolicingMSA/CA_8565/IMG_8_8565.jpg","null","","","","","","4","","","","","",""
"street view slide show","image-button-response","66","1359857","0.0-66.0","","656776a7904ae00d6b91d1dd","6568ac32da819028e0decbaa","1","","","","","","","","","","","","null","stimulus/SV_PolicingMSA/CA_8565/IMG_6_8565.jpg","null","","","","","","4","","","","","",""
"dot matrix survey1","survey","67","1412912","0.0-67.0","","656776a7904ae00d6b91d1dd","6568ac32da819028e0decbaa","1","","","","","","","","","","","","53040","","{""P0_Q0"":null,""P0_Q1"":{""wealthy"":3,""safe"":3,""walkable"":3,""traditional"":3,""diverse"":3}}","","","","","","4","[]","","","","",""
"dot matrix survey2","survey","68","1423629","0.0-68.0","","656776a7904ae00d6b91d1dd","6568ac32da819028e0decbaa","1","","","","","","","","","","","","10711","","{""P0_Q0"":null,""P0_Q1"":{""violence"":1,""crime"":1,""drug"":1,""schools"":3,""opportunities"":3}}","","","","","","4","[]","","","","",""
"dot matrix survey3","survey","69","1441547","0.0-69.0","","656776a7904ae00d6b91d1dd","6568ac32da819028e0decbaa","1","","","","","","","","","","","","17912","","{""P0_Q0"":null,""P0_Q1"":{""movein"":3,""moveout"":1,""shopping"":3,""walk"":3,""park"":3,""school"":3}}","","","","","","4","[]","","","","",""
"sliderTrial","html-slider-response","70","1445799","0.0-70.0","","656776a7904ae00d6b91d1dd","6568ac32da819028e0decbaa","1","","","","","","","","","","","","4250","[""SV_PolicingMSA/CA_8565/IMG_3_8565.jpg"",""SV_PolicingMSA/CA_8565/IMG_12_8565.jpg"",""SV_PolicingMSA/CA_8565/IMG_5_8565.jpg"",""SV_PolicingMSA/CA_8565/IMG_7_8565.jpg"",""SV_PolicingMSA/CA_8565/IMG_1_8565.jpg"",""SV_PolicingMSA/CA_8565/IMG_2_8565.jpg"",""SV_PolicingMSA/CA_8565/IMG_8_8565.jpg"",""SV_PolicingMSA/CA_8565/IMG_6_8565.jpg""]","1","","","","","","4","","4","[""./rc_img/cop_condGroup_12_CommunitySafety_autoscaled.png"",""./rc_img/cop_condGroup_12_SafeStreets_autoscaled.png""]","1","",""
"sliderTrial","html-slider-response","71","1449852","0.0-71.0","","656776a7904ae00d6b91d1dd","6568ac32da819028e0decbaa","1","","","","","","","","","","","","4050","[""SV_PolicingMSA/CA_8565/IMG_3_8565.jpg"",""SV_PolicingMSA/CA_8565/IMG_12_8565.jpg"",""SV_PolicingMSA/CA_8565/IMG_5_8565.jpg"",""SV_PolicingMSA/CA_8565/IMG_7_8565.jpg"",""SV_PolicingMSA/CA_8565/IMG_1_8565.jpg"",""SV_PolicingMSA/CA_8565/IMG_2_8565.jpg"",""SV_PolicingMSA/CA_8565/IMG_8_8565.jpg"",""SV_PolicingMSA/CA_8565/IMG_6_8565.jpg""]","7","","","","","","4","","4","[""./rc_img/cop_condGroup_18_SafeStreets_autoscaled.png"",""./rc_img/cop_condGroup_18_CommunitySafety_autoscaled.png""]","1","",""
"sliderTrial","html-slider-response","72","1455286","0.0-72.0","","656776a7904ae00d6b91d1dd","6568ac32da819028e0decbaa","1","","","","","","","","","","","","5431","[""SV_PolicingMSA/CA_8565/IMG_3_8565.jpg"",""SV_PolicingMSA/CA_8565/IMG_12_8565.jpg"",""SV_PolicingMSA/CA_8565/IMG_5_8565.jpg"",""SV_PolicingMSA/CA_8565/IMG_7_8565.jpg"",""SV_PolicingMSA/CA_8565/IMG_1_8565.jpg"",""SV_PolicingMSA/CA_8565/IMG_2_8565.jpg"",""SV_PolicingMSA/CA_8565/IMG_8_8565.jpg"",""SV_PolicingMSA/CA_8565/IMG_6_8565.jpg""]","7","","","","","","4","","4","[""./rc_img/cop_condGroup_13_SafeStreets_autoscaled.png"",""./rc_img/cop_condGroup_13_CommunitySafety_autoscaled.png""]","1","",""
"sliderTrial","html-slider-response","73","1461600","0.0-73.0","","656776a7904ae00d6b91d1dd","6568ac32da819028e0decbaa","1","","","","","","","","","","","","6311","[""SV_PolicingMSA/CA_8565/IMG_3_8565.jpg"",""SV_PolicingMSA/CA_8565/IMG_12_8565.jpg"",""SV_PolicingMSA/CA_8565/IMG_5_8565.jpg"",""SV_PolicingMSA/CA_8565/IMG_7_8565.jpg"",""SV_PolicingMSA/CA_8565/IMG_1_8565.jpg"",""SV_PolicingMSA/CA_8565/IMG_2_8565.jpg"",""SV_PolicingMSA/CA_8565/IMG_8_8565.jpg"",""SV_PolicingMSA/CA_8565/IMG_6_8565.jpg""]","7","","","","","","4","","4","[""./rc_img/cop_condGroup_7_SafeStreets_autoscaled.png"",""./rc_img/cop_condGroup_7_CommunitySafety_autoscaled.png""]","1","",""
"sliderTrial","html-slider-response","74","1465468","0.0-74.0","","656776a7904ae00d6b91d1dd","6568ac32da819028e0decbaa","1","","","","","","","","","","","","3866","[""SV_PolicingMSA/CA_8565/IMG_3_8565.jpg"",""SV_PolicingMSA/CA_8565/IMG_12_8565.jpg"",""SV_PolicingMSA/CA_8565/IMG_5_8565.jpg"",""SV_PolicingMSA/CA_8565/IMG_7_8565.jpg"",""SV_PolicingMSA/CA_8565/IMG_1_8565.jpg"",""SV_PolicingMSA/CA_8565/IMG_2_8565.jpg"",""SV_PolicingMSA/CA_8565/IMG_8_8565.jpg"",""SV_PolicingMSA/CA_8565/IMG_6_8565.jpg""]","1","","","","","","4","","4","[""./rc_img/cop_condGroup_16_CommunitySafety_autoscaled.png"",""./rc_img/cop_condGroup_16_SafeStreets_autoscaled.png""]","1","",""
"half-way","html-button-response","75","1481233","0.0-75.0","","656776a7904ae00d6b91d1dd","6568ac32da819028e0decbaa","1","","","","","","","","","","","","null","
    <h3>You are now half way through the study.</h3>
    <p>Please take a quick, 15-second break before you continue.</p>
    <img src='assets/img/countdown-15.gif'>
    <p>The study will automatically advance forward after the countdown is complete. <br> However, you may click ""Next"" to advance forward now if you wish.</p>
    ","null","","","","","","","","","","","",""
"before_SVSlide_prompt","html-button-response","76","1581119","0.0-76.0","","656776a7904ae00d6b91d1dd","6568ac32da819028e0decbaa","1","","","","","","","","","","","","99895","Click [Next] to see the next neighborhood!","0","","","","","","","","","","","",""
"street view slide show","image-button-response","77","1582135","0.0-77.0","","656776a7904ae00d6b91d1dd","6568ac32da819028e0decbaa","1","","","","","","","","","","","","null","stimulus/SV_PolicingMSA/CA_2534/IMG_14_2534.jpg","null","","","","","","0","","","","","",""
"street view slide show","image-button-response","78","1583137","0.0-78.0","","656776a7904ae00d6b91d1dd","6568ac32da819028e0decbaa","1","","","","","","","","","","","","null","stimulus/SV_PolicingMSA/CA_2534/IMG_5_2534.jpg","null","","","","","","0","","","","","",""
"street view slide show","image-button-response","79","1584858","0.0-79.0","","656776a7904ae00d6b91d1dd","6568ac32da819028e0decbaa","1","","","","","","","","","","","","null","stimulus/SV_PolicingMSA/CA_2534/IMG_1_2534.jpg","null","","","","","","0","","","","","",""
"street view slide show","image-button-response","80","1586859","0.0-80.0","","656776a7904ae00d6b91d1dd","6568ac32da819028e0decbaa","1","","","","","","","","","","","","null","stimulus/SV_PolicingMSA/CA_2534/IMG_11_2534.jpg","null","","","","","","0","","","","","",""
"street view slide show","image-button-response","81","1588861","0.0-81.0","","656776a7904ae00d6b91d1dd","6568ac32da819028e0decbaa","1","","","","","","","","","","","","null","stimulus/SV_PolicingMSA/CA_2534/IMG_8_2534.jpg","null","","","","","","0","","","","","",""
"street view slide show","image-button-response","82","1590858","0.0-82.0","","656776a7904ae00d6b91d1dd","6568ac32da819028e0decbaa","1","","","","","","","","","","","","null","stimulus/SV_PolicingMSA/CA_2534/IMG_10_2534.jpg","null","","","","","","0","","","","","",""
"street view slide show","image-button-response","83","1591875","0.0-83.0","","656776a7904ae00d6b91d1dd","6568ac32da819028e0decbaa","1","","","","","","","","","","","","null","stimulus/SV_PolicingMSA/CA_2534/IMG_4_2534.jpg","null","","","","","","0","","","","","",""
"street view slide show","image-button-response","84","1593858","0.0-84.0","","656776a7904ae00d6b91d1dd","6568ac32da819028e0decbaa","1","","","","","","","","","","","","null","stimulus/SV_PolicingMSA/CA_2534/IMG_6_2534.jpg","null","","","","","","0","","","","","",""
"dot matrix survey1","survey","85","1630725","0.0-85.0","","656776a7904ae00d6b91d1dd","6568ac32da819028e0decbaa","1","","","","","","","","","","","","36859","","{""P0_Q0"":null,""P0_Q1"":{""wealthy"":2,""safe"":2,""walkable"":2,""traditional"":2,""diverse"":2}}","","","","","","0","[]","","","","",""
"dot matrix survey2","survey","86","1656736","0.0-86.0","","656776a7904ae00d6b91d1dd","6568ac32da819028e0decbaa","1","","","","","","","","","","","","25995","","{""P0_Q0"":null,""P0_Q1"":{""violence"":1,""crime"":1,""drug"":1,""schools"":3,""opportunities"":3}}","","","","","","0","[]","","","","",""
"dot matrix survey3","survey","87","1688304","0.0-87.0","","656776a7904ae00d6b91d1dd","6568ac32da819028e0decbaa","1","","","","","","","","","","","","31563","","{""P0_Q0"":null,""P0_Q1"":{""movein"":3,""moveout"":1,""shopping"":3,""walk"":3,""park"":3,""school"":3}}","","","","","","0","[]","","","","",""
"sliderTrial","html-slider-response","88","1695459","0.0-88.0","","656776a7904ae00d6b91d1dd","6568ac32da819028e0decbaa","1","","","","","","","","","","","","7153","[""SV_PolicingMSA/CA_2534/IMG_14_2534.jpg"",""SV_PolicingMSA/CA_2534/IMG_5_2534.jpg"",""SV_PolicingMSA/CA_2534/IMG_1_2534.jpg"",""SV_PolicingMSA/CA_2534/IMG_11_2534.jpg"",""SV_PolicingMSA/CA_2534/IMG_8_2534.jpg"",""SV_PolicingMSA/CA_2534/IMG_10_2534.jpg"",""SV_PolicingMSA/CA_2534/IMG_4_2534.jpg"",""SV_PolicingMSA/CA_2534/IMG_6_2534.jpg""]","7","","","","","","0","","4","[""./rc_img/cop_condGroup_10_SafeStreets_autoscaled.png"",""./rc_img/cop_condGroup_10_CommunitySafety_autoscaled.png""]","1","",""
"sliderTrial","html-slider-response","89","1700424","0.0-89.0","","656776a7904ae00d6b91d1dd","6568ac32da819028e0decbaa","1","","","","","","","","","","","","4963","[""SV_PolicingMSA/CA_2534/IMG_14_2534.jpg"",""SV_PolicingMSA/CA_2534/IMG_5_2534.jpg"",""SV_PolicingMSA/CA_2534/IMG_1_2534.jpg"",""SV_PolicingMSA/CA_2534/IMG_11_2534.jpg"",""SV_PolicingMSA/CA_2534/IMG_8_2534.jpg"",""SV_PolicingMSA/CA_2534/IMG_10_2534.jpg"",""SV_PolicingMSA/CA_2534/IMG_4_2534.jpg"",""SV_PolicingMSA/CA_2534/IMG_6_2534.jpg""]","1","","","","","","0","","4","[""./rc_img/cop_condGroup_4_CommunitySafety_autoscaled.png"",""./rc_img/cop_condGroup_4_SafeStreets_autoscaled.png""]","1","",""
"sliderTrial","html-slider-response","90","1704475","0.0-90.0","","656776a7904ae00d6b91d1dd","6568ac32da819028e0decbaa","1","","","","","","","","","","","","4049","[""SV_PolicingMSA/CA_2534/IMG_14_2534.jpg"",""SV_PolicingMSA/CA_2534/IMG_5_2534.jpg"",""SV_PolicingMSA/CA_2534/IMG_1_2534.jpg"",""SV_PolicingMSA/CA_2534/IMG_11_2534.jpg"",""SV_PolicingMSA/CA_2534/IMG_8_2534.jpg"",""SV_PolicingMSA/CA_2534/IMG_10_2534.jpg"",""SV_PolicingMSA/CA_2534/IMG_4_2534.jpg"",""SV_PolicingMSA/CA_2534/IMG_6_2534.jpg""]","1","","","","","","0","","4","[""./rc_img/cop_condGroup_2_CommunitySafety_autoscaled.png"",""./rc_img/cop_condGroup_2_SafeStreets_autoscaled.png""]","1","",""
"sliderTrial","html-slider-response","91","1711515","0.0-91.0","","656776a7904ae00d6b91d1dd","6568ac32da819028e0decbaa","1","","","","","","","","","","","","7037","[""SV_PolicingMSA/CA_2534/IMG_14_2534.jpg"",""SV_PolicingMSA/CA_2534/IMG_5_2534.jpg"",""SV_PolicingMSA/CA_2534/IMG_1_2534.jpg"",""SV_PolicingMSA/CA_2534/IMG_11_2534.jpg"",""SV_PolicingMSA/CA_2534/IMG_8_2534.jpg"",""SV_PolicingMSA/CA_2534/IMG_10_2534.jpg"",""SV_PolicingMSA/CA_2534/IMG_4_2534.jpg"",""SV_PolicingMSA/CA_2534/IMG_6_2534.jpg""]","7","","","","","","0","","4","[""./rc_img/cop_condGroup_6_SafeStreets_autoscaled.png"",""./rc_img/cop_condGroup_6_CommunitySafety_autoscaled.png""]","1","",""
"sliderTrial_attention","html-slider-response","92","1721524","0.0-92.0","","656776a7904ae00d6b91d1dd","6568ac32da819028e0decbaa","1","","","","","","","","","","","","null","[""SV_PolicingMSA/CA_2534/IMG_14_2534.jpg"",""SV_PolicingMSA/CA_2534/IMG_5_2534.jpg"",""SV_PolicingMSA/CA_2534/IMG_1_2534.jpg"",""SV_PolicingMSA/CA_2534/IMG_11_2534.jpg"",""SV_PolicingMSA/CA_2534/IMG_8_2534.jpg"",""SV_PolicingMSA/CA_2534/IMG_10_2534.jpg"",""SV_PolicingMSA/CA_2534/IMG_4_2534.jpg"",""SV_PolicingMSA/CA_2534/IMG_6_2534.jpg""]","null","","","","","","0","","4","[""./assets/img/attnchk.png"",""./assets/img/attnchk.png""]","","true",""
"sliderTrial","html-slider-response","93","1730940","0.0-93.0","","656776a7904ae00d6b91d1dd","6568ac32da819028e0decbaa","1","","","","","","","","","","","","9414","[""SV_PolicingMSA/CA_2534/IMG_14_2534.jpg"",""SV_PolicingMSA/CA_2534/IMG_5_2534.jpg"",""SV_PolicingMSA/CA_2534/IMG_1_2534.jpg"",""SV_PolicingMSA/CA_2534/IMG_11_2534.jpg"",""SV_PolicingMSA/CA_2534/IMG_8_2534.jpg"",""SV_PolicingMSA/CA_2534/IMG_10_2534.jpg"",""SV_PolicingMSA/CA_2534/IMG_4_2534.jpg"",""SV_PolicingMSA/CA_2534/IMG_6_2534.jpg""]","7","","","","","","0","","4","[""./rc_img/cop_condGroup_15_SafeStreets_autoscaled.png"",""./rc_img/cop_condGroup_15_CommunitySafety_autoscaled.png""]","1","",""
"before_SVSlide_prompt","html-button-response","94","1825987","0.0-94.0","","656776a7904ae00d6b91d1dd","6568ac32da819028e0decbaa","1","","","","","","","","","","","","95046","Click [Next] to see the next neighborhood!","0","","","","","","","","","","","",""
"street view slide show","image-button-response","95","1827000","0.0-95.0","","656776a7904ae00d6b91d1dd","6568ac32da819028e0decbaa","1","","","","","","","","","","","","null","stimulus/SV_PolicingMSA/CA_2537/IMG_10_2537.jpg","null","","","","","","2","","","","","",""
"street view slide show","image-button-response","96","1828003","0.0-96.0","","656776a7904ae00d6b91d1dd","6568ac32da819028e0decbaa","1","","","","","","","","","","","","null","stimulus/SV_PolicingMSA/CA_2537/IMG_4_2537.jpg","null","","","","","","2","","","","","",""
"street view slide show","image-button-response","97","1829859","0.0-97.0","","656776a7904ae00d6b91d1dd","6568ac32da819028e0decbaa","1","","","","","","","","","","","","null","stimulus/SV_PolicingMSA/CA_2537/IMG_9_2537.jpg","null","","","","","","2","","","","","",""
"street view slide show","image-button-response","98","1831859","0.0-98.0","","656776a7904ae00d6b91d1dd","6568ac32da819028e0decbaa","1","","","","","","","","","","","","null","stimulus/SV_PolicingMSA/CA_2537/IMG_8_2537.jpg","null","","","","","","2","","","","","",""
"street view slide show","image-button-response","99","1832861","0.0-99.0","","656776a7904ae00d6b91d1dd","6568ac32da819028e0decbaa","1","","","","","","","","","","","","null","stimulus/SV_PolicingMSA/CA_2537/IMG_6_2537.jpg","null","","","","","","2","","","","","",""
"street view slide show","image-button-response","100","1834859","0.0-100.0","","656776a7904ae00d6b91d1dd","6568ac32da819028e0decbaa","1","","","","","","","","","","","","null","stimulus/SV_PolicingMSA/CA_2537/IMG_7_2537.jpg","null","","","","","","2","","","","","",""
"street view slide show","image-button-response","101","1835875","0.0-101.0","","656776a7904ae00d6b91d1dd","6568ac32da819028e0decbaa","1","","","","","","","","","","","","null","stimulus/SV_PolicingMSA/CA_2537/IMG_12_2537.jpg","null","","","","","","2","","","","","",""
"street view slide show","image-button-response","102","1837868","0.0-102.0","","656776a7904ae00d6b91d1dd","6568ac32da819028e0decbaa","1","","","","","","","","","","","","null","stimulus/SV_PolicingMSA/CA_2537/IMG_2_2537.jpg","null","","","","","","2","","","","","",""
"dot matrix survey1","survey","103","1974957","0.0-103.0","","656776a7904ae00d6b91d1dd","6568ac32da819028e0decbaa","1","","","","","","","","","","","","137072","","{""P0_Q0"":null,""P0_Q1"":{""wealthy"":2,""safe"":2,""walkable"":2,""traditional"":2,""diverse"":2}}","","","","","","2","[]","","","","",""
"dot matrix survey2","survey","104","1996240","0.0-104.0","","656776a7904ae00d6b91d1dd","6568ac32da819028e0decbaa","1","","","","","","","","","","","","21277","","{""P0_Q0"":null,""P0_Q1"":{""violence"":1,""crime"":1,""drug"":1,""schools"":2,""opportunities"":2}}","","","","","","2","[]","","","","",""
"dot matrix survey3","survey","105","2025889","0.0-105.0","","656776a7904ae00d6b91d1dd","6568ac32da819028e0decbaa","1","","","","","","","","","","","","29644","","{""P0_Q0"":null,""P0_Q1"":{""movein"":2,""moveout"":1,""shopping"":2,""walk"":2,""park"":2,""school"":2}}","","","","","","2","[]","","","","",""
"sliderTrial","html-slider-response","106","2036127","0.0-106.0","","656776a7904ae00d6b91d1dd","6568ac32da819028e0decbaa","1","","","","","","","","","","","","10237","[""SV_PolicingMSA/CA_2537/IMG_10_2537.jpg"",""SV_PolicingMSA/CA_2537/IMG_4_2537.jpg"",""SV_PolicingMSA/CA_2537/IMG_9_2537.jpg"",""SV_PolicingMSA/CA_2537/IMG_8_2537.jpg"",""SV_PolicingMSA/CA_2537/IMG_6_2537.jpg"",""SV_PolicingMSA/CA_2537/IMG_7_2537.jpg"",""SV_PolicingMSA/CA_2537/IMG_12_2537.jpg"",""SV_PolicingMSA/CA_2537/IMG_2_2537.jpg""]","7","","","","","","2","","4","[""./rc_img/cop_condGroup_10_SafeStreets_autoscaled.png"",""./rc_img/cop_condGroup_10_CommunitySafety_autoscaled.png""]","1","",""
"sliderTrial","html-slider-response","107","2041596","0.0-107.0","","656776a7904ae00d6b91d1dd","6568ac32da819028e0decbaa","1","","","","","","","","","","","","5467","[""SV_PolicingMSA/CA_2537/IMG_10_2537.jpg"",""SV_PolicingMSA/CA_2537/IMG_4_2537.jpg"",""SV_PolicingMSA/CA_2537/IMG_9_2537.jpg"",""SV_PolicingMSA/CA_2537/IMG_8_2537.jpg"",""SV_PolicingMSA/CA_2537/IMG_6_2537.jpg"",""SV_PolicingMSA/CA_2537/IMG_7_2537.jpg"",""SV_PolicingMSA/CA_2537/IMG_12_2537.jpg"",""SV_PolicingMSA/CA_2537/IMG_2_2537.jpg""]","1","","","","","","2","","4","[""./rc_img/cop_condGroup_4_CommunitySafety_autoscaled.png"",""./rc_img/cop_condGroup_4_SafeStreets_autoscaled.png""]","1","",""
"sliderTrial","html-slider-response","108","2046159","0.0-108.0","","656776a7904ae00d6b91d1dd","6568ac32da819028e0decbaa","1","","","","","","","","","","","","4561","[""SV_PolicingMSA/CA_2537/IMG_10_2537.jpg"",""SV_PolicingMSA/CA_2537/IMG_4_2537.jpg"",""SV_PolicingMSA/CA_2537/IMG_9_2537.jpg"",""SV_PolicingMSA/CA_2537/IMG_8_2537.jpg"",""SV_PolicingMSA/CA_2537/IMG_6_2537.jpg"",""SV_PolicingMSA/CA_2537/IMG_7_2537.jpg"",""SV_PolicingMSA/CA_2537/IMG_12_2537.jpg"",""SV_PolicingMSA/CA_2537/IMG_2_2537.jpg""]","1","","","","","","2","","4","[""./rc_img/cop_condGroup_2_CommunitySafety_autoscaled.png"",""./rc_img/cop_condGroup_2_SafeStreets_autoscaled.png""]","1","",""
"sliderTrial","html-slider-response","109","2049689","0.0-109.0","","656776a7904ae00d6b91d1dd","6568ac32da819028e0decbaa","1","","","","","","","","","","","","3528","[""SV_PolicingMSA/CA_2537/IMG_10_2537.jpg"",""SV_PolicingMSA/CA_2537/IMG_4_2537.jpg"",""SV_PolicingMSA/CA_2537/IMG_9_2537.jpg"",""SV_PolicingMSA/CA_2537/IMG_8_2537.jpg"",""SV_PolicingMSA/CA_2537/IMG_6_2537.jpg"",""SV_PolicingMSA/CA_2537/IMG_7_2537.jpg"",""SV_PolicingMSA/CA_2537/IMG_12_2537.jpg"",""SV_PolicingMSA/CA_2537/IMG_2_2537.jpg""]","7","","","","","","2","","4","[""./rc_img/cop_condGroup_6_SafeStreets_autoscaled.png"",""./rc_img/cop_condGroup_6_CommunitySafety_autoscaled.png""]","1","",""
"sliderTrial","html-slider-response","110","2055411","0.0-110.0","","656776a7904ae00d6b91d1dd","6568ac32da819028e0decbaa","1","","","","","","","","","","","","5720","[""SV_PolicingMSA/CA_2537/IMG_10_2537.jpg"",""SV_PolicingMSA/CA_2537/IMG_4_2537.jpg"",""SV_PolicingMSA/CA_2537/IMG_9_2537.jpg"",""SV_PolicingMSA/CA_2537/IMG_8_2537.jpg"",""SV_PolicingMSA/CA_2537/IMG_6_2537.jpg"",""SV_PolicingMSA/CA_2537/IMG_7_2537.jpg"",""SV_PolicingMSA/CA_2537/IMG_12_2537.jpg"",""SV_PolicingMSA/CA_2537/IMG_2_2537.jpg""]","1","","","","","","2","","4","[""./rc_img/cop_condGroup_15_SafeStreets_autoscaled.png"",""./rc_img/cop_condGroup_15_CommunitySafety_autoscaled.png""]","7","",""
"before_SVSlide_prompt","html-button-response","111","2175610","0.0-111.0","","656776a7904ae00d6b91d1dd","6568ac32da819028e0decbaa","1","","","","","","","","","","","","120210","Click [Next] to see the next neighborhood!","0","","","","","","","","","","","",""
"street view slide show","image-button-response","112","2176616","0.0-112.0","","656776a7904ae00d6b91d1dd","6568ac32da819028e0decbaa","1","","","","","","","","","","","","null","stimulus/SV_PolicingMSA/CA_5098/IMG_5_5098.jpg","null","","","","","","5","","","","","",""
"street view slide show","image-button-response","113","2177845","0.0-113.0","","656776a7904ae00d6b91d1dd","6568ac32da819028e0decbaa","1","","","","","","","","","","","","null","stimulus/SV_PolicingMSA/CA_5098/IMG_2_5098.jpg","null","","","","","","5","","","","","",""
"street view slide show","image-button-response","114","2179867","0.0-114.0","","656776a7904ae00d6b91d1dd","6568ac32da819028e0decbaa","1","","","","","","","","","","","","null","stimulus/SV_PolicingMSA/CA_5098/IMG_0_5098.jpg","null","","","","","","5","","","","","",""
"street view slide show","image-button-response","115","2181864","0.0-115.0","","656776a7904ae00d6b91d1dd","6568ac32da819028e0decbaa","1","","","","","","","","","","","","null","stimulus/SV_PolicingMSA/CA_5098/IMG_14_5098.jpg","null","","","","","","5","","","","","",""
"street view slide show","image-button-response","116","2182880","0.0-116.0","","656776a7904ae00d6b91d1dd","6568ac32da819028e0decbaa","1","","","","","","","","","","","","null","stimulus/SV_PolicingMSA/CA_5098/IMG_7_5098.jpg","null","","","","","","5","","","","","",""
"street view slide show","image-button-response","117","2184856","0.0-117.0","","656776a7904ae00d6b91d1dd","6568ac32da819028e0decbaa","1","","","","","","","","","","","","null","stimulus/SV_PolicingMSA/CA_5098/IMG_4_5098.jpg","null","","","","","","5","","","","","",""
"street view slide show","image-button-response","118","2185861","0.0-118.0","","656776a7904ae00d6b91d1dd","6568ac32da819028e0decbaa","1","","","","","","","","","","","","null","stimulus/SV_PolicingMSA/CA_5098/IMG_11_5098.jpg","null","","","","","","5","","","","","",""
"street view slide show","image-button-response","119","2186877","0.0-119.0","","656776a7904ae00d6b91d1dd","6568ac32da819028e0decbaa","1","","","","","","","","","","","","null","stimulus/SV_PolicingMSA/CA_5098/IMG_13_5098.jpg","null","","","","","","5","","","","","",""
"dot matrix survey1","survey","120","2268627","0.0-120.0","","656776a7904ae00d6b91d1dd","6568ac32da819028e0decbaa","1","","","","","","","","","","","","81734","","{""P0_Q0"":null,""P0_Q1"":{""wealthy"":3,""safe"":3,""walkable"":3,""traditional"":3,""diverse"":2}}","","","","","","5","[]","","","","",""
"dot matrix survey2","survey","121","2292075","0.0-121.0","","656776a7904ae00d6b91d1dd","6568ac32da819028e0decbaa","1","","","","","","","","","","","","23441","","{""P0_Q0"":null,""P0_Q1"":{""violence"":1,""crime"":1,""drug"":1,""schools"":2,""opportunities"":2}}","","","","","","5","[]","","","","",""
"dot matrix survey3","survey","122","2303695","0.0-122.0","","656776a7904ae00d6b91d1dd","6568ac32da819028e0decbaa","1","","","","","","","","","","","","11615","","{""P0_Q0"":null,""P0_Q1"":{""movein"":2,""moveout"":1,""shopping"":2,""walk"":2,""park"":2,""school"":2}}","","","","","","5","[]","","","","",""
"sliderTrial","html-slider-response","123","2309769","0.0-123.0","","656776a7904ae00d6b91d1dd","6568ac32da819028e0decbaa","1","","","","","","","","","","","","6073","[""SV_PolicingMSA/CA_5098/IMG_5_5098.jpg"",""SV_PolicingMSA/CA_5098/IMG_2_5098.jpg"",""SV_PolicingMSA/CA_5098/IMG_0_5098.jpg"",""SV_PolicingMSA/CA_5098/IMG_14_5098.jpg"",""SV_PolicingMSA/CA_5098/IMG_7_5098.jpg"",""SV_PolicingMSA/CA_5098/IMG_4_5098.jpg"",""SV_PolicingMSA/CA_5098/IMG_11_5098.jpg"",""SV_PolicingMSA/CA_5098/IMG_13_5098.jpg""]","7","","","","","","5","","4","[""./rc_img/cop_condGroup_19_SafeStreets_autoscaled.png"",""./rc_img/cop_condGroup_19_CommunitySafety_autoscaled.png""]","1","",""
"sliderTrial","html-slider-response","124","2312966","0.0-124.0","","656776a7904ae00d6b91d1dd","6568ac32da819028e0decbaa","1","","","","","","","","","","","","3195","[""SV_PolicingMSA/CA_5098/IMG_5_5098.jpg"",""SV_PolicingMSA/CA_5098/IMG_2_5098.jpg"",""SV_PolicingMSA/CA_5098/IMG_0_5098.jpg"",""SV_PolicingMSA/CA_5098/IMG_14_5098.jpg"",""SV_PolicingMSA/CA_5098/IMG_7_5098.jpg"",""SV_PolicingMSA/CA_5098/IMG_4_5098.jpg"",""SV_PolicingMSA/CA_5098/IMG_11_5098.jpg"",""SV_PolicingMSA/CA_5098/IMG_13_5098.jpg""]","7","","","","","","5","","4","[""./rc_img/cop_condGroup_11_SafeStreets_autoscaled.png"",""./rc_img/cop_condGroup_11_CommunitySafety_autoscaled.png""]","1","",""
"sliderTrial","html-slider-response","125","2316204","0.0-125.0","","656776a7904ae00d6b91d1dd","6568ac32da819028e0decbaa","1","","","","","","","","","","","","3236","[""SV_PolicingMSA/CA_5098/IMG_5_5098.jpg"",""SV_PolicingMSA/CA_5098/IMG_2_5098.jpg"",""SV_PolicingMSA/CA_5098/IMG_0_5098.jpg"",""SV_PolicingMSA/CA_5098/IMG_14_5098.jpg"",""SV_PolicingMSA/CA_5098/IMG_7_5098.jpg"",""SV_PolicingMSA/CA_5098/IMG_4_5098.jpg"",""SV_PolicingMSA/CA_5098/IMG_11_5098.jpg"",""SV_PolicingMSA/CA_5098/IMG_13_5098.jpg""]","7","","","","","","5","","4","[""./rc_img/cop_condGroup_17_SafeStreets_autoscaled.png"",""./rc_img/cop_condGroup_17_CommunitySafety_autoscaled.png""]","1","",""
"sliderTrial","html-slider-response","126","2319766","0.0-126.0","","656776a7904ae00d6b91d1dd","6568ac32da819028e0decbaa","1","","","","","","","","","","","","3559","[""SV_PolicingMSA/CA_5098/IMG_5_5098.jpg"",""SV_PolicingMSA/CA_5098/IMG_2_5098.jpg"",""SV_PolicingMSA/CA_5098/IMG_0_5098.jpg"",""SV_PolicingMSA/CA_5098/IMG_14_5098.jpg"",""SV_PolicingMSA/CA_5098/IMG_7_5098.jpg"",""SV_PolicingMSA/CA_5098/IMG_4_5098.jpg"",""SV_PolicingMSA/CA_5098/IMG_11_5098.jpg"",""SV_PolicingMSA/CA_5098/IMG_13_5098.jpg""]","1","","","","","","5","","4","[""./rc_img/cop_condGroup_3_CommunitySafety_autoscaled.png"",""./rc_img/cop_condGroup_3_SafeStreets_autoscaled.png""]","1","",""
"sliderTrial","html-slider-response","127","2323583","0.0-127.0","","656776a7904ae00d6b91d1dd","6568ac32da819028e0decbaa","1","","","","","","","","","","","","3815","[""SV_PolicingMSA/CA_5098/IMG_5_5098.jpg"",""SV_PolicingMSA/CA_5098/IMG_2_5098.jpg"",""SV_PolicingMSA/CA_5098/IMG_0_5098.jpg"",""SV_PolicingMSA/CA_5098/IMG_14_5098.jpg"",""SV_PolicingMSA/CA_5098/IMG_7_5098.jpg"",""SV_PolicingMSA/CA_5098/IMG_4_5098.jpg"",""SV_PolicingMSA/CA_5098/IMG_11_5098.jpg"",""SV_PolicingMSA/CA_5098/IMG_13_5098.jpg""]","1","","","","","","5","","4","[""./rc_img/cop_condGroup_5_CommunitySafety_autoscaled.png"",""./rc_img/cop_condGroup_5_SafeStreets_autoscaled.png""]","1","",""
"before_SVSlide_prompt","html-button-response","128","3024463","0.0-128.0","","656776a7904ae00d6b91d1dd","6568ac32da819028e0decbaa","1","","","","","","","","","","","","700879","Click [Next] to see the next neighborhood!","0","","","","","","","","","","","",""
"street view slide show","image-button-response","129","3025464","0.0-129.0","","656776a7904ae00d6b91d1dd","6568ac32da819028e0decbaa","1","","","","","","","","","","","","null","stimulus/SV_PolicingMSA/CA_2011/IMG_0_2011.jpg","null","","","","","","2","","","","","",""
"street view slide show","image-button-response","130","3026474","0.0-130.0","","656776a7904ae00d6b91d1dd","6568ac32da819028e0decbaa","1","","","","","","","","","","","","null","stimulus/SV_PolicingMSA/CA_2011/IMG_1_2011.jpg","null","","","","","","2","","","","","",""
"street view slide show","image-button-response","131","3027873","0.0-131.0","","656776a7904ae00d6b91d1dd","6568ac32da819028e0decbaa","1","","","","","","","","","","","","null","stimulus/SV_PolicingMSA/CA_2011/IMG_6_2011.jpg","null","","","","","","2","","","","","",""
"street view slide show","image-button-response","132","3029859","0.0-132.0","","656776a7904ae00d6b91d1dd","6568ac32da819028e0decbaa","1","","","","","","","","","","","","null","stimulus/SV_PolicingMSA/CA_2011/IMG_14_2011.jpg","null","","","","","","2","","","","","",""
"street view slide show","image-button-response","133","3030875","0.0-133.0","","656776a7904ae00d6b91d1dd","6568ac32da819028e0decbaa","1","","","","","","","","","","","","null","stimulus/SV_PolicingMSA/CA_2011/IMG_9_2011.jpg","null","","","","","","2","","","","","",""
"street view slide show","image-button-response","134","3032857","0.0-134.0","","656776a7904ae00d6b91d1dd","6568ac32da819028e0decbaa","1","","","","","","","","","","","","null","stimulus/SV_PolicingMSA/CA_2011/IMG_13_2011.jpg","null","","","","","","2","","","","","",""
"street view slide show","image-button-response","135","3033868","0.0-135.0","","656776a7904ae00d6b91d1dd","6568ac32da819028e0decbaa","1","","","","","","","","","","","","null","stimulus/SV_PolicingMSA/CA_2011/IMG_11_2011.jpg","null","","","","","","2","","","","","",""
"street view slide show","image-button-response","136","3035874","0.0-136.0","","656776a7904ae00d6b91d1dd","6568ac32da819028e0decbaa","1","","","","","","","","","","","","null","stimulus/SV_PolicingMSA/CA_2011/IMG_5_2011.jpg","null","","","","","","2","","","","","",""
"dot matrix survey1","survey","137","3064396","0.0-137.0","","656776a7904ae00d6b91d1dd","6568ac32da819028e0decbaa","1","","","","","","","","","","","","28514","","{""P0_Q0"":null,""P0_Q1"":{""wealthy"":2,""safe"":2,""walkable"":2,""traditional"":2,""diverse"":2}}","","","","","","2","[]","","","","",""
"dot matrix survey2","survey","138","3074092","0.0-138.0","","656776a7904ae00d6b91d1dd","6568ac32da819028e0decbaa","1","","","","","","","","","","","","9691","","{""P0_Q0"":null,""P0_Q1"":{""violence"":1,""crime"":1,""drug"":1,""schools"":2,""opportunities"":2}}","","","","","","2","[]","","","","",""
"dot matrix survey3","survey","139","3098342","0.0-139.0","","656776a7904ae00d6b91d1dd","6568ac32da819028e0decbaa","1","","","","","","","","","","","","24244","","{""P0_Q0"":null,""P0_Q1"":{""movein"":3,""moveout"":1,""shopping"":2,""walk"":2,""park"":2,""school"":2}}","","","","","","2","[]","","","","",""
"sliderTrial","html-slider-response","140","3102254","0.0-140.0","","656776a7904ae00d6b91d1dd","6568ac32da819028e0decbaa","1","","","","","","","","","","","","3910","[""SV_PolicingMSA/CA_2011/IMG_0_2011.jpg"",""SV_PolicingMSA/CA_2011/IMG_1_2011.jpg"",""SV_PolicingMSA/CA_2011/IMG_6_2011.jpg"",""SV_PolicingMSA/CA_2011/IMG_14_2011.jpg"",""SV_PolicingMSA/CA_2011/IMG_9_2011.jpg"",""SV_PolicingMSA/CA_2011/IMG_13_2011.jpg"",""SV_PolicingMSA/CA_2011/IMG_11_2011.jpg"",""SV_PolicingMSA/CA_2011/IMG_5_2011.jpg""]","1","","","","","","2","","4","[""./rc_img/cop_condGroup_12_CommunitySafety_autoscaled.png"",""./rc_img/cop_condGroup_12_SafeStreets_autoscaled.png""]","1","",""
"sliderTrial","html-slider-response","141","3106650","0.0-141.0","","656776a7904ae00d6b91d1dd","6568ac32da819028e0decbaa","1","","","","","","","","","","","","4395","[""SV_PolicingMSA/CA_2011/IMG_0_2011.jpg"",""SV_PolicingMSA/CA_2011/IMG_1_2011.jpg"",""SV_PolicingMSA/CA_2011/IMG_6_2011.jpg"",""SV_PolicingMSA/CA_2011/IMG_14_2011.jpg"",""SV_PolicingMSA/CA_2011/IMG_9_2011.jpg"",""SV_PolicingMSA/CA_2011/IMG_13_2011.jpg"",""SV_PolicingMSA/CA_2011/IMG_11_2011.jpg"",""SV_PolicingMSA/CA_2011/IMG_5_2011.jpg""]","4","","","","","","2","","4","[""./rc_img/cop_condGroup_18_SafeStreets_autoscaled.png"",""./rc_img/cop_condGroup_18_CommunitySafety_autoscaled.png""]","4","",""
"sliderTrial","html-slider-response","142","3109533","0.0-142.0","","656776a7904ae00d6b91d1dd","6568ac32da819028e0decbaa","1","","","","","","","","","","","","2880","[""SV_PolicingMSA/CA_2011/IMG_0_2011.jpg"",""SV_PolicingMSA/CA_2011/IMG_1_2011.jpg"",""SV_PolicingMSA/CA_2011/IMG_6_2011.jpg"",""SV_PolicingMSA/CA_2011/IMG_14_2011.jpg"",""SV_PolicingMSA/CA_2011/IMG_9_2011.jpg"",""SV_PolicingMSA/CA_2011/IMG_13_2011.jpg"",""SV_PolicingMSA/CA_2011/IMG_11_2011.jpg"",""SV_PolicingMSA/CA_2011/IMG_5_2011.jpg""]","6","","","","","","2","","4","[""./rc_img/cop_condGroup_13_SafeStreets_autoscaled.png"",""./rc_img/cop_condGroup_13_CommunitySafety_autoscaled.png""]","2","",""
"sliderTrial","html-slider-response","143","3113418","0.0-143.0","","656776a7904ae00d6b91d1dd","6568ac32da819028e0decbaa","1","","","","","","","","","","","","3883","[""SV_PolicingMSA/CA_2011/IMG_0_2011.jpg"",""SV_PolicingMSA/CA_2011/IMG_1_2011.jpg"",""SV_PolicingMSA/CA_2011/IMG_6_2011.jpg"",""SV_PolicingMSA/CA_2011/IMG_14_2011.jpg"",""SV_PolicingMSA/CA_2011/IMG_9_2011.jpg"",""SV_PolicingMSA/CA_2011/IMG_13_2011.jpg"",""SV_PolicingMSA/CA_2011/IMG_11_2011.jpg"",""SV_PolicingMSA/CA_2011/IMG_5_2011.jpg""]","7","","","","","","2","","4","[""./rc_img/cop_condGroup_7_SafeStreets_autoscaled.png"",""./rc_img/cop_condGroup_7_CommunitySafety_autoscaled.png""]","1","",""
"sliderTrial","html-slider-response","144","3117416","0.0-144.0","","656776a7904ae00d6b91d1dd","6568ac32da819028e0decbaa","1","","","","","","","","","","","","3996","[""SV_PolicingMSA/CA_2011/IMG_0_2011.jpg"",""SV_PolicingMSA/CA_2011/IMG_1_2011.jpg"",""SV_PolicingMSA/CA_2011/IMG_6_2011.jpg"",""SV_PolicingMSA/CA_2011/IMG_14_2011.jpg"",""SV_PolicingMSA/CA_2011/IMG_9_2011.jpg"",""SV_PolicingMSA/CA_2011/IMG_13_2011.jpg"",""SV_PolicingMSA/CA_2011/IMG_11_2011.jpg"",""SV_PolicingMSA/CA_2011/IMG_5_2011.jpg""]","2","","","","","","2","","4","[""./rc_img/cop_condGroup_16_CommunitySafety_autoscaled.png"",""./rc_img/cop_condGroup_16_SafeStreets_autoscaled.png""]","2","",""
"demographics","survey-html-form","145","3140479","0.0-145.0","","656776a7904ae00d6b91d1dd","6568ac32da819028e0decbaa","1","","","","","","","","","","","","23062","","{""age"":""30"",""sex"":""male"",""gender"":""man"",""gender-self-describe"":"""",""zipcode"":""680910""}","","","","","","","","","","","",""
"demographics-list","survey","146","3163305","0.0-146.0","","656776a7904ae00d6b91d1dd","6568ac32da819028e0decbaa","1","","","","","","","","","","","","22805","","{""P0_Q0"":null,""race-ethnicity"":[""White or of European ancestry""],""education"":""Bachelor’s degree"",""P1_Q0"":null,""ideology"":""Very Liberal"",""P2_Q0"":null,""num-moves"":2,""P3_Q0"":null,""social-ladder"":7}","","","","","","","[]","","","","",""
"end-survey","survey-text","147","3166397","0.0-147.0","","656776a7904ae00d6b91d1dd","6568ac32da819028e0decbaa","1","","","","","","","","","","","","3087","","{""Q0"":""""}","","","","","","","","","","","","2"
"end-survey","html-button-response","148","3171876","0.0-148.0","","656776a7904ae00d6b91d1dd","6568ac32da819028e0decbaa","1","","","","","","","","","","","","5477","
    You've reached the end of the survey. <br><br> 
    <b>Do not close or refresh this window.</b><br>
    On the next page, you will be automatically redirected to Prolific. <br><br>

    <div class=""alert alert-warning""><b>
    </div>
","0","","","","","","","","","","","",""
