"task","trial_type","trial_index","time_elapsed","internal_node_id","subject_id","study_id","session_id","section","width","height","webaudio","browser","browser_version","mobile","os","fullscreen","vsync_rate","webcam","microphone","rt","stimulus","response","success","timeout","failed_images","failed_audio","failed_video","block","accuracy","slider_start","choices","standardized_response","correct","num_attention_checks_correct"
"pavlovia-init","pavlovia","0","2612","0.0-0.0","","656776a7904ae00d6b91d1dd","6568aa625c255e39d98f4e99","2","","","","","","","","","","","","","","","","","","","","","","","","","",""
"browser-check","browser-check","1","3615","0.0-1.0","","656776a7904ae00d6b91d1dd","6568aa625c255e39d98f4e99","2","958","993","true","chrome","118.0.0","false","Windows 10","true","60.24","true","true","","","","","","","","","","","","","","",""
"consent","html-button-response","2","314197","0.0-2.0","","656776a7904ae00d6b91d1dd","6568aa625c255e39d98f4e99","2","","","","","","","","","","","","310582","
        <div style=""font-size: 80%; max-width:700px"">
            <h2>CONSENT FORM</h2>
        
            <div style=""text-align: left"">
            <h4>DESCRIPTION</h4>
            <p>
            You will complete a short task where you give your impressions of various neighborhoods and assign individuals to those spaces, and answer some questions about your thoughts and opinions.<br>
            The University of Michigan Institutional Review Board Health Sciences and Behavioral Sciences has determined that this study is exempt from IRB oversight.
            </p>

            <h4>TIME INVOLVEMENT</h4>
            <p>Your participation will take approximately 15 minutes. You will receive $3.15 upon completion of the study.</p>
        
            <h4>RISKS AND BENEFITS</h4>
            <p>
            The risks associated with this study are minimal. The benefits which may reasonably be expected to result from this study are none. We cannot and do not guarantee or promise that you will receive any benefits from this study.
            </p>
          
            <h4>SUBJECT'S RIGHTS</h4>
            <p>
            If you have read this form and have decided to participate in this project, please understand your participation is voluntary and you have the right to withdraw your consent or discontinue participation at any time without penalty or loss of benefits to which you are otherwise entitled. The alternative is not to participate. You have the right to refuse to answer particular questions. Your individual privacy will be maintained in all published and written data resulting from the study.
            </p>

            <h4>HUMAN SUBJECT APPROVAL</h4>
            <p>
            This study is exempt from ongoing IRB review.
            </p>

            <h4>CONTACT INFORMATION</h4>
            If you have any questions, concerns or complaints about this research, its procedures, risks and benefits, contact the Protocol Director, Nicholas Camp, npcamp@umich.edu, (443) 851-6783. <br>

            If you have questions about your rights as a research participant, or wish to obtain information, ask questions or discuss any concerns about this study with someone other than the researcher(s), please contact the following:<br><br>
            University of Michigan<br>
            Health Sciences and Behavioral Sciences Institutional Review Board (IRB-HSBS)<br>
            2800 Plymouth Road<br>
            Building 520, Room 1169Ann Arbor, MI 48109-2800<br>
            Telephone: 734-936-0933 or toll free (866) 936-0933<br>
            Fax: 734-936-1852<br>
            E-mail: irbhsbs@umich.edu<br><br>

            You can also contact the University of Michigan Compliance Hotline at 1-866-990-0111. You may also print this consent form to keep.
            <br><br>
            <div class=""alert alert-warning""><b>
            Do you consent to participate in this study? If you consent to participate in this study, please click “Accept and Continue”. If you select ""Decline and Exit"", you will be exited from the survey. <br>
            </b></div>
            </div>
        </div>
    ","1","","","","","","","","","","","",""
"","preload","3","338181","0.0-3.0","","656776a7904ae00d6b91d1dd","6568aa625c255e39d98f4e99","2","","","","","","","","","","","","","","","true","false","[]","[]","[]","","","","","","",""
"instructions","html-button-response","4","368027","0.0-4.0","","656776a7904ae00d6b91d1dd","6568aa625c255e39d98f4e99","2","","","","","","","","","","","","29845","
        <div class=""text-container"">
        <h1>Welcome to the study!</h1>
        
        <div class=""text-left"">
            <p>
                In this study, we are interested in what people can tell about spaces from Google Street View images. <br> Google Street View takes pictures of streets used for Google Earth and Google Maps. <br>You’ll see Google Street View images of different places and answer some questions about each one.<br>
            </p>
        </div>
        <img src = ""assets/img/example.png"" width = 500px, height = auto>
        <br>
    <br>
    ","0","","","","","","","","","","","",""
"instructions","html-button-response","5","1193663","0.0-5.0","","656776a7904ae00d6b91d1dd","6568aa625c255e39d98f4e99","2","","","","","","","","","","","","825635","
    <div class=""text-container"">
        <div class=""text-center"">
            <p>Please remember that your answers are completely anonymous.<br>Go with your gut response- there are no right or wrong answers!</p>
        </div>
    <br>
","0","","","","","","","","","","","",""
"before_SVSlide_prompt","html-button-response","6","1194384","0.0-6.0","","656776a7904ae00d6b91d1dd","6568aa625c255e39d98f4e99","2","","","","","","","","","","","","720","Click [Next] to see the next neighborhood!","0","","","","","","","","","","","",""
"street view slide show","image-button-response","7","1195391","0.0-7.0","","656776a7904ae00d6b91d1dd","6568aa625c255e39d98f4e99","2","","","","","","","","","","","","null","stimulus/SV_PolicingMSA/LA_547/IMG_13_547.jpg","null","","","","","","2","","","","","",""
"street view slide show","image-button-response","8","1196398","0.0-8.0","","656776a7904ae00d6b91d1dd","6568aa625c255e39d98f4e99","2","","","","","","","","","","","","null","stimulus/SV_PolicingMSA/LA_547/IMG_6_547.jpg","null","","","","","","2","","","","","",""
"street view slide show","image-button-response","9","1197412","0.0-9.0","","656776a7904ae00d6b91d1dd","6568aa625c255e39d98f4e99","2","","","","","","","","","","","","null","stimulus/SV_PolicingMSA/LA_547/IMG_2_547.jpg","null","","","","","","2","","","","","",""
"street view slide show","image-button-response","10","1198416","0.0-10.0","","656776a7904ae00d6b91d1dd","6568aa625c255e39d98f4e99","2","","","","","","","","","","","","null","stimulus/SV_PolicingMSA/LA_547/IMG_3_547.jpg","null","","","","","","2","","","","","",""
"street view slide show","image-button-response","11","1199427","0.0-11.0","","656776a7904ae00d6b91d1dd","6568aa625c255e39d98f4e99","2","","","","","","","","","","","","null","stimulus/SV_PolicingMSA/LA_547/IMG_12_547.jpg","null","","","","","","2","","","","","",""
"street view slide show","image-button-response","12","1200429","0.0-12.0","","656776a7904ae00d6b91d1dd","6568aa625c255e39d98f4e99","2","","","","","","","","","","","","null","stimulus/SV_PolicingMSA/LA_547/IMG_1_547.jpg","null","","","","","","2","","","","","",""
"street view slide show","image-button-response","13","1201430","0.0-13.0","","656776a7904ae00d6b91d1dd","6568aa625c255e39d98f4e99","2","","","","","","","","","","","","null","stimulus/SV_PolicingMSA/LA_547/IMG_14_547.jpg","null","","","","","","2","","","","","",""
"street view slide show","image-button-response","14","1202432","0.0-14.0","","656776a7904ae00d6b91d1dd","6568aa625c255e39d98f4e99","2","","","","","","","","","","","","null","stimulus/SV_PolicingMSA/LA_547/IMG_10_547.jpg","null","","","","","","2","","","","","",""
"dot matrix survey1","survey","15","1214283","0.0-15.0","","656776a7904ae00d6b91d1dd","6568aa625c255e39d98f4e99","2","","","","","","","","","","","","11776","","{""P0_Q0"":null,""P0_Q1"":{""wealthy"":3,""safe"":3,""traditional"":3,""diverse"":3,""walkable"":3}}","","","","","","2","[]","","","","",""
"dot matrix survey2","survey","16","1224122","0.0-16.0","","656776a7904ae00d6b91d1dd","6568aa625c255e39d98f4e99","2","","","","","","","","","","","","9820","","{""P0_Q0"":null,""P0_Q1"":{""drug"":3,""violence"":3,""opportunities"":3,""schools"":3,""crime"":3}}","","","","","","2","[]","","","","",""
"dot matrix survey3","survey","17","1228799","0.0-17.0","","656776a7904ae00d6b91d1dd","6568aa625c255e39d98f4e99","2","","","","","","","","","","","","4664","","{""P0_Q0"":null,""P0_Q1"":{""movein"":3,""moveout"":3,""walk"":3,""shopping"":3,""park"":3,""school"":3}}","","","","","","2","[]","","","","",""
"sliderTrial","html-slider-response","18","1230161","0.0-18.0","","656776a7904ae00d6b91d1dd","6568aa625c255e39d98f4e99","2","","","","","","","","","","","","1358","[""SV_PolicingMSA/LA_547/IMG_13_547.jpg"",""SV_PolicingMSA/LA_547/IMG_6_547.jpg"",""SV_PolicingMSA/LA_547/IMG_2_547.jpg"",""SV_PolicingMSA/LA_547/IMG_3_547.jpg"",""SV_PolicingMSA/LA_547/IMG_12_547.jpg"",""SV_PolicingMSA/LA_547/IMG_1_547.jpg"",""SV_PolicingMSA/LA_547/IMG_14_547.jpg"",""SV_PolicingMSA/LA_547/IMG_10_547.jpg""]","4","","","","","","2","","4","[""./rc_img/cop_condGroup_4_CommunitySafety_autoscaled.png"",""./rc_img/cop_condGroup_4_SafeStreets_autoscaled.png""]","4","",""
"sliderTrial","html-slider-response","19","1230828","0.0-19.0","","656776a7904ae00d6b91d1dd","6568aa625c255e39d98f4e99","2","","","","","","","","","","","","665","[""SV_PolicingMSA/LA_547/IMG_13_547.jpg"",""SV_PolicingMSA/LA_547/IMG_6_547.jpg"",""SV_PolicingMSA/LA_547/IMG_2_547.jpg"",""SV_PolicingMSA/LA_547/IMG_3_547.jpg"",""SV_PolicingMSA/LA_547/IMG_12_547.jpg"",""SV_PolicingMSA/LA_547/IMG_1_547.jpg"",""SV_PolicingMSA/LA_547/IMG_14_547.jpg"",""SV_PolicingMSA/LA_547/IMG_10_547.jpg""]","4","","","","","","2","","4","[""./rc_img/cop_condGroup_5_CommunitySafety_autoscaled.png"",""./rc_img/cop_condGroup_5_SafeStreets_autoscaled.png""]","4","",""
"sliderTrial","html-slider-response","20","1231391","0.0-20.0","","656776a7904ae00d6b91d1dd","6568aa625c255e39d98f4e99","2","","","","","","","","","","","","561","[""SV_PolicingMSA/LA_547/IMG_13_547.jpg"",""SV_PolicingMSA/LA_547/IMG_6_547.jpg"",""SV_PolicingMSA/LA_547/IMG_2_547.jpg"",""SV_PolicingMSA/LA_547/IMG_3_547.jpg"",""SV_PolicingMSA/LA_547/IMG_12_547.jpg"",""SV_PolicingMSA/LA_547/IMG_1_547.jpg"",""SV_PolicingMSA/LA_547/IMG_14_547.jpg"",""SV_PolicingMSA/LA_547/IMG_10_547.jpg""]","4","","","","","","2","","4","[""./rc_img/cop_condGroup_8_CommunitySafety_autoscaled.png"",""./rc_img/cop_condGroup_8_SafeStreets_autoscaled.png""]","4","",""
"sliderTrial","html-slider-response","21","1231968","0.0-21.0","","656776a7904ae00d6b91d1dd","6568aa625c255e39d98f4e99","2","","","","","","","","","","","","576","[""SV_PolicingMSA/LA_547/IMG_13_547.jpg"",""SV_PolicingMSA/LA_547/IMG_6_547.jpg"",""SV_PolicingMSA/LA_547/IMG_2_547.jpg"",""SV_PolicingMSA/LA_547/IMG_3_547.jpg"",""SV_PolicingMSA/LA_547/IMG_12_547.jpg"",""SV_PolicingMSA/LA_547/IMG_1_547.jpg"",""SV_PolicingMSA/LA_547/IMG_14_547.jpg"",""SV_PolicingMSA/LA_547/IMG_10_547.jpg""]","4","","","","","","2","","4","[""./rc_img/cop_condGroup_2_SafeStreets_autoscaled.png"",""./rc_img/cop_condGroup_2_CommunitySafety_autoscaled.png""]","4","",""
"sliderTrial","html-slider-response","22","1232546","0.0-22.0","","656776a7904ae00d6b91d1dd","6568aa625c255e39d98f4e99","2","","","","","","","","","","","","576","[""SV_PolicingMSA/LA_547/IMG_13_547.jpg"",""SV_PolicingMSA/LA_547/IMG_6_547.jpg"",""SV_PolicingMSA/LA_547/IMG_2_547.jpg"",""SV_PolicingMSA/LA_547/IMG_3_547.jpg"",""SV_PolicingMSA/LA_547/IMG_12_547.jpg"",""SV_PolicingMSA/LA_547/IMG_1_547.jpg"",""SV_PolicingMSA/LA_547/IMG_14_547.jpg"",""SV_PolicingMSA/LA_547/IMG_10_547.jpg""]","4","","","","","","2","","4","[""./rc_img/cop_condGroup_9_CommunitySafety_autoscaled.png"",""./rc_img/cop_condGroup_9_SafeStreets_autoscaled.png""]","4","",""
"before_SVSlide_prompt","html-button-response","23","1233761","0.0-23.0","","656776a7904ae00d6b91d1dd","6568aa625c255e39d98f4e99","2","","","","","","","","","","","","1214","Click [Next] to see the next neighborhood!","0","","","","","","","","","","","",""
"street view slide show","image-button-response","24","1234768","0.0-24.0","","656776a7904ae00d6b91d1dd","6568aa625c255e39d98f4e99","2","","","","","","","","","","","","null","stimulus/SV_PolicingMSA/LA_55/IMG_2_55.jpg","null","","","","","","0","","","","","",""
"street view slide show","image-button-response","25","1235783","0.0-25.0","","656776a7904ae00d6b91d1dd","6568aa625c255e39d98f4e99","2","","","","","","","","","","","","null","stimulus/SV_PolicingMSA/LA_55/IMG_0_55.jpg","null","","","","","","0","","","","","",""
"street view slide show","image-button-response","26","1236788","0.0-26.0","","656776a7904ae00d6b91d1dd","6568aa625c255e39d98f4e99","2","","","","","","","","","","","","null","stimulus/SV_PolicingMSA/LA_55/IMG_14_55.jpg","null","","","","","","0","","","","","",""
"street view slide show","image-button-response","27","1237801","0.0-27.0","","656776a7904ae00d6b91d1dd","6568aa625c255e39d98f4e99","2","","","","","","","","","","","","null","stimulus/SV_PolicingMSA/LA_55/IMG_3_55.jpg","null","","","","","","0","","","","","",""
"street view slide show","image-button-response","28","1238803","0.0-28.0","","656776a7904ae00d6b91d1dd","6568aa625c255e39d98f4e99","2","","","","","","","","","","","","null","stimulus/SV_PolicingMSA/LA_55/IMG_8_55.jpg","null","","","","","","0","","","","","",""
"street view slide show","image-button-response","29","1239820","0.0-29.0","","656776a7904ae00d6b91d1dd","6568aa625c255e39d98f4e99","2","","","","","","","","","","","","null","stimulus/SV_PolicingMSA/LA_55/IMG_10_55.jpg","null","","","","","","0","","","","","",""
"street view slide show","image-button-response","30","1240823","0.0-30.0","","656776a7904ae00d6b91d1dd","6568aa625c255e39d98f4e99","2","","","","","","","","","","","","null","stimulus/SV_PolicingMSA/LA_55/IMG_9_55.jpg","null","","","","","","0","","","","","",""
"street view slide show","image-button-response","31","1241837","0.0-31.0","","656776a7904ae00d6b91d1dd","6568aa625c255e39d98f4e99","2","","","","","","","","","","","","null","stimulus/SV_PolicingMSA/LA_55/IMG_4_55.jpg","null","","","","","","0","","","","","",""
"dot matrix survey1","survey","32","1248713","0.0-32.0","","656776a7904ae00d6b91d1dd","6568aa625c255e39d98f4e99","2","","","","","","","","","","","","6850","","{""P0_Q0"":null,""P0_Q1"":{""diverse"":3,""traditional"":3,""wealthy"":3,""safe"":3,""walkable"":3}}","","","","","","0","[]","","","","",""
"dot matrix survey2","survey","33","1252160","0.0-33.0","","656776a7904ae00d6b91d1dd","6568aa625c255e39d98f4e99","2","","","","","","","","","","","","3435","","{""P0_Q0"":null,""P0_Q1"":{""violence"":3,""crime"":3,""drug"":3,""opportunities"":3,""schools"":3}}","","","","","","0","[]","","","","",""
"dot matrix survey3","survey","34","1257816","0.0-34.0","","656776a7904ae00d6b91d1dd","6568aa625c255e39d98f4e99","2","","","","","","","","","","","","5660","","{""P0_Q0"":null,""P0_Q1"":{""movein"":3,""moveout"":3,""school"":3,""park"":3,""walk"":3,""shopping"":3}}","","","","","","0","[]","","","","",""
"sliderTrial","html-slider-response","35","1259128","0.0-35.0","","656776a7904ae00d6b91d1dd","6568aa625c255e39d98f4e99","2","","","","","","","","","","","","1310","[""SV_PolicingMSA/LA_55/IMG_2_55.jpg"",""SV_PolicingMSA/LA_55/IMG_0_55.jpg"",""SV_PolicingMSA/LA_55/IMG_14_55.jpg"",""SV_PolicingMSA/LA_55/IMG_3_55.jpg"",""SV_PolicingMSA/LA_55/IMG_8_55.jpg"",""SV_PolicingMSA/LA_55/IMG_10_55.jpg"",""SV_PolicingMSA/LA_55/IMG_9_55.jpg"",""SV_PolicingMSA/LA_55/IMG_4_55.jpg""]","4","","","","","","0","","4","[""./rc_img/cop_condGroup_10_SafeStreets_autoscaled.png"",""./rc_img/cop_condGroup_10_CommunitySafety_autoscaled.png""]","4","",""
"sliderTrial","html-slider-response","36","1259900","0.0-36.0","","656776a7904ae00d6b91d1dd","6568aa625c255e39d98f4e99","2","","","","","","","","","","","","770","[""SV_PolicingMSA/LA_55/IMG_2_55.jpg"",""SV_PolicingMSA/LA_55/IMG_0_55.jpg"",""SV_PolicingMSA/LA_55/IMG_14_55.jpg"",""SV_PolicingMSA/LA_55/IMG_3_55.jpg"",""SV_PolicingMSA/LA_55/IMG_8_55.jpg"",""SV_PolicingMSA/LA_55/IMG_10_55.jpg"",""SV_PolicingMSA/LA_55/IMG_9_55.jpg"",""SV_PolicingMSA/LA_55/IMG_4_55.jpg""]","4","","","","","","0","","4","[""./rc_img/cop_condGroup_13_SafeStreets_autoscaled.png"",""./rc_img/cop_condGroup_13_CommunitySafety_autoscaled.png""]","4","",""
"sliderTrial","html-slider-response","37","1260875","0.0-37.0","","656776a7904ae00d6b91d1dd","6568aa625c255e39d98f4e99","2","","","","","","","","","","","","973","[""SV_PolicingMSA/LA_55/IMG_2_55.jpg"",""SV_PolicingMSA/LA_55/IMG_0_55.jpg"",""SV_PolicingMSA/LA_55/IMG_14_55.jpg"",""SV_PolicingMSA/LA_55/IMG_3_55.jpg"",""SV_PolicingMSA/LA_55/IMG_8_55.jpg"",""SV_PolicingMSA/LA_55/IMG_10_55.jpg"",""SV_PolicingMSA/LA_55/IMG_9_55.jpg"",""SV_PolicingMSA/LA_55/IMG_4_55.jpg""]","4","","","","","","0","","4","[""./rc_img/cop_condGroup_18_CommunitySafety_autoscaled.png"",""./rc_img/cop_condGroup_18_SafeStreets_autoscaled.png""]","4","",""
"sliderTrial_attention","html-slider-response","38","1270883","0.0-38.0","","656776a7904ae00d6b91d1dd","6568aa625c255e39d98f4e99","2","","","","","","","","","","","","null","[""SV_PolicingMSA/LA_55/IMG_2_55.jpg"",""SV_PolicingMSA/LA_55/IMG_0_55.jpg"",""SV_PolicingMSA/LA_55/IMG_14_55.jpg"",""SV_PolicingMSA/LA_55/IMG_3_55.jpg"",""SV_PolicingMSA/LA_55/IMG_8_55.jpg"",""SV_PolicingMSA/LA_55/IMG_10_55.jpg"",""SV_PolicingMSA/LA_55/IMG_9_55.jpg"",""SV_PolicingMSA/LA_55/IMG_4_55.jpg""]","null","","","","","","0","","4","[""./assets/img/attnchk.png"",""./assets/img/attnchk.png""]","","true",""
"sliderTrial","html-slider-response","39","1272066","0.0-39.0","","656776a7904ae00d6b91d1dd","6568aa625c255e39d98f4e99","2","","","","","","","","","","","","1177","[""SV_PolicingMSA/LA_55/IMG_2_55.jpg"",""SV_PolicingMSA/LA_55/IMG_0_55.jpg"",""SV_PolicingMSA/LA_55/IMG_14_55.jpg"",""SV_PolicingMSA/LA_55/IMG_3_55.jpg"",""SV_PolicingMSA/LA_55/IMG_8_55.jpg"",""SV_PolicingMSA/LA_55/IMG_10_55.jpg"",""SV_PolicingMSA/LA_55/IMG_9_55.jpg"",""SV_PolicingMSA/LA_55/IMG_4_55.jpg""]","4","","","","","","0","","4","[""./rc_img/cop_condGroup_7_CommunitySafety_autoscaled.png"",""./rc_img/cop_condGroup_7_SafeStreets_autoscaled.png""]","4","",""
"sliderTrial","html-slider-response","40","1273034","0.0-40.0","","656776a7904ae00d6b91d1dd","6568aa625c255e39d98f4e99","2","","","","","","","","","","","","966","[""SV_PolicingMSA/LA_55/IMG_2_55.jpg"",""SV_PolicingMSA/LA_55/IMG_0_55.jpg"",""SV_PolicingMSA/LA_55/IMG_14_55.jpg"",""SV_PolicingMSA/LA_55/IMG_3_55.jpg"",""SV_PolicingMSA/LA_55/IMG_8_55.jpg"",""SV_PolicingMSA/LA_55/IMG_10_55.jpg"",""SV_PolicingMSA/LA_55/IMG_9_55.jpg"",""SV_PolicingMSA/LA_55/IMG_4_55.jpg""]","4","","","","","","0","","4","[""./rc_img/cop_condGroup_12_SafeStreets_autoscaled.png"",""./rc_img/cop_condGroup_12_CommunitySafety_autoscaled.png""]","4","",""
"before_SVSlide_prompt","html-button-response","41","1274376","0.0-41.0","","656776a7904ae00d6b91d1dd","6568aa625c255e39d98f4e99","2","","","","","","","","","","","","1341","Click [Next] to see the next neighborhood!","0","","","","","","","","","","","",""
"street view slide show","image-button-response","42","1275384","0.0-42.0","","656776a7904ae00d6b91d1dd","6568aa625c255e39d98f4e99","2","","","","","","","","","","","","null","stimulus/SV_PolicingMSA/LA_546/IMG_11_546.jpg","null","","","","","","1","","","","","",""
"street view slide show","image-button-response","43","1276387","0.0-43.0","","656776a7904ae00d6b91d1dd","6568aa625c255e39d98f4e99","2","","","","","","","","","","","","null","stimulus/SV_PolicingMSA/LA_546/IMG_9_546.jpg","null","","","","","","1","","","","","",""
"street view slide show","image-button-response","44","1277389","0.0-44.0","","656776a7904ae00d6b91d1dd","6568aa625c255e39d98f4e99","2","","","","","","","","","","","","null","stimulus/SV_PolicingMSA/LA_546/IMG_2_546.jpg","null","","","","","","1","","","","","",""
"street view slide show","image-button-response","45","1278400","0.0-45.0","","656776a7904ae00d6b91d1dd","6568aa625c255e39d98f4e99","2","","","","","","","","","","","","null","stimulus/SV_PolicingMSA/LA_546/IMG_3_546.jpg","null","","","","","","1","","","","","",""
"street view slide show","image-button-response","46","1279418","0.0-46.0","","656776a7904ae00d6b91d1dd","6568aa625c255e39d98f4e99","2","","","","","","","","","","","","null","stimulus/SV_PolicingMSA/LA_546/IMG_6_546.jpg","null","","","","","","1","","","","","",""
"street view slide show","image-button-response","47","1280423","0.0-47.0","","656776a7904ae00d6b91d1dd","6568aa625c255e39d98f4e99","2","","","","","","","","","","","","null","stimulus/SV_PolicingMSA/LA_546/IMG_13_546.jpg","null","","","","","","1","","","","","",""
"street view slide show","image-button-response","48","1281435","0.0-48.0","","656776a7904ae00d6b91d1dd","6568aa625c255e39d98f4e99","2","","","","","","","","","","","","null","stimulus/SV_PolicingMSA/LA_546/IMG_1_546.jpg","null","","","","","","1","","","","","",""
"street view slide show","image-button-response","49","1282447","0.0-49.0","","656776a7904ae00d6b91d1dd","6568aa625c255e39d98f4e99","2","","","","","","","","","","","","null","stimulus/SV_PolicingMSA/LA_546/IMG_14_546.jpg","null","","","","","","1","","","","","",""
"dot matrix survey1","survey","50","1289176","0.0-50.0","","656776a7904ae00d6b91d1dd","6568aa625c255e39d98f4e99","2","","","","","","","","","","","","6717","","{""P0_Q0"":null,""P0_Q1"":{""diverse"":3,""traditional"":3,""wealthy"":3,""safe"":3,""walkable"":3}}","","","","","","1","[]","","","","",""
"dot matrix survey2","survey","51","1293774","0.0-51.0","","656776a7904ae00d6b91d1dd","6568aa625c255e39d98f4e99","2","","","","","","","","","","","","4589","","{""P0_Q0"":null,""P0_Q1"":{""opportunities"":3,""schools"":3,""drug"":3,""crime"":3,""violence"":3}}","","","","","","1","[]","","","","",""
"dot matrix survey3","survey","52","1299929","0.0-52.0","","656776a7904ae00d6b91d1dd","6568aa625c255e39d98f4e99","2","","","","","","","","","","","","6147","","{""P0_Q0"":null,""P0_Q1"":{""school"":3,""park"":3,""walk"":3,""shopping"":3,""moveout"":3,""movein"":3}}","","","","","","1","[]","","","","",""
"sliderTrial","html-slider-response","53","1301385","0.0-53.0","","656776a7904ae00d6b91d1dd","6568aa625c255e39d98f4e99","2","","","","","","","","","","","","1454","[""SV_PolicingMSA/LA_546/IMG_11_546.jpg"",""SV_PolicingMSA/LA_546/IMG_9_546.jpg"",""SV_PolicingMSA/LA_546/IMG_2_546.jpg"",""SV_PolicingMSA/LA_546/IMG_3_546.jpg"",""SV_PolicingMSA/LA_546/IMG_6_546.jpg"",""SV_PolicingMSA/LA_546/IMG_13_546.jpg"",""SV_PolicingMSA/LA_546/IMG_1_546.jpg"",""SV_PolicingMSA/LA_546/IMG_14_546.jpg""]","4","","","","","","1","","4","[""./rc_img/cop_condGroup_20_CommunitySafety_autoscaled.png"",""./rc_img/cop_condGroup_20_SafeStreets_autoscaled.png""]","4","",""
"sliderTrial","html-slider-response","54","1301926","0.0-54.0","","656776a7904ae00d6b91d1dd","6568aa625c255e39d98f4e99","2","","","","","","","","","","","","539","[""SV_PolicingMSA/LA_546/IMG_11_546.jpg"",""SV_PolicingMSA/LA_546/IMG_9_546.jpg"",""SV_PolicingMSA/LA_546/IMG_2_546.jpg"",""SV_PolicingMSA/LA_546/IMG_3_546.jpg"",""SV_PolicingMSA/LA_546/IMG_6_546.jpg"",""SV_PolicingMSA/LA_546/IMG_13_546.jpg"",""SV_PolicingMSA/LA_546/IMG_1_546.jpg"",""SV_PolicingMSA/LA_546/IMG_14_546.jpg""]","4","","","","","","1","","4","[""./rc_img/cop_condGroup_19_SafeStreets_autoscaled.png"",""./rc_img/cop_condGroup_19_CommunitySafety_autoscaled.png""]","4","",""
"sliderTrial","html-slider-response","55","1302465","0.0-55.0","","656776a7904ae00d6b91d1dd","6568aa625c255e39d98f4e99","2","","","","","","","","","","","","537","[""SV_PolicingMSA/LA_546/IMG_11_546.jpg"",""SV_PolicingMSA/LA_546/IMG_9_546.jpg"",""SV_PolicingMSA/LA_546/IMG_2_546.jpg"",""SV_PolicingMSA/LA_546/IMG_3_546.jpg"",""SV_PolicingMSA/LA_546/IMG_6_546.jpg"",""SV_PolicingMSA/LA_546/IMG_13_546.jpg"",""SV_PolicingMSA/LA_546/IMG_1_546.jpg"",""SV_PolicingMSA/LA_546/IMG_14_546.jpg""]","4","","","","","","1","","4","[""./rc_img/cop_condGroup_14_CommunitySafety_autoscaled.png"",""./rc_img/cop_condGroup_14_SafeStreets_autoscaled.png""]","4","",""
"sliderTrial_attention","html-slider-response","56","1312494","0.0-56.0","","656776a7904ae00d6b91d1dd","6568aa625c255e39d98f4e99","2","","","","","","","","","","","","null","[""SV_PolicingMSA/LA_546/IMG_11_546.jpg"",""SV_PolicingMSA/LA_546/IMG_9_546.jpg"",""SV_PolicingMSA/LA_546/IMG_2_546.jpg"",""SV_PolicingMSA/LA_546/IMG_3_546.jpg"",""SV_PolicingMSA/LA_546/IMG_6_546.jpg"",""SV_PolicingMSA/LA_546/IMG_13_546.jpg"",""SV_PolicingMSA/LA_546/IMG_1_546.jpg"",""SV_PolicingMSA/LA_546/IMG_14_546.jpg""]","null","","","","","","1","","4","[""./assets/img/attnchk.png"",""./assets/img/attnchk.png""]","","true",""
"sliderTrial","html-slider-response","57","1314015","0.0-57.0","","656776a7904ae00d6b91d1dd","6568aa625c255e39d98f4e99","2","","","","","","","","","","","","1516","[""SV_PolicingMSA/LA_546/IMG_11_546.jpg"",""SV_PolicingMSA/LA_546/IMG_9_546.jpg"",""SV_PolicingMSA/LA_546/IMG_2_546.jpg"",""SV_PolicingMSA/LA_546/IMG_3_546.jpg"",""SV_PolicingMSA/LA_546/IMG_6_546.jpg"",""SV_PolicingMSA/LA_546/IMG_13_546.jpg"",""SV_PolicingMSA/LA_546/IMG_1_546.jpg"",""SV_PolicingMSA/LA_546/IMG_14_546.jpg""]","4","","","","","","1","","4","[""./rc_img/cop_condGroup_1_SafeStreets_autoscaled.png"",""./rc_img/cop_condGroup_1_CommunitySafety_autoscaled.png""]","4","",""
"sliderTrial","html-slider-response","58","1314727","0.0-58.0","","656776a7904ae00d6b91d1dd","6568aa625c255e39d98f4e99","2","","","","","","","","","","","","711","[""SV_PolicingMSA/LA_546/IMG_11_546.jpg"",""SV_PolicingMSA/LA_546/IMG_9_546.jpg"",""SV_PolicingMSA/LA_546/IMG_2_546.jpg"",""SV_PolicingMSA/LA_546/IMG_3_546.jpg"",""SV_PolicingMSA/LA_546/IMG_6_546.jpg"",""SV_PolicingMSA/LA_546/IMG_13_546.jpg"",""SV_PolicingMSA/LA_546/IMG_1_546.jpg"",""SV_PolicingMSA/LA_546/IMG_14_546.jpg""]","4","","","","","","1","","4","[""./rc_img/cop_condGroup_3_SafeStreets_autoscaled.png"",""./rc_img/cop_condGroup_3_CommunitySafety_autoscaled.png""]","4","",""
"before_SVSlide_prompt","html-button-response","59","1315950","0.0-59.0","","656776a7904ae00d6b91d1dd","6568aa625c255e39d98f4e99","2","","","","","","","","","","","","1222","Click [Next] to see the next neighborhood!","0","","","","","","","","","","","",""
"street view slide show","image-button-response","60","1316955","0.0-60.0","","656776a7904ae00d6b91d1dd","6568aa625c255e39d98f4e99","2","","","","","","","","","","","","null","stimulus/SV_PolicingMSA/LA_447/IMG_2_447.jpg","null","","","","","","3","","","","","",""
"street view slide show","image-button-response","61","1317959","0.0-61.0","","656776a7904ae00d6b91d1dd","6568aa625c255e39d98f4e99","2","","","","","","","","","","","","null","stimulus/SV_PolicingMSA/LA_447/IMG_7_447.jpg","null","","","","","","3","","","","","",""
"street view slide show","image-button-response","62","1318965","0.0-62.0","","656776a7904ae00d6b91d1dd","6568aa625c255e39d98f4e99","2","","","","","","","","","","","","null","stimulus/SV_PolicingMSA/LA_447/IMG_3_447.jpg","null","","","","","","3","","","","","",""
"street view slide show","image-button-response","63","1319978","0.0-63.0","","656776a7904ae00d6b91d1dd","6568aa625c255e39d98f4e99","2","","","","","","","","","","","","null","stimulus/SV_PolicingMSA/LA_447/IMG_10_447.jpg","null","","","","","","3","","","","","",""
"street view slide show","image-button-response","64","1320994","0.0-64.0","","656776a7904ae00d6b91d1dd","6568aa625c255e39d98f4e99","2","","","","","","","","","","","","null","stimulus/SV_PolicingMSA/LA_447/IMG_0_447.jpg","null","","","","","","3","","","","","",""
"street view slide show","image-button-response","65","1322003","0.0-65.0","","656776a7904ae00d6b91d1dd","6568aa625c255e39d98f4e99","2","","","","","","","","","","","","null","stimulus/SV_PolicingMSA/LA_447/IMG_14_447.jpg","null","","","","","","3","","","","","",""
"street view slide show","image-button-response","66","1323012","0.0-66.0","","656776a7904ae00d6b91d1dd","6568aa625c255e39d98f4e99","2","","","","","","","","","","","","null","stimulus/SV_PolicingMSA/LA_447/IMG_5_447.jpg","null","","","","","","3","","","","","",""
"street view slide show","image-button-response","67","1324029","0.0-67.0","","656776a7904ae00d6b91d1dd","6568aa625c255e39d98f4e99","2","","","","","","","","","","","","null","stimulus/SV_PolicingMSA/LA_447/IMG_9_447.jpg","null","","","","","","3","","","","","",""
"dot matrix survey1","survey","68","1334258","0.0-68.0","","656776a7904ae00d6b91d1dd","6568aa625c255e39d98f4e99","2","","","","","","","","","","","","10217","","{""P0_Q0"":null,""P0_Q1"":{""diverse"":3,""traditional"":3,""walkable"":3,""safe"":3,""wealthy"":3}}","","","","","","3","[]","","","","",""
"dot matrix survey2","survey","69","1337909","0.0-69.0","","656776a7904ae00d6b91d1dd","6568aa625c255e39d98f4e99","2","","","","","","","","","","","","3641","","{""P0_Q0"":null,""P0_Q1"":{""violence"":3,""crime"":3,""drug"":3,""schools"":3,""opportunities"":3}}","","","","","","3","[]","","","","",""
"dot matrix survey3","survey","70","1343109","0.0-70.0","","656776a7904ae00d6b91d1dd","6568aa625c255e39d98f4e99","2","","","","","","","","","","","","5189","","{""P0_Q0"":null,""P0_Q1"":{""movein"":3,""moveout"":3,""shopping"":3,""walk"":3,""school"":3,""park"":3}}","","","","","","3","[]","","","","",""
"sliderTrial","html-slider-response","71","1345104","0.0-71.0","","656776a7904ae00d6b91d1dd","6568aa625c255e39d98f4e99","2","","","","","","","","","","","","1993","[""SV_PolicingMSA/LA_447/IMG_2_447.jpg"",""SV_PolicingMSA/LA_447/IMG_7_447.jpg"",""SV_PolicingMSA/LA_447/IMG_3_447.jpg"",""SV_PolicingMSA/LA_447/IMG_10_447.jpg"",""SV_PolicingMSA/LA_447/IMG_0_447.jpg"",""SV_PolicingMSA/LA_447/IMG_14_447.jpg"",""SV_PolicingMSA/LA_447/IMG_5_447.jpg"",""SV_PolicingMSA/LA_447/IMG_9_447.jpg""]","4","","","","","","3","","4","[""./rc_img/cop_condGroup_20_CommunitySafety_autoscaled.png"",""./rc_img/cop_condGroup_20_SafeStreets_autoscaled.png""]","4","",""
"sliderTrial","html-slider-response","72","1345786","0.0-72.0","","656776a7904ae00d6b91d1dd","6568aa625c255e39d98f4e99","2","","","","","","","","","","","","681","[""SV_PolicingMSA/LA_447/IMG_2_447.jpg"",""SV_PolicingMSA/LA_447/IMG_7_447.jpg"",""SV_PolicingMSA/LA_447/IMG_3_447.jpg"",""SV_PolicingMSA/LA_447/IMG_10_447.jpg"",""SV_PolicingMSA/LA_447/IMG_0_447.jpg"",""SV_PolicingMSA/LA_447/IMG_14_447.jpg"",""SV_PolicingMSA/LA_447/IMG_5_447.jpg"",""SV_PolicingMSA/LA_447/IMG_9_447.jpg""]","4","","","","","","3","","4","[""./rc_img/cop_condGroup_19_SafeStreets_autoscaled.png"",""./rc_img/cop_condGroup_19_CommunitySafety_autoscaled.png""]","4","",""
"sliderTrial","html-slider-response","73","1346131","0.0-73.0","","656776a7904ae00d6b91d1dd","6568aa625c255e39d98f4e99","2","","","","","","","","","","","","343","[""SV_PolicingMSA/LA_447/IMG_2_447.jpg"",""SV_PolicingMSA/LA_447/IMG_7_447.jpg"",""SV_PolicingMSA/LA_447/IMG_3_447.jpg"",""SV_PolicingMSA/LA_447/IMG_10_447.jpg"",""SV_PolicingMSA/LA_447/IMG_0_447.jpg"",""SV_PolicingMSA/LA_447/IMG_14_447.jpg"",""SV_PolicingMSA/LA_447/IMG_5_447.jpg"",""SV_PolicingMSA/LA_447/IMG_9_447.jpg""]","4","","","","","","3","","4","[""./rc_img/cop_condGroup_14_CommunitySafety_autoscaled.png"",""./rc_img/cop_condGroup_14_SafeStreets_autoscaled.png""]","4","",""
"sliderTrial","html-slider-response","74","1346769","0.0-74.0","","656776a7904ae00d6b91d1dd","6568aa625c255e39d98f4e99","2","","","","","","","","","","","","637","[""SV_PolicingMSA/LA_447/IMG_2_447.jpg"",""SV_PolicingMSA/LA_447/IMG_7_447.jpg"",""SV_PolicingMSA/LA_447/IMG_3_447.jpg"",""SV_PolicingMSA/LA_447/IMG_10_447.jpg"",""SV_PolicingMSA/LA_447/IMG_0_447.jpg"",""SV_PolicingMSA/LA_447/IMG_14_447.jpg"",""SV_PolicingMSA/LA_447/IMG_5_447.jpg"",""SV_PolicingMSA/LA_447/IMG_9_447.jpg""]","4","","","","","","3","","4","[""./rc_img/cop_condGroup_1_SafeStreets_autoscaled.png"",""./rc_img/cop_condGroup_1_CommunitySafety_autoscaled.png""]","4","",""
"sliderTrial","html-slider-response","75","1347391","0.0-75.0","","656776a7904ae00d6b91d1dd","6568aa625c255e39d98f4e99","2","","","","","","","","","","","","619","[""SV_PolicingMSA/LA_447/IMG_2_447.jpg"",""SV_PolicingMSA/LA_447/IMG_7_447.jpg"",""SV_PolicingMSA/LA_447/IMG_3_447.jpg"",""SV_PolicingMSA/LA_447/IMG_10_447.jpg"",""SV_PolicingMSA/LA_447/IMG_0_447.jpg"",""SV_PolicingMSA/LA_447/IMG_14_447.jpg"",""SV_PolicingMSA/LA_447/IMG_5_447.jpg"",""SV_PolicingMSA/LA_447/IMG_9_447.jpg""]","4","","","","","","3","","4","[""./rc_img/cop_condGroup_3_SafeStreets_autoscaled.png"",""./rc_img/cop_condGroup_3_CommunitySafety_autoscaled.png""]","4","",""
"half-way","html-button-response","76","1349026","0.0-76.0","","656776a7904ae00d6b91d1dd","6568aa625c255e39d98f4e99","2","","","","","","","","","","","","1634","
    <h3>You are now half way through the study.</h3>
    <p>Please take a quick, 15-second break before you continue.</p>
    <img src='assets/img/countdown-15.gif'>
    <p>The study will automatically advance forward after the countdown is complete. <br> However, you may click ""Next"" to advance forward now if you wish.</p>
    ","0","","","","","","","","","","","",""
"before_SVSlide_prompt","html-button-response","77","1349851","0.0-77.0","","656776a7904ae00d6b91d1dd","6568aa625c255e39d98f4e99","2","","","","","","","","","","","","825","Click [Next] to see the next neighborhood!","0","","","","","","","","","","","",""
"street view slide show","image-button-response","78","1350854","0.0-78.0","","656776a7904ae00d6b91d1dd","6568aa625c255e39d98f4e99","2","","","","","","","","","","","","null","stimulus/SV_PolicingMSA/LA_1076/IMG_5_1076.jpg","null","","","","","","5","","","","","",""
"street view slide show","image-button-response","79","1351871","0.0-79.0","","656776a7904ae00d6b91d1dd","6568aa625c255e39d98f4e99","2","","","","","","","","","","","","null","stimulus/SV_PolicingMSA/LA_1076/IMG_8_1076.jpg","null","","","","","","5","","","","","",""
"street view slide show","image-button-response","80","1352889","0.0-80.0","","656776a7904ae00d6b91d1dd","6568aa625c255e39d98f4e99","2","","","","","","","","","","","","null","stimulus/SV_PolicingMSA/LA_1076/IMG_14_1076.jpg","null","","","","","","5","","","","","",""
"street view slide show","image-button-response","81","1353906","0.0-81.0","","656776a7904ae00d6b91d1dd","6568aa625c255e39d98f4e99","2","","","","","","","","","","","","null","stimulus/SV_PolicingMSA/LA_1076/IMG_12_1076.jpg","null","","","","","","5","","","","","",""
"street view slide show","image-button-response","82","1354921","0.0-82.0","","656776a7904ae00d6b91d1dd","6568aa625c255e39d98f4e99","2","","","","","","","","","","","","null","stimulus/SV_PolicingMSA/LA_1076/IMG_4_1076.jpg","null","","","","","","5","","","","","",""
"street view slide show","image-button-response","83","1355940","0.0-83.0","","656776a7904ae00d6b91d1dd","6568aa625c255e39d98f4e99","2","","","","","","","","","","","","null","stimulus/SV_PolicingMSA/LA_1076/IMG_3_1076.jpg","null","","","","","","5","","","","","",""
"street view slide show","image-button-response","84","1356959","0.0-84.0","","656776a7904ae00d6b91d1dd","6568aa625c255e39d98f4e99","2","","","","","","","","","","","","null","stimulus/SV_PolicingMSA/LA_1076/IMG_6_1076.jpg","null","","","","","","5","","","","","",""
"street view slide show","image-button-response","85","1357970","0.0-85.0","","656776a7904ae00d6b91d1dd","6568aa625c255e39d98f4e99","2","","","","","","","","","","","","null","stimulus/SV_PolicingMSA/LA_1076/IMG_11_1076.jpg","null","","","","","","5","","","","","",""
"dot matrix survey1","survey","86","1361493","0.0-86.0","","656776a7904ae00d6b91d1dd","6568aa625c255e39d98f4e99","2","","","","","","","","","","","","3500","","{""P0_Q0"":null,""P0_Q1"":{""wealthy"":3,""safe"":3,""walkable"":3,""traditional"":3,""diverse"":3}}","","","","","","5","[]","","","","",""
"dot matrix survey2","survey","87","1365823","0.0-87.0","","656776a7904ae00d6b91d1dd","6568aa625c255e39d98f4e99","2","","","","","","","","","","","","4322","","{""P0_Q0"":null,""P0_Q1"":{""violence"":3,""schools"":3,""drug"":3,""crime"":3,""opportunities"":3}}","","","","","","5","[]","","","","",""
"dot matrix survey3","survey","88","1371100","0.0-88.0","","656776a7904ae00d6b91d1dd","6568aa625c255e39d98f4e99","2","","","","","","","","","","","","5267","","{""P0_Q0"":null,""P0_Q1"":{""movein"":3,""moveout"":3,""shopping"":3,""walk"":3,""park"":3,""school"":3}}","","","","","","5","[]","","","","",""
"sliderTrial","html-slider-response","89","1372733","0.0-89.0","","656776a7904ae00d6b91d1dd","6568aa625c255e39d98f4e99","2","","","","","","","","","","","","1632","[""SV_PolicingMSA/LA_1076/IMG_5_1076.jpg"",""SV_PolicingMSA/LA_1076/IMG_8_1076.jpg"",""SV_PolicingMSA/LA_1076/IMG_14_1076.jpg"",""SV_PolicingMSA/LA_1076/IMG_12_1076.jpg"",""SV_PolicingMSA/LA_1076/IMG_4_1076.jpg"",""SV_PolicingMSA/LA_1076/IMG_3_1076.jpg"",""SV_PolicingMSA/LA_1076/IMG_6_1076.jpg"",""SV_PolicingMSA/LA_1076/IMG_11_1076.jpg""]","4","","","","","","5","","4","[""./rc_img/cop_condGroup_6_CommunitySafety_autoscaled.png"",""./rc_img/cop_condGroup_6_SafeStreets_autoscaled.png""]","4","",""
"sliderTrial","html-slider-response","90","1373581","0.0-90.0","","656776a7904ae00d6b91d1dd","6568aa625c255e39d98f4e99","2","","","","","","","","","","","","846","[""SV_PolicingMSA/LA_1076/IMG_5_1076.jpg"",""SV_PolicingMSA/LA_1076/IMG_8_1076.jpg"",""SV_PolicingMSA/LA_1076/IMG_14_1076.jpg"",""SV_PolicingMSA/LA_1076/IMG_12_1076.jpg"",""SV_PolicingMSA/LA_1076/IMG_4_1076.jpg"",""SV_PolicingMSA/LA_1076/IMG_3_1076.jpg"",""SV_PolicingMSA/LA_1076/IMG_6_1076.jpg"",""SV_PolicingMSA/LA_1076/IMG_11_1076.jpg""]","4","","","","","","5","","4","[""./rc_img/cop_condGroup_17_CommunitySafety_autoscaled.png"",""./rc_img/cop_condGroup_17_SafeStreets_autoscaled.png""]","4","",""
"sliderTrial","html-slider-response","91","1374384","0.0-91.0","","656776a7904ae00d6b91d1dd","6568aa625c255e39d98f4e99","2","","","","","","","","","","","","802","[""SV_PolicingMSA/LA_1076/IMG_5_1076.jpg"",""SV_PolicingMSA/LA_1076/IMG_8_1076.jpg"",""SV_PolicingMSA/LA_1076/IMG_14_1076.jpg"",""SV_PolicingMSA/LA_1076/IMG_12_1076.jpg"",""SV_PolicingMSA/LA_1076/IMG_4_1076.jpg"",""SV_PolicingMSA/LA_1076/IMG_3_1076.jpg"",""SV_PolicingMSA/LA_1076/IMG_6_1076.jpg"",""SV_PolicingMSA/LA_1076/IMG_11_1076.jpg""]","4","","","","","","5","","4","[""./rc_img/cop_condGroup_16_CommunitySafety_autoscaled.png"",""./rc_img/cop_condGroup_16_SafeStreets_autoscaled.png""]","4","",""
"sliderTrial","html-slider-response","92","1375066","0.0-92.0","","656776a7904ae00d6b91d1dd","6568aa625c255e39d98f4e99","2","","","","","","","","","","","","680","[""SV_PolicingMSA/LA_1076/IMG_5_1076.jpg"",""SV_PolicingMSA/LA_1076/IMG_8_1076.jpg"",""SV_PolicingMSA/LA_1076/IMG_14_1076.jpg"",""SV_PolicingMSA/LA_1076/IMG_12_1076.jpg"",""SV_PolicingMSA/LA_1076/IMG_4_1076.jpg"",""SV_PolicingMSA/LA_1076/IMG_3_1076.jpg"",""SV_PolicingMSA/LA_1076/IMG_6_1076.jpg"",""SV_PolicingMSA/LA_1076/IMG_11_1076.jpg""]","4","","","","","","5","","4","[""./rc_img/cop_condGroup_11_SafeStreets_autoscaled.png"",""./rc_img/cop_condGroup_11_CommunitySafety_autoscaled.png""]","4","",""
"sliderTrial","html-slider-response","93","1375795","0.0-93.0","","656776a7904ae00d6b91d1dd","6568aa625c255e39d98f4e99","2","","","","","","","","","","","","726","[""SV_PolicingMSA/LA_1076/IMG_5_1076.jpg"",""SV_PolicingMSA/LA_1076/IMG_8_1076.jpg"",""SV_PolicingMSA/LA_1076/IMG_14_1076.jpg"",""SV_PolicingMSA/LA_1076/IMG_12_1076.jpg"",""SV_PolicingMSA/LA_1076/IMG_4_1076.jpg"",""SV_PolicingMSA/LA_1076/IMG_3_1076.jpg"",""SV_PolicingMSA/LA_1076/IMG_6_1076.jpg"",""SV_PolicingMSA/LA_1076/IMG_11_1076.jpg""]","4","","","","","","5","","4","[""./rc_img/cop_condGroup_15_CommunitySafety_autoscaled.png"",""./rc_img/cop_condGroup_15_SafeStreets_autoscaled.png""]","4","",""
"before_SVSlide_prompt","html-button-response","94","1377271","0.0-94.0","","656776a7904ae00d6b91d1dd","6568aa625c255e39d98f4e99","2","","","","","","","","","","","","1476","Click [Next] to see the next neighborhood!","0","","","","","","","","","","","",""
"street view slide show","image-button-response","95","1378273","0.0-95.0","","656776a7904ae00d6b91d1dd","6568aa625c255e39d98f4e99","2","","","","","","","","","","","","null","stimulus/SV_PolicingMSA/LA_438/IMG_10_438.jpg","null","","","","","","4","","","","","",""
"street view slide show","image-button-response","96","1379279","0.0-96.0","","656776a7904ae00d6b91d1dd","6568aa625c255e39d98f4e99","2","","","","","","","","","","","","null","stimulus/SV_PolicingMSA/LA_438/IMG_11_438.jpg","null","","","","","","4","","","","","",""
"street view slide show","image-button-response","97","1380296","0.0-97.0","","656776a7904ae00d6b91d1dd","6568aa625c255e39d98f4e99","2","","","","","","","","","","","","null","stimulus/SV_PolicingMSA/LA_438/IMG_14_438.jpg","null","","","","","","4","","","","","",""
"street view slide show","image-button-response","98","1381312","0.0-98.0","","656776a7904ae00d6b91d1dd","6568aa625c255e39d98f4e99","2","","","","","","","","","","","","null","stimulus/SV_PolicingMSA/LA_438/IMG_9_438.jpg","null","","","","","","4","","","","","",""
"street view slide show","image-button-response","99","1382329","0.0-99.0","","656776a7904ae00d6b91d1dd","6568aa625c255e39d98f4e99","2","","","","","","","","","","","","null","stimulus/SV_PolicingMSA/LA_438/IMG_8_438.jpg","null","","","","","","4","","","","","",""
"street view slide show","image-button-response","100","1383347","0.0-100.0","","656776a7904ae00d6b91d1dd","6568aa625c255e39d98f4e99","2","","","","","","","","","","","","null","stimulus/SV_PolicingMSA/LA_438/IMG_0_438.jpg","null","","","","","","4","","","","","",""
"street view slide show","image-button-response","101","1384363","0.0-101.0","","656776a7904ae00d6b91d1dd","6568aa625c255e39d98f4e99","2","","","","","","","","","","","","null","stimulus/SV_PolicingMSA/LA_438/IMG_6_438.jpg","null","","","","","","4","","","","","",""
"street view slide show","image-button-response","102","1385380","0.0-102.0","","656776a7904ae00d6b91d1dd","6568aa625c255e39d98f4e99","2","","","","","","","","","","","","null","stimulus/SV_PolicingMSA/LA_438/IMG_3_438.jpg","null","","","","","","4","","","","","",""
"dot matrix survey1","survey","103","1389128","0.0-103.0","","656776a7904ae00d6b91d1dd","6568aa625c255e39d98f4e99","2","","","","","","","","","","","","3734","","{""P0_Q0"":null,""P0_Q1"":{""wealthy"":3,""safe"":3,""walkable"":3,""traditional"":3,""diverse"":3}}","","","","","","4","[]","","","","",""
"dot matrix survey2","survey","104","1392287","0.0-104.0","","656776a7904ae00d6b91d1dd","6568aa625c255e39d98f4e99","2","","","","","","","","","","","","3151","","{""P0_Q0"":null,""P0_Q1"":{""violence"":3,""crime"":3,""drug"":3,""schools"":3,""opportunities"":3}}","","","","","","4","[]","","","","",""
"dot matrix survey3","survey","105","1397801","0.0-105.0","","656776a7904ae00d6b91d1dd","6568aa625c255e39d98f4e99","2","","","","","","","","","","","","5506","","{""P0_Q0"":null,""P0_Q1"":{""movein"":3,""moveout"":3,""shopping"":3,""walk"":3,""school"":3,""park"":3}}","","","","","","4","[]","","","","",""
"sliderTrial","html-slider-response","106","1399593","0.0-106.0","","656776a7904ae00d6b91d1dd","6568aa625c255e39d98f4e99","2","","","","","","","","","","","","1789","[""SV_PolicingMSA/LA_438/IMG_10_438.jpg"",""SV_PolicingMSA/LA_438/IMG_11_438.jpg"",""SV_PolicingMSA/LA_438/IMG_14_438.jpg"",""SV_PolicingMSA/LA_438/IMG_9_438.jpg"",""SV_PolicingMSA/LA_438/IMG_8_438.jpg"",""SV_PolicingMSA/LA_438/IMG_0_438.jpg"",""SV_PolicingMSA/LA_438/IMG_6_438.jpg"",""SV_PolicingMSA/LA_438/IMG_3_438.jpg""]","4","","","","","","4","","4","[""./rc_img/cop_condGroup_4_CommunitySafety_autoscaled.png"",""./rc_img/cop_condGroup_4_SafeStreets_autoscaled.png""]","4","",""
"sliderTrial","html-slider-response","107","1400139","0.0-107.0","","656776a7904ae00d6b91d1dd","6568aa625c255e39d98f4e99","2","","","","","","","","","","","","545","[""SV_PolicingMSA/LA_438/IMG_10_438.jpg"",""SV_PolicingMSA/LA_438/IMG_11_438.jpg"",""SV_PolicingMSA/LA_438/IMG_14_438.jpg"",""SV_PolicingMSA/LA_438/IMG_9_438.jpg"",""SV_PolicingMSA/LA_438/IMG_8_438.jpg"",""SV_PolicingMSA/LA_438/IMG_0_438.jpg"",""SV_PolicingMSA/LA_438/IMG_6_438.jpg"",""SV_PolicingMSA/LA_438/IMG_3_438.jpg""]","4","","","","","","4","","4","[""./rc_img/cop_condGroup_5_CommunitySafety_autoscaled.png"",""./rc_img/cop_condGroup_5_SafeStreets_autoscaled.png""]","4","",""
"sliderTrial","html-slider-response","108","1400732","0.0-108.0","","656776a7904ae00d6b91d1dd","6568aa625c255e39d98f4e99","2","","","","","","","","","","","","592","[""SV_PolicingMSA/LA_438/IMG_10_438.jpg"",""SV_PolicingMSA/LA_438/IMG_11_438.jpg"",""SV_PolicingMSA/LA_438/IMG_14_438.jpg"",""SV_PolicingMSA/LA_438/IMG_9_438.jpg"",""SV_PolicingMSA/LA_438/IMG_8_438.jpg"",""SV_PolicingMSA/LA_438/IMG_0_438.jpg"",""SV_PolicingMSA/LA_438/IMG_6_438.jpg"",""SV_PolicingMSA/LA_438/IMG_3_438.jpg""]","4","","","","","","4","","4","[""./rc_img/cop_condGroup_8_CommunitySafety_autoscaled.png"",""./rc_img/cop_condGroup_8_SafeStreets_autoscaled.png""]","4","",""
"sliderTrial","html-slider-response","109","1401272","0.0-109.0","","656776a7904ae00d6b91d1dd","6568aa625c255e39d98f4e99","2","","","","","","","","","","","","536","[""SV_PolicingMSA/LA_438/IMG_10_438.jpg"",""SV_PolicingMSA/LA_438/IMG_11_438.jpg"",""SV_PolicingMSA/LA_438/IMG_14_438.jpg"",""SV_PolicingMSA/LA_438/IMG_9_438.jpg"",""SV_PolicingMSA/LA_438/IMG_8_438.jpg"",""SV_PolicingMSA/LA_438/IMG_0_438.jpg"",""SV_PolicingMSA/LA_438/IMG_6_438.jpg"",""SV_PolicingMSA/LA_438/IMG_3_438.jpg""]","4","","","","","","4","","4","[""./rc_img/cop_condGroup_2_SafeStreets_autoscaled.png"",""./rc_img/cop_condGroup_2_CommunitySafety_autoscaled.png""]","4","",""
"sliderTrial","html-slider-response","110","1401872","0.0-110.0","","656776a7904ae00d6b91d1dd","6568aa625c255e39d98f4e99","2","","","","","","","","","","","","598","[""SV_PolicingMSA/LA_438/IMG_10_438.jpg"",""SV_PolicingMSA/LA_438/IMG_11_438.jpg"",""SV_PolicingMSA/LA_438/IMG_14_438.jpg"",""SV_PolicingMSA/LA_438/IMG_9_438.jpg"",""SV_PolicingMSA/LA_438/IMG_8_438.jpg"",""SV_PolicingMSA/LA_438/IMG_0_438.jpg"",""SV_PolicingMSA/LA_438/IMG_6_438.jpg"",""SV_PolicingMSA/LA_438/IMG_3_438.jpg""]","4","","","","","","4","","4","[""./rc_img/cop_condGroup_9_CommunitySafety_autoscaled.png"",""./rc_img/cop_condGroup_9_SafeStreets_autoscaled.png""]","4","",""
"before_SVSlide_prompt","html-button-response","111","1403124","0.0-111.0","","656776a7904ae00d6b91d1dd","6568aa625c255e39d98f4e99","2","","","","","","","","","","","","1251","Click [Next] to see the next neighborhood!","0","","","","","","","","","","","",""
"street view slide show","image-button-response","112","1404137","0.0-112.0","","656776a7904ae00d6b91d1dd","6568aa625c255e39d98f4e99","2","","","","","","","","","","","","null","stimulus/SV_PolicingMSA/LA_42/IMG_0_42.jpg","null","","","","","","2","","","","","",""
"street view slide show","image-button-response","113","1405154","0.0-113.0","","656776a7904ae00d6b91d1dd","6568aa625c255e39d98f4e99","2","","","","","","","","","","","","null","stimulus/SV_PolicingMSA/LA_42/IMG_5_42.jpg","null","","","","","","2","","","","","",""
"street view slide show","image-button-response","114","1406170","0.0-114.0","","656776a7904ae00d6b91d1dd","6568aa625c255e39d98f4e99","2","","","","","","","","","","","","null","stimulus/SV_PolicingMSA/LA_42/IMG_2_42.jpg","null","","","","","","2","","","","","",""
"street view slide show","image-button-response","115","1407187","0.0-115.0","","656776a7904ae00d6b91d1dd","6568aa625c255e39d98f4e99","2","","","","","","","","","","","","null","stimulus/SV_PolicingMSA/LA_42/IMG_1_42.jpg","null","","","","","","2","","","","","",""
"street view slide show","image-button-response","116","1408203","0.0-116.0","","656776a7904ae00d6b91d1dd","6568aa625c255e39d98f4e99","2","","","","","","","","","","","","null","stimulus/SV_PolicingMSA/LA_42/IMG_10_42.jpg","null","","","","","","2","","","","","",""
"street view slide show","image-button-response","117","1409221","0.0-117.0","","656776a7904ae00d6b91d1dd","6568aa625c255e39d98f4e99","2","","","","","","","","","","","","null","stimulus/SV_PolicingMSA/LA_42/IMG_7_42.jpg","null","","","","","","2","","","","","",""
"street view slide show","image-button-response","118","1410238","0.0-118.0","","656776a7904ae00d6b91d1dd","6568aa625c255e39d98f4e99","2","","","","","","","","","","","","null","stimulus/SV_PolicingMSA/LA_42/IMG_13_42.jpg","null","","","","","","2","","","","","",""
"street view slide show","image-button-response","119","1411242","0.0-119.0","","656776a7904ae00d6b91d1dd","6568aa625c255e39d98f4e99","2","","","","","","","","","","","","null","stimulus/SV_PolicingMSA/LA_42/IMG_14_42.jpg","null","","","","","","2","","","","","",""
"dot matrix survey1","survey","120","1418319","0.0-120.0","","656776a7904ae00d6b91d1dd","6568aa625c255e39d98f4e99","2","","","","","","","","","","","","7055","","{""P0_Q0"":null,""P0_Q1"":{""wealthy"":3,""walkable"":3,""safe"":3,""diverse"":3,""traditional"":3}}","","","","","","2","[]","","","","",""
"dot matrix survey2","survey","121","1422669","0.0-121.0","","656776a7904ae00d6b91d1dd","6568aa625c255e39d98f4e99","2","","","","","","","","","","","","4339","","{""P0_Q0"":null,""P0_Q1"":{""violence"":3,""crime"":3,""schools"":3,""opportunities"":3,""drug"":3}}","","","","","","2","[]","","","","",""
"dot matrix survey3","survey","122","1428912","0.0-122.0","","656776a7904ae00d6b91d1dd","6568aa625c255e39d98f4e99","2","","","","","","","","","","","","6232","","{""P0_Q0"":null,""P0_Q1"":{""movein"":3,""moveout"":3,""shopping"":3,""park"":3,""walk"":3,""school"":3}}","","","","","","2","[]","","","","",""
"sliderTrial","html-slider-response","123","1436952","0.0-123.0","","656776a7904ae00d6b91d1dd","6568aa625c255e39d98f4e99","2","","","","","","","","","","","","8037","[""SV_PolicingMSA/LA_42/IMG_0_42.jpg"",""SV_PolicingMSA/LA_42/IMG_5_42.jpg"",""SV_PolicingMSA/LA_42/IMG_2_42.jpg"",""SV_PolicingMSA/LA_42/IMG_1_42.jpg"",""SV_PolicingMSA/LA_42/IMG_10_42.jpg"",""SV_PolicingMSA/LA_42/IMG_7_42.jpg"",""SV_PolicingMSA/LA_42/IMG_13_42.jpg"",""SV_PolicingMSA/LA_42/IMG_14_42.jpg""]","4","","","","","","2","","4","[""./rc_img/cop_condGroup_10_SafeStreets_autoscaled.png"",""./rc_img/cop_condGroup_10_CommunitySafety_autoscaled.png""]","4","",""
"sliderTrial","html-slider-response","124","1437649","0.0-124.0","","656776a7904ae00d6b91d1dd","6568aa625c255e39d98f4e99","2","","","","","","","","","","","","695","[""SV_PolicingMSA/LA_42/IMG_0_42.jpg"",""SV_PolicingMSA/LA_42/IMG_5_42.jpg"",""SV_PolicingMSA/LA_42/IMG_2_42.jpg"",""SV_PolicingMSA/LA_42/IMG_1_42.jpg"",""SV_PolicingMSA/LA_42/IMG_10_42.jpg"",""SV_PolicingMSA/LA_42/IMG_7_42.jpg"",""SV_PolicingMSA/LA_42/IMG_13_42.jpg"",""SV_PolicingMSA/LA_42/IMG_14_42.jpg""]","4","","","","","","2","","4","[""./rc_img/cop_condGroup_13_SafeStreets_autoscaled.png"",""./rc_img/cop_condGroup_13_CommunitySafety_autoscaled.png""]","4","",""
"sliderTrial","html-slider-response","125","1438437","0.0-125.0","","656776a7904ae00d6b91d1dd","6568aa625c255e39d98f4e99","2","","","","","","","","","","","","786","[""SV_PolicingMSA/LA_42/IMG_0_42.jpg"",""SV_PolicingMSA/LA_42/IMG_5_42.jpg"",""SV_PolicingMSA/LA_42/IMG_2_42.jpg"",""SV_PolicingMSA/LA_42/IMG_1_42.jpg"",""SV_PolicingMSA/LA_42/IMG_10_42.jpg"",""SV_PolicingMSA/LA_42/IMG_7_42.jpg"",""SV_PolicingMSA/LA_42/IMG_13_42.jpg"",""SV_PolicingMSA/LA_42/IMG_14_42.jpg""]","4","","","","","","2","","4","[""./rc_img/cop_condGroup_18_CommunitySafety_autoscaled.png"",""./rc_img/cop_condGroup_18_SafeStreets_autoscaled.png""]","4","",""
"sliderTrial","html-slider-response","126","1439119","0.0-126.0","","656776a7904ae00d6b91d1dd","6568aa625c255e39d98f4e99","2","","","","","","","","","","","","680","[""SV_PolicingMSA/LA_42/IMG_0_42.jpg"",""SV_PolicingMSA/LA_42/IMG_5_42.jpg"",""SV_PolicingMSA/LA_42/IMG_2_42.jpg"",""SV_PolicingMSA/LA_42/IMG_1_42.jpg"",""SV_PolicingMSA/LA_42/IMG_10_42.jpg"",""SV_PolicingMSA/LA_42/IMG_7_42.jpg"",""SV_PolicingMSA/LA_42/IMG_13_42.jpg"",""SV_PolicingMSA/LA_42/IMG_14_42.jpg""]","4","","","","","","2","","4","[""./rc_img/cop_condGroup_7_CommunitySafety_autoscaled.png"",""./rc_img/cop_condGroup_7_SafeStreets_autoscaled.png""]","4","",""
"sliderTrial","html-slider-response","127","1439802","0.0-127.0","","656776a7904ae00d6b91d1dd","6568aa625c255e39d98f4e99","2","","","","","","","","","","","","681","[""SV_PolicingMSA/LA_42/IMG_0_42.jpg"",""SV_PolicingMSA/LA_42/IMG_5_42.jpg"",""SV_PolicingMSA/LA_42/IMG_2_42.jpg"",""SV_PolicingMSA/LA_42/IMG_1_42.jpg"",""SV_PolicingMSA/LA_42/IMG_10_42.jpg"",""SV_PolicingMSA/LA_42/IMG_7_42.jpg"",""SV_PolicingMSA/LA_42/IMG_13_42.jpg"",""SV_PolicingMSA/LA_42/IMG_14_42.jpg""]","4","","","","","","2","","4","[""./rc_img/cop_condGroup_12_SafeStreets_autoscaled.png"",""./rc_img/cop_condGroup_12_CommunitySafety_autoscaled.png""]","4","",""
"before_SVSlide_prompt","html-button-response","128","1441257","0.0-128.0","","656776a7904ae00d6b91d1dd","6568aa625c255e39d98f4e99","2","","","","","","","","","","","","1455","Click [Next] to see the next neighborhood!","0","","","","","","","","","","","",""
"street view slide show","image-button-response","129","1442258","0.0-129.0","","656776a7904ae00d6b91d1dd","6568aa625c255e39d98f4e99","2","","","","","","","","","","","","null","stimulus/SV_PolicingMSA/LA_599/IMG_2_599.jpg","null","","","","","","3","","","","","",""
"street view slide show","image-button-response","130","1443260","0.0-130.0","","656776a7904ae00d6b91d1dd","6568aa625c255e39d98f4e99","2","","","","","","","","","","","","null","stimulus/SV_PolicingMSA/LA_599/IMG_4_599.jpg","null","","","","","","3","","","","","",""
"street view slide show","image-button-response","131","1444270","0.0-131.0","","656776a7904ae00d6b91d1dd","6568aa625c255e39d98f4e99","2","","","","","","","","","","","","null","stimulus/SV_PolicingMSA/LA_599/IMG_1_599.jpg","null","","","","","","3","","","","","",""
"street view slide show","image-button-response","132","1445278","0.0-132.0","","656776a7904ae00d6b91d1dd","6568aa625c255e39d98f4e99","2","","","","","","","","","","","","null","stimulus/SV_PolicingMSA/LA_599/IMG_9_599.jpg","null","","","","","","3","","","","","",""
"street view slide show","image-button-response","133","1446283","0.0-133.0","","656776a7904ae00d6b91d1dd","6568aa625c255e39d98f4e99","2","","","","","","","","","","","","null","stimulus/SV_PolicingMSA/LA_599/IMG_11_599.jpg","null","","","","","","3","","","","","",""
"street view slide show","image-button-response","134","1447300","0.0-134.0","","656776a7904ae00d6b91d1dd","6568aa625c255e39d98f4e99","2","","","","","","","","","","","","null","stimulus/SV_PolicingMSA/LA_599/IMG_3_599.jpg","null","","","","","","3","","","","","",""
"street view slide show","image-button-response","135","1448307","0.0-135.0","","656776a7904ae00d6b91d1dd","6568aa625c255e39d98f4e99","2","","","","","","","","","","","","null","stimulus/SV_PolicingMSA/LA_599/IMG_5_599.jpg","null","","","","","","3","","","","","",""
"street view slide show","image-button-response","136","1449317","0.0-136.0","","656776a7904ae00d6b91d1dd","6568aa625c255e39d98f4e99","2","","","","","","","","","","","","null","stimulus/SV_PolicingMSA/LA_599/IMG_8_599.jpg","null","","","","","","3","","","","","",""
"dot matrix survey1","survey","137","1466464","0.0-137.0","","656776a7904ae00d6b91d1dd","6568aa625c255e39d98f4e99","2","","","","","","","","","","","","17139","","{""P0_Q0"":null,""P0_Q1"":{""wealthy"":3,""safe"":3,""walkable"":3,""traditional"":3,""diverse"":3}}","","","","","","3","[]","","","","",""
"dot matrix survey2","survey","138","1478167","0.0-138.0","","656776a7904ae00d6b91d1dd","6568aa625c255e39d98f4e99","2","","","","","","","","","","","","11694","","{""P0_Q0"":null,""P0_Q1"":{""opportunities"":3,""schools"":3,""crime"":3,""violence"":3,""drug"":3}}","","","","","","3","[]","","","","",""
"dot matrix survey3","survey","139","1482709","0.0-139.0","","656776a7904ae00d6b91d1dd","6568aa625c255e39d98f4e99","2","","","","","","","","","","","","4532","","{""P0_Q0"":null,""P0_Q1"":{""movein"":3,""moveout"":3,""shopping"":3,""walk"":3,""park"":3,""school"":3}}","","","","","","3","[]","","","","",""
"sliderTrial","html-slider-response","140","1484511","0.0-140.0","","656776a7904ae00d6b91d1dd","6568aa625c255e39d98f4e99","2","","","","","","","","","","","","1798","[""SV_PolicingMSA/LA_599/IMG_2_599.jpg"",""SV_PolicingMSA/LA_599/IMG_4_599.jpg"",""SV_PolicingMSA/LA_599/IMG_1_599.jpg"",""SV_PolicingMSA/LA_599/IMG_9_599.jpg"",""SV_PolicingMSA/LA_599/IMG_11_599.jpg"",""SV_PolicingMSA/LA_599/IMG_3_599.jpg"",""SV_PolicingMSA/LA_599/IMG_5_599.jpg"",""SV_PolicingMSA/LA_599/IMG_8_599.jpg""]","4","","","","","","3","","4","[""./rc_img/cop_condGroup_6_CommunitySafety_autoscaled.png"",""./rc_img/cop_condGroup_6_SafeStreets_autoscaled.png""]","4","",""
"sliderTrial","html-slider-response","141","1485320","0.0-141.0","","656776a7904ae00d6b91d1dd","6568aa625c255e39d98f4e99","2","","","","","","","","","","","","806","[""SV_PolicingMSA/LA_599/IMG_2_599.jpg"",""SV_PolicingMSA/LA_599/IMG_4_599.jpg"",""SV_PolicingMSA/LA_599/IMG_1_599.jpg"",""SV_PolicingMSA/LA_599/IMG_9_599.jpg"",""SV_PolicingMSA/LA_599/IMG_11_599.jpg"",""SV_PolicingMSA/LA_599/IMG_3_599.jpg"",""SV_PolicingMSA/LA_599/IMG_5_599.jpg"",""SV_PolicingMSA/LA_599/IMG_8_599.jpg""]","4","","","","","","3","","4","[""./rc_img/cop_condGroup_17_CommunitySafety_autoscaled.png"",""./rc_img/cop_condGroup_17_SafeStreets_autoscaled.png""]","4","",""
"sliderTrial","html-slider-response","142","1485973","0.0-142.0","","656776a7904ae00d6b91d1dd","6568aa625c255e39d98f4e99","2","","","","","","","","","","","","651","[""SV_PolicingMSA/LA_599/IMG_2_599.jpg"",""SV_PolicingMSA/LA_599/IMG_4_599.jpg"",""SV_PolicingMSA/LA_599/IMG_1_599.jpg"",""SV_PolicingMSA/LA_599/IMG_9_599.jpg"",""SV_PolicingMSA/LA_599/IMG_11_599.jpg"",""SV_PolicingMSA/LA_599/IMG_3_599.jpg"",""SV_PolicingMSA/LA_599/IMG_5_599.jpg"",""SV_PolicingMSA/LA_599/IMG_8_599.jpg""]","4","","","","","","3","","4","[""./rc_img/cop_condGroup_16_CommunitySafety_autoscaled.png"",""./rc_img/cop_condGroup_16_SafeStreets_autoscaled.png""]","4","",""
"sliderTrial","html-slider-response","143","1486618","0.0-143.0","","656776a7904ae00d6b91d1dd","6568aa625c255e39d98f4e99","2","","","","","","","","","","","","644","[""SV_PolicingMSA/LA_599/IMG_2_599.jpg"",""SV_PolicingMSA/LA_599/IMG_4_599.jpg"",""SV_PolicingMSA/LA_599/IMG_1_599.jpg"",""SV_PolicingMSA/LA_599/IMG_9_599.jpg"",""SV_PolicingMSA/LA_599/IMG_11_599.jpg"",""SV_PolicingMSA/LA_599/IMG_3_599.jpg"",""SV_PolicingMSA/LA_599/IMG_5_599.jpg"",""SV_PolicingMSA/LA_599/IMG_8_599.jpg""]","4","","","","","","3","","4","[""./rc_img/cop_condGroup_11_SafeStreets_autoscaled.png"",""./rc_img/cop_condGroup_11_CommunitySafety_autoscaled.png""]","4","",""
"sliderTrial","html-slider-response","144","1487263","0.0-144.0","","656776a7904ae00d6b91d1dd","6568aa625c255e39d98f4e99","2","","","","","","","","","","","","644","[""SV_PolicingMSA/LA_599/IMG_2_599.jpg"",""SV_PolicingMSA/LA_599/IMG_4_599.jpg"",""SV_PolicingMSA/LA_599/IMG_1_599.jpg"",""SV_PolicingMSA/LA_599/IMG_9_599.jpg"",""SV_PolicingMSA/LA_599/IMG_11_599.jpg"",""SV_PolicingMSA/LA_599/IMG_3_599.jpg"",""SV_PolicingMSA/LA_599/IMG_5_599.jpg"",""SV_PolicingMSA/LA_599/IMG_8_599.jpg""]","4","","","","","","3","","4","[""./rc_img/cop_condGroup_15_CommunitySafety_autoscaled.png"",""./rc_img/cop_condGroup_15_SafeStreets_autoscaled.png""]","4","",""
"demographics","survey-html-form","145","1499226","0.0-145.0","","656776a7904ae00d6b91d1dd","6568aa625c255e39d98f4e99","2","","","","","","","","","","","","11961","","{""age"":""56"",""sex"":""male"",""gender"":""man"",""gender-self-describe"":"""",""zipcode"":""20149""}","","","","","","","","","","","",""
"demographics-list","survey","146","1512879","0.0-146.0","","656776a7904ae00d6b91d1dd","6568aa625c255e39d98f4e99","2","","","","","","","","","","","","13619","","{""P0_Q0"":null,""race-ethnicity"":[""White or of European ancestry""],""education"":""Graduate & professional degrees"",""P1_Q0"":null,""ideology"":""Conservative"",""P2_Q0"":null,""num-moves"":0,""P3_Q0"":null,""social-ladder"":5}","","","","","","","[]","","","","",""
"end-survey","survey-text","147","1514833","0.0-147.0","","656776a7904ae00d6b91d1dd","6568aa625c255e39d98f4e99","2","","","","","","","","","","","","1941","","{""Q0"":""""}","","","","","","","","","","","","2"
"end-survey","html-button-response","148","1516004","0.0-148.0","","656776a7904ae00d6b91d1dd","6568aa625c255e39d98f4e99","2","","","","","","","","","","","","1169","
    You've reached the end of the survey. <br><br> 
    <b>Do not close or refresh this window.</b><br>
    On the next page, you will be automatically redirected to Prolific. <br><br>

    <div class=""alert alert-warning""><b>
    </div>
","0","","","","","","","","","","","",""
