"task","trial_type","trial_index","time_elapsed","internal_node_id","subject_id","study_id","session_id","section","width","height","webaudio","browser","browser_version","mobile","os","fullscreen","vsync_rate","webcam","microphone","rt","stimulus","response","success","timeout","failed_images","failed_audio","failed_video","block","accuracy","slider_start","choices","standardized_response","correct","num_attention_checks_correct"
"pavlovia-init","pavlovia","0","1080","0.0-0.0","","656776a7904ae00d6b91d1dd","6568ace584f3834d41cc7b8a","9","","","","","","","","","","","","","","","","","","","","","","","","","",""
"browser-check","browser-check","1","2097","0.0-1.0","","656776a7904ae00d6b91d1dd","6568ace584f3834d41cc7b8a","9","1920","953","true","chrome","119.0.0","false","Windows 10","true","60.01","true","true","","","","","","","","","","","","","","",""
"consent","html-button-response","2","21163","0.0-2.0","","656776a7904ae00d6b91d1dd","6568ace584f3834d41cc7b8a","9","","","","","","","","","","","","19061","
        <div style=""font-size: 80%; max-width:700px"">
            <h2>CONSENT FORM</h2>
        
            <div style=""text-align: left"">
            <h4>DESCRIPTION</h4>
            <p>
            You will complete a short task where you give your impressions of various neighborhoods and assign individuals to those spaces, and answer some questions about your thoughts and opinions.<br>
            The University of Michigan Institutional Review Board Health Sciences and Behavioral Sciences has determined that this study is exempt from IRB oversight.
            </p>

            <h4>TIME INVOLVEMENT</h4>
            <p>Your participation will take approximately 15 minutes. You will receive $3.15 upon completion of the study.</p>
        
            <h4>RISKS AND BENEFITS</h4>
            <p>
            The risks associated with this study are minimal. The benefits which may reasonably be expected to result from this study are none. We cannot and do not guarantee or promise that you will receive any benefits from this study.
            </p>
          
            <h4>SUBJECT'S RIGHTS</h4>
            <p>
            If you have read this form and have decided to participate in this project, please understand your participation is voluntary and you have the right to withdraw your consent or discontinue participation at any time without penalty or loss of benefits to which you are otherwise entitled. The alternative is not to participate. You have the right to refuse to answer particular questions. Your individual privacy will be maintained in all published and written data resulting from the study.
            </p>

            <h4>HUMAN SUBJECT APPROVAL</h4>
            <p>
            This study is exempt from ongoing IRB review.
            </p>

            <h4>CONTACT INFORMATION</h4>
            If you have any questions, concerns or complaints about this research, its procedures, risks and benefits, contact the Protocol Director, Nicholas Camp, npcamp@umich.edu, (443) 851-6783. <br>

            If you have questions about your rights as a research participant, or wish to obtain information, ask questions or discuss any concerns about this study with someone other than the researcher(s), please contact the following:<br><br>
            University of Michigan<br>
            Health Sciences and Behavioral Sciences Institutional Review Board (IRB-HSBS)<br>
            2800 Plymouth Road<br>
            Building 520, Room 1169Ann Arbor, MI 48109-2800<br>
            Telephone: 734-936-0933 or toll free (866) 936-0933<br>
            Fax: 734-936-1852<br>
            E-mail: irbhsbs@umich.edu<br><br>

            You can also contact the University of Michigan Compliance Hotline at 1-866-990-0111. You may also print this consent form to keep.
            <br><br>
            <div class=""alert alert-warning""><b>
            Do you consent to participate in this study? If you consent to participate in this study, please click “Accept and Continue”. If you select ""Decline and Exit"", you will be exited from the survey. <br>
            </b></div>
            </div>
        </div>
    ","1","","","","","","","","","","","",""
"","preload","3","23858","0.0-3.0","","656776a7904ae00d6b91d1dd","6568ace584f3834d41cc7b8a","9","","","","","","","","","","","","","","","true","false","[]","[]","[]","","","","","","",""
"instructions","html-button-response","4","33470","0.0-4.0","","656776a7904ae00d6b91d1dd","6568ace584f3834d41cc7b8a","9","","","","","","","","","","","","9610","
        <div class=""text-container"">
        <h1>Welcome to the study!</h1>
        
        <div class=""text-left"">
            <p>
                In this study, we are interested in what people can tell about spaces from Google Street View images. <br> Google Street View takes pictures of streets used for Google Earth and Google Maps. <br>You’ll see Google Street View images of different places and answer some questions about each one.<br>
            </p>
        </div>
        <img src = ""assets/img/example.png"" width = 500px, height = auto>
        <br>
    <br>
    ","0","","","","","","","","","","","",""
"instructions","html-button-response","5","36335","0.0-5.0","","656776a7904ae00d6b91d1dd","6568ace584f3834d41cc7b8a","9","","","","","","","","","","","","2863","
    <div class=""text-container"">
        <div class=""text-center"">
            <p>Please remember that your answers are completely anonymous.<br>Go with your gut response- there are no right or wrong answers!</p>
        </div>
    <br>
","0","","","","","","","","","","","",""
"before_SVSlide_prompt","html-button-response","6","38535","0.0-6.0","","656776a7904ae00d6b91d1dd","6568ace584f3834d41cc7b8a","9","","","","","","","","","","","","2198","Click [Next] to see the next neighborhood!","0","","","","","","","","","","","",""
"street view slide show","image-button-response","7","39554","0.0-7.0","","656776a7904ae00d6b91d1dd","6568ace584f3834d41cc7b8a","9","","","","","","","","","","","","null","stimulus/SV_PolicingMSA/NV_84/IMG_4_84.jpg","null","","","","","","2","","","","","",""
"street view slide show","image-button-response","8","40577","0.0-8.0","","656776a7904ae00d6b91d1dd","6568ace584f3834d41cc7b8a","9","","","","","","","","","","","","null","stimulus/SV_PolicingMSA/NV_84/IMG_8_84.jpg","null","","","","","","2","","","","","",""
"street view slide show","image-button-response","9","41595","0.0-9.0","","656776a7904ae00d6b91d1dd","6568ace584f3834d41cc7b8a","9","","","","","","","","","","","","null","stimulus/SV_PolicingMSA/NV_84/IMG_5_84.jpg","null","","","","","","2","","","","","",""
"street view slide show","image-button-response","10","42613","0.0-10.0","","656776a7904ae00d6b91d1dd","6568ace584f3834d41cc7b8a","9","","","","","","","","","","","","null","stimulus/SV_PolicingMSA/NV_84/IMG_14_84.jpg","null","","","","","","2","","","","","",""
"street view slide show","image-button-response","11","43631","0.0-11.0","","656776a7904ae00d6b91d1dd","6568ace584f3834d41cc7b8a","9","","","","","","","","","","","","null","stimulus/SV_PolicingMSA/NV_84/IMG_11_84.jpg","null","","","","","","2","","","","","",""
"street view slide show","image-button-response","12","44649","0.0-12.0","","656776a7904ae00d6b91d1dd","6568ace584f3834d41cc7b8a","9","","","","","","","","","","","","null","stimulus/SV_PolicingMSA/NV_84/IMG_0_84.jpg","null","","","","","","2","","","","","",""
"street view slide show","image-button-response","13","45668","0.0-13.0","","656776a7904ae00d6b91d1dd","6568ace584f3834d41cc7b8a","9","","","","","","","","","","","","null","stimulus/SV_PolicingMSA/NV_84/IMG_3_84.jpg","null","","","","","","2","","","","","",""
"street view slide show","image-button-response","14","46692","0.0-14.0","","656776a7904ae00d6b91d1dd","6568ace584f3834d41cc7b8a","9","","","","","","","","","","","","null","stimulus/SV_PolicingMSA/NV_84/IMG_6_84.jpg","null","","","","","","2","","","","","",""
"dot matrix survey1","survey","15","71693","0.0-15.0","","656776a7904ae00d6b91d1dd","6568ace584f3834d41cc7b8a","9","","","","","","","","","","","","24857","","{""P0_Q0"":null,""P0_Q1"":{""wealthy"":1,""safe"":3,""walkable"":4,""traditional"":4,""diverse"":1}}","","","","","","2","[]","","","","",""
"dot matrix survey2","survey","16","86218","0.0-16.0","","656776a7904ae00d6b91d1dd","6568ace584f3834d41cc7b8a","9","","","","","","","","","","","","14496","","{""P0_Q0"":null,""P0_Q1"":{""violence"":2,""crime"":2,""drug"":2,""schools"":2,""opportunities"":2}}","","","","","","2","[]","","","","",""
"dot matrix survey3","survey","17","107538","0.0-17.0","","656776a7904ae00d6b91d1dd","6568ace584f3834d41cc7b8a","9","","","","","","","","","","","","21299","","{""P0_Q0"":null,""P0_Q1"":{""movein"":1,""moveout"":1,""shopping"":4,""walk"":2,""park"":4,""school"":4}}","","","","","","2","[]","","","","",""
"sliderTrial","html-slider-response","18","119249","0.0-18.0","","656776a7904ae00d6b91d1dd","6568ace584f3834d41cc7b8a","9","","","","","","","","","","","","11705","[""SV_PolicingMSA/NV_84/IMG_4_84.jpg"",""SV_PolicingMSA/NV_84/IMG_8_84.jpg"",""SV_PolicingMSA/NV_84/IMG_5_84.jpg"",""SV_PolicingMSA/NV_84/IMG_14_84.jpg"",""SV_PolicingMSA/NV_84/IMG_11_84.jpg"",""SV_PolicingMSA/NV_84/IMG_0_84.jpg"",""SV_PolicingMSA/NV_84/IMG_3_84.jpg"",""SV_PolicingMSA/NV_84/IMG_6_84.jpg""]","4","","","","","","2","","4","[""./rc_img/cop_condGroup_10_CommunitySafety_autoscaled.png"",""./rc_img/cop_condGroup_10_SafeStreets_autoscaled.png""]","4","",""
"sliderTrial","html-slider-response","19","123168","0.0-19.0","","656776a7904ae00d6b91d1dd","6568ace584f3834d41cc7b8a","9","","","","","","","","","","","","3914","[""SV_PolicingMSA/NV_84/IMG_4_84.jpg"",""SV_PolicingMSA/NV_84/IMG_8_84.jpg"",""SV_PolicingMSA/NV_84/IMG_5_84.jpg"",""SV_PolicingMSA/NV_84/IMG_14_84.jpg"",""SV_PolicingMSA/NV_84/IMG_11_84.jpg"",""SV_PolicingMSA/NV_84/IMG_0_84.jpg"",""SV_PolicingMSA/NV_84/IMG_3_84.jpg"",""SV_PolicingMSA/NV_84/IMG_6_84.jpg""]","6","","","","","","2","","4","[""./rc_img/cop_condGroup_8_SafeStreets_autoscaled.png"",""./rc_img/cop_condGroup_8_CommunitySafety_autoscaled.png""]","2","",""
"sliderTrial","html-slider-response","20","126272","0.0-20.0","","656776a7904ae00d6b91d1dd","6568ace584f3834d41cc7b8a","9","","","","","","","","","","","","3100","[""SV_PolicingMSA/NV_84/IMG_4_84.jpg"",""SV_PolicingMSA/NV_84/IMG_8_84.jpg"",""SV_PolicingMSA/NV_84/IMG_5_84.jpg"",""SV_PolicingMSA/NV_84/IMG_14_84.jpg"",""SV_PolicingMSA/NV_84/IMG_11_84.jpg"",""SV_PolicingMSA/NV_84/IMG_0_84.jpg"",""SV_PolicingMSA/NV_84/IMG_3_84.jpg"",""SV_PolicingMSA/NV_84/IMG_6_84.jpg""]","5","","","","","","2","","4","[""./rc_img/cop_condGroup_12_SafeStreets_autoscaled.png"",""./rc_img/cop_condGroup_12_CommunitySafety_autoscaled.png""]","3","",""
"sliderTrial","html-slider-response","21","129232","0.0-21.0","","656776a7904ae00d6b91d1dd","6568ace584f3834d41cc7b8a","9","","","","","","","","","","","","2956","[""SV_PolicingMSA/NV_84/IMG_4_84.jpg"",""SV_PolicingMSA/NV_84/IMG_8_84.jpg"",""SV_PolicingMSA/NV_84/IMG_5_84.jpg"",""SV_PolicingMSA/NV_84/IMG_14_84.jpg"",""SV_PolicingMSA/NV_84/IMG_11_84.jpg"",""SV_PolicingMSA/NV_84/IMG_0_84.jpg"",""SV_PolicingMSA/NV_84/IMG_3_84.jpg"",""SV_PolicingMSA/NV_84/IMG_6_84.jpg""]","6","","","","","","2","","4","[""./rc_img/cop_condGroup_4_SafeStreets_autoscaled.png"",""./rc_img/cop_condGroup_4_CommunitySafety_autoscaled.png""]","2","",""
"sliderTrial","html-slider-response","22","132254","0.0-22.0","","656776a7904ae00d6b91d1dd","6568ace584f3834d41cc7b8a","9","","","","","","","","","","","","3019","[""SV_PolicingMSA/NV_84/IMG_4_84.jpg"",""SV_PolicingMSA/NV_84/IMG_8_84.jpg"",""SV_PolicingMSA/NV_84/IMG_5_84.jpg"",""SV_PolicingMSA/NV_84/IMG_14_84.jpg"",""SV_PolicingMSA/NV_84/IMG_11_84.jpg"",""SV_PolicingMSA/NV_84/IMG_0_84.jpg"",""SV_PolicingMSA/NV_84/IMG_3_84.jpg"",""SV_PolicingMSA/NV_84/IMG_6_84.jpg""]","7","","","","","","2","","4","[""./rc_img/cop_condGroup_11_SafeStreets_autoscaled.png"",""./rc_img/cop_condGroup_11_CommunitySafety_autoscaled.png""]","1","",""
"before_SVSlide_prompt","html-button-response","23","133487","0.0-23.0","","656776a7904ae00d6b91d1dd","6568ace584f3834d41cc7b8a","9","","","","","","","","","","","","1231","Click [Next] to see the next neighborhood!","0","","","","","","","","","","","",""
"street view slide show","image-button-response","24","134493","0.0-24.0","","656776a7904ae00d6b91d1dd","6568ace584f3834d41cc7b8a","9","","","","","","","","","","","","null","stimulus/SV_PolicingMSA/NV_673/IMG_5_673.jpg","null","","","","","","5","","","","","",""
"street view slide show","image-button-response","25","135505","0.0-25.0","","656776a7904ae00d6b91d1dd","6568ace584f3834d41cc7b8a","9","","","","","","","","","","","","null","stimulus/SV_PolicingMSA/NV_673/IMG_1_673.jpg","null","","","","","","5","","","","","",""
"street view slide show","image-button-response","26","136508","0.0-26.0","","656776a7904ae00d6b91d1dd","6568ace584f3834d41cc7b8a","9","","","","","","","","","","","","null","stimulus/SV_PolicingMSA/NV_673/IMG_12_673.jpg","null","","","","","","5","","","","","",""
"street view slide show","image-button-response","27","137513","0.0-27.0","","656776a7904ae00d6b91d1dd","6568ace584f3834d41cc7b8a","9","","","","","","","","","","","","null","stimulus/SV_PolicingMSA/NV_673/IMG_7_673.jpg","null","","","","","","5","","","","","",""
"street view slide show","image-button-response","28","138530","0.0-28.0","","656776a7904ae00d6b91d1dd","6568ace584f3834d41cc7b8a","9","","","","","","","","","","","","null","stimulus/SV_PolicingMSA/NV_673/IMG_13_673.jpg","null","","","","","","5","","","","","",""
"street view slide show","image-button-response","29","139535","0.0-29.0","","656776a7904ae00d6b91d1dd","6568ace584f3834d41cc7b8a","9","","","","","","","","","","","","null","stimulus/SV_PolicingMSA/NV_673/IMG_8_673.jpg","null","","","","","","5","","","","","",""
"street view slide show","image-button-response","30","140538","0.0-30.0","","656776a7904ae00d6b91d1dd","6568ace584f3834d41cc7b8a","9","","","","","","","","","","","","null","stimulus/SV_PolicingMSA/NV_673/IMG_4_673.jpg","null","","","","","","5","","","","","",""
"street view slide show","image-button-response","31","141543","0.0-31.0","","656776a7904ae00d6b91d1dd","6568ace584f3834d41cc7b8a","9","","","","","","","","","","","","null","stimulus/SV_PolicingMSA/NV_673/IMG_14_673.jpg","null","","","","","","5","","","","","",""
"dot matrix survey1","survey","32","154660","0.0-32.0","","656776a7904ae00d6b91d1dd","6568ace584f3834d41cc7b8a","9","","","","","","","","","","","","13045","","{""P0_Q0"":null,""P0_Q1"":{""wealthy"":3,""safe"":3,""walkable"":3,""traditional"":4,""diverse"":2}}","","","","","","5","[]","","","","",""
"dot matrix survey2","survey","33","170546","0.0-33.0","","656776a7904ae00d6b91d1dd","6568ace584f3834d41cc7b8a","9","","","","","","","","","","","","15863","","{""P0_Q0"":null,""P0_Q1"":{""violence"":2,""crime"":2,""drug"":1,""schools"":3,""opportunities"":3}}","","","","","","5","[]","","","","",""
"dot matrix survey3","survey","34","184874","0.0-34.0","","656776a7904ae00d6b91d1dd","6568ace584f3834d41cc7b8a","9","","","","","","","","","","","","14307","","{""P0_Q0"":null,""P0_Q1"":{""movein"":3,""moveout"":1,""shopping"":4,""walk"":3,""park"":4,""school"":4}}","","","","","","5","[]","","","","",""
"sliderTrial","html-slider-response","35","188073","0.0-35.0","","656776a7904ae00d6b91d1dd","6568ace584f3834d41cc7b8a","9","","","","","","","","","","","","3194","[""SV_PolicingMSA/NV_673/IMG_5_673.jpg"",""SV_PolicingMSA/NV_673/IMG_1_673.jpg"",""SV_PolicingMSA/NV_673/IMG_12_673.jpg"",""SV_PolicingMSA/NV_673/IMG_7_673.jpg"",""SV_PolicingMSA/NV_673/IMG_13_673.jpg"",""SV_PolicingMSA/NV_673/IMG_8_673.jpg"",""SV_PolicingMSA/NV_673/IMG_4_673.jpg"",""SV_PolicingMSA/NV_673/IMG_14_673.jpg""]","6","","","","","","5","","4","[""./rc_img/cop_condGroup_1_SafeStreets_autoscaled.png"",""./rc_img/cop_condGroup_1_CommunitySafety_autoscaled.png""]","2","",""
"sliderTrial","html-slider-response","36","190712","0.0-36.0","","656776a7904ae00d6b91d1dd","6568ace584f3834d41cc7b8a","9","","","","","","","","","","","","2636","[""SV_PolicingMSA/NV_673/IMG_5_673.jpg"",""SV_PolicingMSA/NV_673/IMG_1_673.jpg"",""SV_PolicingMSA/NV_673/IMG_12_673.jpg"",""SV_PolicingMSA/NV_673/IMG_7_673.jpg"",""SV_PolicingMSA/NV_673/IMG_13_673.jpg"",""SV_PolicingMSA/NV_673/IMG_8_673.jpg"",""SV_PolicingMSA/NV_673/IMG_4_673.jpg"",""SV_PolicingMSA/NV_673/IMG_14_673.jpg""]","6","","","","","","5","","4","[""./rc_img/cop_condGroup_13_SafeStreets_autoscaled.png"",""./rc_img/cop_condGroup_13_CommunitySafety_autoscaled.png""]","2","",""
"sliderTrial","html-slider-response","37","193719","0.0-37.0","","656776a7904ae00d6b91d1dd","6568ace584f3834d41cc7b8a","9","","","","","","","","","","","","3003","[""SV_PolicingMSA/NV_673/IMG_5_673.jpg"",""SV_PolicingMSA/NV_673/IMG_1_673.jpg"",""SV_PolicingMSA/NV_673/IMG_12_673.jpg"",""SV_PolicingMSA/NV_673/IMG_7_673.jpg"",""SV_PolicingMSA/NV_673/IMG_13_673.jpg"",""SV_PolicingMSA/NV_673/IMG_8_673.jpg"",""SV_PolicingMSA/NV_673/IMG_4_673.jpg"",""SV_PolicingMSA/NV_673/IMG_14_673.jpg""]","2","","","","","","5","","4","[""./rc_img/cop_condGroup_20_CommunitySafety_autoscaled.png"",""./rc_img/cop_condGroup_20_SafeStreets_autoscaled.png""]","2","",""
"sliderTrial","html-slider-response","38","197136","0.0-38.0","","656776a7904ae00d6b91d1dd","6568ace584f3834d41cc7b8a","9","","","","","","","","","","","","3413","[""SV_PolicingMSA/NV_673/IMG_5_673.jpg"",""SV_PolicingMSA/NV_673/IMG_1_673.jpg"",""SV_PolicingMSA/NV_673/IMG_12_673.jpg"",""SV_PolicingMSA/NV_673/IMG_7_673.jpg"",""SV_PolicingMSA/NV_673/IMG_13_673.jpg"",""SV_PolicingMSA/NV_673/IMG_8_673.jpg"",""SV_PolicingMSA/NV_673/IMG_4_673.jpg"",""SV_PolicingMSA/NV_673/IMG_14_673.jpg""]","1","","","","","","5","","4","[""./rc_img/cop_condGroup_16_CommunitySafety_autoscaled.png"",""./rc_img/cop_condGroup_16_SafeStreets_autoscaled.png""]","1","",""
"sliderTrial","html-slider-response","39","200191","0.0-39.0","","656776a7904ae00d6b91d1dd","6568ace584f3834d41cc7b8a","9","","","","","","","","","","","","3051","[""SV_PolicingMSA/NV_673/IMG_5_673.jpg"",""SV_PolicingMSA/NV_673/IMG_1_673.jpg"",""SV_PolicingMSA/NV_673/IMG_12_673.jpg"",""SV_PolicingMSA/NV_673/IMG_7_673.jpg"",""SV_PolicingMSA/NV_673/IMG_13_673.jpg"",""SV_PolicingMSA/NV_673/IMG_8_673.jpg"",""SV_PolicingMSA/NV_673/IMG_4_673.jpg"",""SV_PolicingMSA/NV_673/IMG_14_673.jpg""]","2","","","","","","5","","4","[""./rc_img/cop_condGroup_6_CommunitySafety_autoscaled.png"",""./rc_img/cop_condGroup_6_SafeStreets_autoscaled.png""]","2","",""
"before_SVSlide_prompt","html-button-response","40","201591","0.0-40.0","","656776a7904ae00d6b91d1dd","6568ace584f3834d41cc7b8a","9","","","","","","","","","","","","1398","Click [Next] to see the next neighborhood!","0","","","","","","","","","","","",""
"street view slide show","image-button-response","41","202608","0.0-41.0","","656776a7904ae00d6b91d1dd","6568ace584f3834d41cc7b8a","9","","","","","","","","","","","","null","stimulus/SV_PolicingMSA/NV_329/IMG_12_329.jpg","null","","","","","","2","","","","","",""
"street view slide show","image-button-response","42","203612","0.0-42.0","","656776a7904ae00d6b91d1dd","6568ace584f3834d41cc7b8a","9","","","","","","","","","","","","null","stimulus/SV_PolicingMSA/NV_329/IMG_6_329.jpg","null","","","","","","2","","","","","",""
"street view slide show","image-button-response","43","204630","0.0-43.0","","656776a7904ae00d6b91d1dd","6568ace584f3834d41cc7b8a","9","","","","","","","","","","","","null","stimulus/SV_PolicingMSA/NV_329/IMG_2_329.jpg","null","","","","","","2","","","","","",""
"street view slide show","image-button-response","44","205634","0.0-44.0","","656776a7904ae00d6b91d1dd","6568ace584f3834d41cc7b8a","9","","","","","","","","","","","","null","stimulus/SV_PolicingMSA/NV_329/IMG_10_329.jpg","null","","","","","","2","","","","","",""
"street view slide show","image-button-response","45","206638","0.0-45.0","","656776a7904ae00d6b91d1dd","6568ace584f3834d41cc7b8a","9","","","","","","","","","","","","null","stimulus/SV_PolicingMSA/NV_329/IMG_0_329.jpg","null","","","","","","2","","","","","",""
"street view slide show","image-button-response","46","207641","0.0-46.0","","656776a7904ae00d6b91d1dd","6568ace584f3834d41cc7b8a","9","","","","","","","","","","","","null","stimulus/SV_PolicingMSA/NV_329/IMG_13_329.jpg","null","","","","","","2","","","","","",""
"street view slide show","image-button-response","47","208644","0.0-47.0","","656776a7904ae00d6b91d1dd","6568ace584f3834d41cc7b8a","9","","","","","","","","","","","","null","stimulus/SV_PolicingMSA/NV_329/IMG_14_329.jpg","null","","","","","","2","","","","","",""
"street view slide show","image-button-response","48","209649","0.0-48.0","","656776a7904ae00d6b91d1dd","6568ace584f3834d41cc7b8a","9","","","","","","","","","","","","null","stimulus/SV_PolicingMSA/NV_329/IMG_1_329.jpg","null","","","","","","2","","","","","",""
"dot matrix survey1","survey","49","221808","0.0-49.0","","656776a7904ae00d6b91d1dd","6568ace584f3834d41cc7b8a","9","","","","","","","","","","","","12122","","{""P0_Q0"":null,""P0_Q1"":{""wealthy"":3,""safe"":3,""walkable"":3,""traditional"":4,""diverse"":3}}","","","","","","2","[]","","","","",""
"dot matrix survey2","survey","50","230029","0.0-50.0","","656776a7904ae00d6b91d1dd","6568ace584f3834d41cc7b8a","9","","","","","","","","","","","","8202","","{""P0_Q0"":null,""P0_Q1"":{""violence"":2,""crime"":2,""drug"":2,""schools"":3,""opportunities"":3}}","","","","","","2","[]","","","","",""
"dot matrix survey3","survey","51","241396","0.0-51.0","","656776a7904ae00d6b91d1dd","6568ace584f3834d41cc7b8a","9","","","","","","","","","","","","11347","","{""P0_Q0"":null,""P0_Q1"":{""movein"":3,""moveout"":1,""shopping"":4,""walk"":3,""park"":4,""school"":4}}","","","","","","2","[]","","","","",""
"sliderTrial","html-slider-response","52","244823","0.0-52.0","","656776a7904ae00d6b91d1dd","6568ace584f3834d41cc7b8a","9","","","","","","","","","","","","3424","[""SV_PolicingMSA/NV_329/IMG_12_329.jpg"",""SV_PolicingMSA/NV_329/IMG_6_329.jpg"",""SV_PolicingMSA/NV_329/IMG_2_329.jpg"",""SV_PolicingMSA/NV_329/IMG_10_329.jpg"",""SV_PolicingMSA/NV_329/IMG_0_329.jpg"",""SV_PolicingMSA/NV_329/IMG_13_329.jpg"",""SV_PolicingMSA/NV_329/IMG_14_329.jpg"",""SV_PolicingMSA/NV_329/IMG_1_329.jpg""]","6","","","","","","2","","4","[""./rc_img/cop_condGroup_15_SafeStreets_autoscaled.png"",""./rc_img/cop_condGroup_15_CommunitySafety_autoscaled.png""]","2","",""
"sliderTrial","html-slider-response","53","251415","0.0-53.0","","656776a7904ae00d6b91d1dd","6568ace584f3834d41cc7b8a","9","","","","","","","","","","","","6588","[""SV_PolicingMSA/NV_329/IMG_12_329.jpg"",""SV_PolicingMSA/NV_329/IMG_6_329.jpg"",""SV_PolicingMSA/NV_329/IMG_2_329.jpg"",""SV_PolicingMSA/NV_329/IMG_10_329.jpg"",""SV_PolicingMSA/NV_329/IMG_0_329.jpg"",""SV_PolicingMSA/NV_329/IMG_13_329.jpg"",""SV_PolicingMSA/NV_329/IMG_14_329.jpg"",""SV_PolicingMSA/NV_329/IMG_1_329.jpg""]","2","","","","","","2","","4","[""./rc_img/cop_condGroup_14_CommunitySafety_autoscaled.png"",""./rc_img/cop_condGroup_14_SafeStreets_autoscaled.png""]","2","",""
"sliderTrial","html-slider-response","54","254342","0.0-54.0","","656776a7904ae00d6b91d1dd","6568ace584f3834d41cc7b8a","9","","","","","","","","","","","","2924","[""SV_PolicingMSA/NV_329/IMG_12_329.jpg"",""SV_PolicingMSA/NV_329/IMG_6_329.jpg"",""SV_PolicingMSA/NV_329/IMG_2_329.jpg"",""SV_PolicingMSA/NV_329/IMG_10_329.jpg"",""SV_PolicingMSA/NV_329/IMG_0_329.jpg"",""SV_PolicingMSA/NV_329/IMG_13_329.jpg"",""SV_PolicingMSA/NV_329/IMG_14_329.jpg"",""SV_PolicingMSA/NV_329/IMG_1_329.jpg""]","6","","","","","","2","","4","[""./rc_img/cop_condGroup_3_SafeStreets_autoscaled.png"",""./rc_img/cop_condGroup_3_CommunitySafety_autoscaled.png""]","2","",""
"sliderTrial","html-slider-response","55","260648","0.0-55.0","","656776a7904ae00d6b91d1dd","6568ace584f3834d41cc7b8a","9","","","","","","","","","","","","6301","[""SV_PolicingMSA/NV_329/IMG_12_329.jpg"",""SV_PolicingMSA/NV_329/IMG_6_329.jpg"",""SV_PolicingMSA/NV_329/IMG_2_329.jpg"",""SV_PolicingMSA/NV_329/IMG_10_329.jpg"",""SV_PolicingMSA/NV_329/IMG_0_329.jpg"",""SV_PolicingMSA/NV_329/IMG_13_329.jpg"",""SV_PolicingMSA/NV_329/IMG_14_329.jpg"",""SV_PolicingMSA/NV_329/IMG_1_329.jpg""]","3","","","","","","2","","4","[""./rc_img/cop_condGroup_18_CommunitySafety_autoscaled.png"",""./rc_img/cop_condGroup_18_SafeStreets_autoscaled.png""]","3","",""
"sliderTrial","html-slider-response","56","263191","0.0-56.0","","656776a7904ae00d6b91d1dd","6568ace584f3834d41cc7b8a","9","","","","","","","","","","","","2541","[""SV_PolicingMSA/NV_329/IMG_12_329.jpg"",""SV_PolicingMSA/NV_329/IMG_6_329.jpg"",""SV_PolicingMSA/NV_329/IMG_2_329.jpg"",""SV_PolicingMSA/NV_329/IMG_10_329.jpg"",""SV_PolicingMSA/NV_329/IMG_0_329.jpg"",""SV_PolicingMSA/NV_329/IMG_13_329.jpg"",""SV_PolicingMSA/NV_329/IMG_14_329.jpg"",""SV_PolicingMSA/NV_329/IMG_1_329.jpg""]","6","","","","","","2","","4","[""./rc_img/cop_condGroup_17_SafeStreets_autoscaled.png"",""./rc_img/cop_condGroup_17_CommunitySafety_autoscaled.png""]","2","",""
"before_SVSlide_prompt","html-button-response","57","264399","0.0-57.0","","656776a7904ae00d6b91d1dd","6568ace584f3834d41cc7b8a","9","","","","","","","","","","","","1206","Click [Next] to see the next neighborhood!","0","","","","","","","","","","","",""
"street view slide show","image-button-response","58","265408","0.0-58.0","","656776a7904ae00d6b91d1dd","6568ace584f3834d41cc7b8a","9","","","","","","","","","","","","null","stimulus/SV_PolicingMSA/NV_189/IMG_9_189.jpg","null","","","","","","1","","","","","",""
"street view slide show","image-button-response","59","266412","0.0-59.0","","656776a7904ae00d6b91d1dd","6568ace584f3834d41cc7b8a","9","","","","","","","","","","","","null","stimulus/SV_PolicingMSA/NV_189/IMG_5_189.jpg","null","","","","","","1","","","","","",""
"street view slide show","image-button-response","60","267427","0.0-60.0","","656776a7904ae00d6b91d1dd","6568ace584f3834d41cc7b8a","9","","","","","","","","","","","","null","stimulus/SV_PolicingMSA/NV_189/IMG_7_189.jpg","null","","","","","","1","","","","","",""
"street view slide show","image-button-response","61","268434","0.0-61.0","","656776a7904ae00d6b91d1dd","6568ace584f3834d41cc7b8a","9","","","","","","","","","","","","null","stimulus/SV_PolicingMSA/NV_189/IMG_8_189.jpg","null","","","","","","1","","","","","",""
"street view slide show","image-button-response","62","269437","0.0-62.0","","656776a7904ae00d6b91d1dd","6568ace584f3834d41cc7b8a","9","","","","","","","","","","","","null","stimulus/SV_PolicingMSA/NV_189/IMG_4_189.jpg","null","","","","","","1","","","","","",""
"street view slide show","image-button-response","63","270462","0.0-63.0","","656776a7904ae00d6b91d1dd","6568ace584f3834d41cc7b8a","9","","","","","","","","","","","","null","stimulus/SV_PolicingMSA/NV_189/IMG_11_189.jpg","null","","","","","","1","","","","","",""
"street view slide show","image-button-response","64","271467","0.0-64.0","","656776a7904ae00d6b91d1dd","6568ace584f3834d41cc7b8a","9","","","","","","","","","","","","null","stimulus/SV_PolicingMSA/NV_189/IMG_10_189.jpg","null","","","","","","1","","","","","",""
"street view slide show","image-button-response","65","272485","0.0-65.0","","656776a7904ae00d6b91d1dd","6568ace584f3834d41cc7b8a","9","","","","","","","","","","","","null","stimulus/SV_PolicingMSA/NV_189/IMG_6_189.jpg","null","","","","","","1","","","","","",""
"dot matrix survey1","survey","66","282763","0.0-66.0","","656776a7904ae00d6b91d1dd","6568ace584f3834d41cc7b8a","9","","","","","","","","","","","","10239","","{""P0_Q0"":null,""P0_Q1"":{""wealthy"":1,""safe"":2,""walkable"":2,""traditional"":4,""diverse"":4}}","","","","","","1","[]","","","","",""
"dot matrix survey2","survey","67","289201","0.0-67.0","","656776a7904ae00d6b91d1dd","6568ace584f3834d41cc7b8a","9","","","","","","","","","","","","6420","","{""P0_Q0"":null,""P0_Q1"":{""violence"":2,""crime"":2,""drug"":2,""schools"":2,""opportunities"":2}}","","","","","","1","[]","","","","",""
"dot matrix survey3","survey","68","304901","0.0-68.0","","656776a7904ae00d6b91d1dd","6568ace584f3834d41cc7b8a","9","","","","","","","","","","","","15682","","{""P0_Q0"":null,""P0_Q1"":{""movein"":1,""moveout"":2,""shopping"":3,""walk"":2,""park"":3,""school"":3}}","","","","","","1","[]","","","","",""
"sliderTrial","html-slider-response","69","308088","0.0-69.0","","656776a7904ae00d6b91d1dd","6568ace584f3834d41cc7b8a","9","","","","","","","","","","","","3184","[""SV_PolicingMSA/NV_189/IMG_9_189.jpg"",""SV_PolicingMSA/NV_189/IMG_5_189.jpg"",""SV_PolicingMSA/NV_189/IMG_7_189.jpg"",""SV_PolicingMSA/NV_189/IMG_8_189.jpg"",""SV_PolicingMSA/NV_189/IMG_4_189.jpg"",""SV_PolicingMSA/NV_189/IMG_11_189.jpg"",""SV_PolicingMSA/NV_189/IMG_10_189.jpg"",""SV_PolicingMSA/NV_189/IMG_6_189.jpg""]","1","","","","","","1","","4","[""./rc_img/cop_condGroup_19_CommunitySafety_autoscaled.png"",""./rc_img/cop_condGroup_19_SafeStreets_autoscaled.png""]","1","",""
"sliderTrial_attention","html-slider-response","70","318098","0.0-70.0","","656776a7904ae00d6b91d1dd","6568ace584f3834d41cc7b8a","9","","","","","","","","","","","","null","[""SV_PolicingMSA/NV_189/IMG_9_189.jpg"",""SV_PolicingMSA/NV_189/IMG_5_189.jpg"",""SV_PolicingMSA/NV_189/IMG_7_189.jpg"",""SV_PolicingMSA/NV_189/IMG_8_189.jpg"",""SV_PolicingMSA/NV_189/IMG_4_189.jpg"",""SV_PolicingMSA/NV_189/IMG_11_189.jpg"",""SV_PolicingMSA/NV_189/IMG_10_189.jpg"",""SV_PolicingMSA/NV_189/IMG_6_189.jpg""]","null","","","","","","1","","4","[""./assets/img/attnchk.png"",""./assets/img/attnchk.png""]","","true",""
"sliderTrial","html-slider-response","71","323936","0.0-71.0","","656776a7904ae00d6b91d1dd","6568ace584f3834d41cc7b8a","9","","","","","","","","","","","","5833","[""SV_PolicingMSA/NV_189/IMG_9_189.jpg"",""SV_PolicingMSA/NV_189/IMG_5_189.jpg"",""SV_PolicingMSA/NV_189/IMG_7_189.jpg"",""SV_PolicingMSA/NV_189/IMG_8_189.jpg"",""SV_PolicingMSA/NV_189/IMG_4_189.jpg"",""SV_PolicingMSA/NV_189/IMG_11_189.jpg"",""SV_PolicingMSA/NV_189/IMG_10_189.jpg"",""SV_PolicingMSA/NV_189/IMG_6_189.jpg""]","2","","","","","","1","","4","[""./rc_img/cop_condGroup_7_CommunitySafety_autoscaled.png"",""./rc_img/cop_condGroup_7_SafeStreets_autoscaled.png""]","2","",""
"sliderTrial","html-slider-response","72","326392","0.0-72.0","","656776a7904ae00d6b91d1dd","6568ace584f3834d41cc7b8a","9","","","","","","","","","","","","2452","[""SV_PolicingMSA/NV_189/IMG_9_189.jpg"",""SV_PolicingMSA/NV_189/IMG_5_189.jpg"",""SV_PolicingMSA/NV_189/IMG_7_189.jpg"",""SV_PolicingMSA/NV_189/IMG_8_189.jpg"",""SV_PolicingMSA/NV_189/IMG_4_189.jpg"",""SV_PolicingMSA/NV_189/IMG_11_189.jpg"",""SV_PolicingMSA/NV_189/IMG_10_189.jpg"",""SV_PolicingMSA/NV_189/IMG_6_189.jpg""]","2","","","","","","1","","4","[""./rc_img/cop_condGroup_5_CommunitySafety_autoscaled.png"",""./rc_img/cop_condGroup_5_SafeStreets_autoscaled.png""]","2","",""
"sliderTrial","html-slider-response","73","329511","0.0-73.0","","656776a7904ae00d6b91d1dd","6568ace584f3834d41cc7b8a","9","","","","","","","","","","","","3116","[""SV_PolicingMSA/NV_189/IMG_9_189.jpg"",""SV_PolicingMSA/NV_189/IMG_5_189.jpg"",""SV_PolicingMSA/NV_189/IMG_7_189.jpg"",""SV_PolicingMSA/NV_189/IMG_8_189.jpg"",""SV_PolicingMSA/NV_189/IMG_4_189.jpg"",""SV_PolicingMSA/NV_189/IMG_11_189.jpg"",""SV_PolicingMSA/NV_189/IMG_10_189.jpg"",""SV_PolicingMSA/NV_189/IMG_6_189.jpg""]","6","","","","","","1","","4","[""./rc_img/cop_condGroup_9_SafeStreets_autoscaled.png"",""./rc_img/cop_condGroup_9_CommunitySafety_autoscaled.png""]","2","",""
"sliderTrial","html-slider-response","74","332294","0.0-74.0","","656776a7904ae00d6b91d1dd","6568ace584f3834d41cc7b8a","9","","","","","","","","","","","","2779","[""SV_PolicingMSA/NV_189/IMG_9_189.jpg"",""SV_PolicingMSA/NV_189/IMG_5_189.jpg"",""SV_PolicingMSA/NV_189/IMG_7_189.jpg"",""SV_PolicingMSA/NV_189/IMG_8_189.jpg"",""SV_PolicingMSA/NV_189/IMG_4_189.jpg"",""SV_PolicingMSA/NV_189/IMG_11_189.jpg"",""SV_PolicingMSA/NV_189/IMG_10_189.jpg"",""SV_PolicingMSA/NV_189/IMG_6_189.jpg""]","6","","","","","","1","","4","[""./rc_img/cop_condGroup_2_SafeStreets_autoscaled.png"",""./rc_img/cop_condGroup_2_CommunitySafety_autoscaled.png""]","2","",""
"half-way","html-button-response","75","348051","0.0-75.0","","656776a7904ae00d6b91d1dd","6568ace584f3834d41cc7b8a","9","","","","","","","","","","","","null","
    <h3>You are now half way through the study.</h3>
    <p>Please take a quick, 15-second break before you continue.</p>
    <img src='assets/img/countdown-15.gif'>
    <p>The study will automatically advance forward after the countdown is complete. <br> However, you may click ""Next"" to advance forward now if you wish.</p>
    ","null","","","","","","","","","","","",""
"before_SVSlide_prompt","html-button-response","76","349271","0.0-76.0","","656776a7904ae00d6b91d1dd","6568ace584f3834d41cc7b8a","9","","","","","","","","","","","","1219","Click [Next] to see the next neighborhood!","0","","","","","","","","","","","",""
"street view slide show","image-button-response","77","350273","0.0-77.0","","656776a7904ae00d6b91d1dd","6568ace584f3834d41cc7b8a","9","","","","","","","","","","","","null","stimulus/SV_PolicingMSA/NV_754/IMG_4_754.jpg","null","","","","","","4","","","","","",""
"street view slide show","image-button-response","78","351290","0.0-78.0","","656776a7904ae00d6b91d1dd","6568ace584f3834d41cc7b8a","9","","","","","","","","","","","","null","stimulus/SV_PolicingMSA/NV_754/IMG_1_754.jpg","null","","","","","","4","","","","","",""
"street view slide show","image-button-response","79","352293","0.0-79.0","","656776a7904ae00d6b91d1dd","6568ace584f3834d41cc7b8a","9","","","","","","","","","","","","null","stimulus/SV_PolicingMSA/NV_754/IMG_6_754.jpg","null","","","","","","4","","","","","",""
"street view slide show","image-button-response","80","353299","0.0-80.0","","656776a7904ae00d6b91d1dd","6568ace584f3834d41cc7b8a","9","","","","","","","","","","","","null","stimulus/SV_PolicingMSA/NV_754/IMG_2_754.jpg","null","","","","","","4","","","","","",""
"street view slide show","image-button-response","81","354302","0.0-81.0","","656776a7904ae00d6b91d1dd","6568ace584f3834d41cc7b8a","9","","","","","","","","","","","","null","stimulus/SV_PolicingMSA/NV_754/IMG_10_754.jpg","null","","","","","","4","","","","","",""
"street view slide show","image-button-response","82","355305","0.0-82.0","","656776a7904ae00d6b91d1dd","6568ace584f3834d41cc7b8a","9","","","","","","","","","","","","null","stimulus/SV_PolicingMSA/NV_754/IMG_8_754.jpg","null","","","","","","4","","","","","",""
"street view slide show","image-button-response","83","356310","0.0-83.0","","656776a7904ae00d6b91d1dd","6568ace584f3834d41cc7b8a","9","","","","","","","","","","","","null","stimulus/SV_PolicingMSA/NV_754/IMG_14_754.jpg","null","","","","","","4","","","","","",""
"street view slide show","image-button-response","84","357313","0.0-84.0","","656776a7904ae00d6b91d1dd","6568ace584f3834d41cc7b8a","9","","","","","","","","","","","","null","stimulus/SV_PolicingMSA/NV_754/IMG_0_754.jpg","null","","","","","","4","","","","","",""
"dot matrix survey1","survey","85","365659","0.0-85.0","","656776a7904ae00d6b91d1dd","6568ace584f3834d41cc7b8a","9","","","","","","","","","","","","8320","","{""P0_Q0"":null,""P0_Q1"":{""wealthy"":3,""safe"":3,""walkable"":3,""traditional"":3,""diverse"":2}}","","","","","","4","[]","","","","",""
"dot matrix survey2","survey","86","374018","0.0-86.0","","656776a7904ae00d6b91d1dd","6568ace584f3834d41cc7b8a","9","","","","","","","","","","","","8344","","{""P0_Q0"":null,""P0_Q1"":{""violence"":1,""crime"":2,""drug"":1,""schools"":3,""opportunities"":3}}","","","","","","4","[]","","","","",""
"dot matrix survey3","survey","87","386090","0.0-87.0","","656776a7904ae00d6b91d1dd","6568ace584f3834d41cc7b8a","9","","","","","","","","","","","","12056","","{""P0_Q0"":null,""P0_Q1"":{""movein"":4,""moveout"":1,""shopping"":4,""walk"":3,""park"":4,""school"":4}}","","","","","","4","[]","","","","",""
"sliderTrial","html-slider-response","88","389312","0.0-88.0","","656776a7904ae00d6b91d1dd","6568ace584f3834d41cc7b8a","9","","","","","","","","","","","","3218","[""SV_PolicingMSA/NV_754/IMG_4_754.jpg"",""SV_PolicingMSA/NV_754/IMG_1_754.jpg"",""SV_PolicingMSA/NV_754/IMG_6_754.jpg"",""SV_PolicingMSA/NV_754/IMG_2_754.jpg"",""SV_PolicingMSA/NV_754/IMG_10_754.jpg"",""SV_PolicingMSA/NV_754/IMG_8_754.jpg"",""SV_PolicingMSA/NV_754/IMG_14_754.jpg"",""SV_PolicingMSA/NV_754/IMG_0_754.jpg""]","1","","","","","","4","","4","[""./rc_img/cop_condGroup_10_CommunitySafety_autoscaled.png"",""./rc_img/cop_condGroup_10_SafeStreets_autoscaled.png""]","1","",""
"sliderTrial","html-slider-response","89","392703","0.0-89.0","","656776a7904ae00d6b91d1dd","6568ace584f3834d41cc7b8a","9","","","","","","","","","","","","3387","[""SV_PolicingMSA/NV_754/IMG_4_754.jpg"",""SV_PolicingMSA/NV_754/IMG_1_754.jpg"",""SV_PolicingMSA/NV_754/IMG_6_754.jpg"",""SV_PolicingMSA/NV_754/IMG_2_754.jpg"",""SV_PolicingMSA/NV_754/IMG_10_754.jpg"",""SV_PolicingMSA/NV_754/IMG_8_754.jpg"",""SV_PolicingMSA/NV_754/IMG_14_754.jpg"",""SV_PolicingMSA/NV_754/IMG_0_754.jpg""]","6","","","","","","4","","4","[""./rc_img/cop_condGroup_8_SafeStreets_autoscaled.png"",""./rc_img/cop_condGroup_8_CommunitySafety_autoscaled.png""]","2","",""
"sliderTrial","html-slider-response","90","395423","0.0-90.0","","656776a7904ae00d6b91d1dd","6568ace584f3834d41cc7b8a","9","","","","","","","","","","","","2717","[""SV_PolicingMSA/NV_754/IMG_4_754.jpg"",""SV_PolicingMSA/NV_754/IMG_1_754.jpg"",""SV_PolicingMSA/NV_754/IMG_6_754.jpg"",""SV_PolicingMSA/NV_754/IMG_2_754.jpg"",""SV_PolicingMSA/NV_754/IMG_10_754.jpg"",""SV_PolicingMSA/NV_754/IMG_8_754.jpg"",""SV_PolicingMSA/NV_754/IMG_14_754.jpg"",""SV_PolicingMSA/NV_754/IMG_0_754.jpg""]","6","","","","","","4","","4","[""./rc_img/cop_condGroup_12_SafeStreets_autoscaled.png"",""./rc_img/cop_condGroup_12_CommunitySafety_autoscaled.png""]","2","",""
"sliderTrial","html-slider-response","91","398472","0.0-91.0","","656776a7904ae00d6b91d1dd","6568ace584f3834d41cc7b8a","9","","","","","","","","","","","","3045","[""SV_PolicingMSA/NV_754/IMG_4_754.jpg"",""SV_PolicingMSA/NV_754/IMG_1_754.jpg"",""SV_PolicingMSA/NV_754/IMG_6_754.jpg"",""SV_PolicingMSA/NV_754/IMG_2_754.jpg"",""SV_PolicingMSA/NV_754/IMG_10_754.jpg"",""SV_PolicingMSA/NV_754/IMG_8_754.jpg"",""SV_PolicingMSA/NV_754/IMG_14_754.jpg"",""SV_PolicingMSA/NV_754/IMG_0_754.jpg""]","6","","","","","","4","","4","[""./rc_img/cop_condGroup_4_SafeStreets_autoscaled.png"",""./rc_img/cop_condGroup_4_CommunitySafety_autoscaled.png""]","2","",""
"sliderTrial","html-slider-response","92","400769","0.0-92.0","","656776a7904ae00d6b91d1dd","6568ace584f3834d41cc7b8a","9","","","","","","","","","","","","2291","[""SV_PolicingMSA/NV_754/IMG_4_754.jpg"",""SV_PolicingMSA/NV_754/IMG_1_754.jpg"",""SV_PolicingMSA/NV_754/IMG_6_754.jpg"",""SV_PolicingMSA/NV_754/IMG_2_754.jpg"",""SV_PolicingMSA/NV_754/IMG_10_754.jpg"",""SV_PolicingMSA/NV_754/IMG_8_754.jpg"",""SV_PolicingMSA/NV_754/IMG_14_754.jpg"",""SV_PolicingMSA/NV_754/IMG_0_754.jpg""]","6","","","","","","4","","4","[""./rc_img/cop_condGroup_11_SafeStreets_autoscaled.png"",""./rc_img/cop_condGroup_11_CommunitySafety_autoscaled.png""]","2","",""
"before_SVSlide_prompt","html-button-response","93","401944","0.0-93.0","","656776a7904ae00d6b91d1dd","6568ace584f3834d41cc7b8a","9","","","","","","","","","","","","1173","Click [Next] to see the next neighborhood!","0","","","","","","","","","","","",""
"street view slide show","image-button-response","94","402961","0.0-94.0","","656776a7904ae00d6b91d1dd","6568ace584f3834d41cc7b8a","9","","","","","","","","","","","","null","stimulus/SV_PolicingMSA/NV_0/IMG_5_0.jpg","null","","","","","","0","","","","","",""
"street view slide show","image-button-response","95","403995","0.0-95.0","","656776a7904ae00d6b91d1dd","6568ace584f3834d41cc7b8a","9","","","","","","","","","","","","null","stimulus/SV_PolicingMSA/NV_0/IMG_0_0.jpg","null","","","","","","0","","","","","",""
"street view slide show","image-button-response","96","404999","0.0-96.0","","656776a7904ae00d6b91d1dd","6568ace584f3834d41cc7b8a","9","","","","","","","","","","","","null","stimulus/SV_PolicingMSA/NV_0/IMG_4_0.jpg","null","","","","","","0","","","","","",""
"street view slide show","image-button-response","97","406003","0.0-97.0","","656776a7904ae00d6b91d1dd","6568ace584f3834d41cc7b8a","9","","","","","","","","","","","","null","stimulus/SV_PolicingMSA/NV_0/IMG_12_0.jpg","null","","","","","","0","","","","","",""
"street view slide show","image-button-response","98","407006","0.0-98.0","","656776a7904ae00d6b91d1dd","6568ace584f3834d41cc7b8a","9","","","","","","","","","","","","null","stimulus/SV_PolicingMSA/NV_0/IMG_13_0.jpg","null","","","","","","0","","","","","",""
"street view slide show","image-button-response","99","408024","0.0-99.0","","656776a7904ae00d6b91d1dd","6568ace584f3834d41cc7b8a","9","","","","","","","","","","","","null","stimulus/SV_PolicingMSA/NV_0/IMG_7_0.jpg","null","","","","","","0","","","","","",""
"street view slide show","image-button-response","100","409042","0.0-100.0","","656776a7904ae00d6b91d1dd","6568ace584f3834d41cc7b8a","9","","","","","","","","","","","","null","stimulus/SV_PolicingMSA/NV_0/IMG_11_0.jpg","null","","","","","","0","","","","","",""
"street view slide show","image-button-response","101","410059","0.0-101.0","","656776a7904ae00d6b91d1dd","6568ace584f3834d41cc7b8a","9","","","","","","","","","","","","null","stimulus/SV_PolicingMSA/NV_0/IMG_14_0.jpg","null","","","","","","0","","","","","",""
"dot matrix survey1","survey","102","420664","0.0-102.0","","656776a7904ae00d6b91d1dd","6568ace584f3834d41cc7b8a","9","","","","","","","","","","","","10564","","{""P0_Q0"":null,""P0_Q1"":{""wealthy"":1,""safe"":1,""walkable"":1,""traditional"":3,""diverse"":1}}","","","","","","0","[]","","","","",""
"dot matrix survey2","survey","103","429460","0.0-103.0","","656776a7904ae00d6b91d1dd","6568ace584f3834d41cc7b8a","9","","","","","","","","","","","","8777","","{""P0_Q0"":null,""P0_Q1"":{""violence"":3,""crime"":3,""drug"":3,""schools"":1,""opportunities"":1}}","","","","","","0","[]","","","","",""
"dot matrix survey3","survey","104","441569","0.0-104.0","","656776a7904ae00d6b91d1dd","6568ace584f3834d41cc7b8a","9","","","","","","","","","","","","12096","","{""P0_Q0"":null,""P0_Q1"":{""movein"":0,""moveout"":4,""shopping"":2,""walk"":0,""park"":1,""school"":1}}","","","","","","0","[]","","","","",""
"sliderTrial_attention","html-slider-response","105","451594","0.0-105.0","","656776a7904ae00d6b91d1dd","6568ace584f3834d41cc7b8a","9","","","","","","","","","","","","null","[""SV_PolicingMSA/NV_0/IMG_5_0.jpg"",""SV_PolicingMSA/NV_0/IMG_0_0.jpg"",""SV_PolicingMSA/NV_0/IMG_4_0.jpg"",""SV_PolicingMSA/NV_0/IMG_12_0.jpg"",""SV_PolicingMSA/NV_0/IMG_13_0.jpg"",""SV_PolicingMSA/NV_0/IMG_7_0.jpg"",""SV_PolicingMSA/NV_0/IMG_11_0.jpg"",""SV_PolicingMSA/NV_0/IMG_14_0.jpg""]","null","","","","","","0","","4","[""./assets/img/attnchk.png"",""./assets/img/attnchk.png""]","","true",""
"sliderTrial","html-slider-response","106","456848","0.0-106.0","","656776a7904ae00d6b91d1dd","6568ace584f3834d41cc7b8a","9","","","","","","","","","","","","5249","[""SV_PolicingMSA/NV_0/IMG_5_0.jpg"",""SV_PolicingMSA/NV_0/IMG_0_0.jpg"",""SV_PolicingMSA/NV_0/IMG_4_0.jpg"",""SV_PolicingMSA/NV_0/IMG_12_0.jpg"",""SV_PolicingMSA/NV_0/IMG_13_0.jpg"",""SV_PolicingMSA/NV_0/IMG_7_0.jpg"",""SV_PolicingMSA/NV_0/IMG_11_0.jpg"",""SV_PolicingMSA/NV_0/IMG_14_0.jpg""]","7","","","","","","0","","4","[""./rc_img/cop_condGroup_15_SafeStreets_autoscaled.png"",""./rc_img/cop_condGroup_15_CommunitySafety_autoscaled.png""]","1","",""
"sliderTrial","html-slider-response","107","459310","0.0-107.0","","656776a7904ae00d6b91d1dd","6568ace584f3834d41cc7b8a","9","","","","","","","","","","","","2459","[""SV_PolicingMSA/NV_0/IMG_5_0.jpg"",""SV_PolicingMSA/NV_0/IMG_0_0.jpg"",""SV_PolicingMSA/NV_0/IMG_4_0.jpg"",""SV_PolicingMSA/NV_0/IMG_12_0.jpg"",""SV_PolicingMSA/NV_0/IMG_13_0.jpg"",""SV_PolicingMSA/NV_0/IMG_7_0.jpg"",""SV_PolicingMSA/NV_0/IMG_11_0.jpg"",""SV_PolicingMSA/NV_0/IMG_14_0.jpg""]","1","","","","","","0","","4","[""./rc_img/cop_condGroup_14_CommunitySafety_autoscaled.png"",""./rc_img/cop_condGroup_14_SafeStreets_autoscaled.png""]","1","",""
"sliderTrial","html-slider-response","108","462567","0.0-108.0","","656776a7904ae00d6b91d1dd","6568ace584f3834d41cc7b8a","9","","","","","","","","","","","","3252","[""SV_PolicingMSA/NV_0/IMG_5_0.jpg"",""SV_PolicingMSA/NV_0/IMG_0_0.jpg"",""SV_PolicingMSA/NV_0/IMG_4_0.jpg"",""SV_PolicingMSA/NV_0/IMG_12_0.jpg"",""SV_PolicingMSA/NV_0/IMG_13_0.jpg"",""SV_PolicingMSA/NV_0/IMG_7_0.jpg"",""SV_PolicingMSA/NV_0/IMG_11_0.jpg"",""SV_PolicingMSA/NV_0/IMG_14_0.jpg""]","7","","","","","","0","","4","[""./rc_img/cop_condGroup_3_SafeStreets_autoscaled.png"",""./rc_img/cop_condGroup_3_CommunitySafety_autoscaled.png""]","1","",""
"sliderTrial","html-slider-response","109","465815","0.0-109.0","","656776a7904ae00d6b91d1dd","6568ace584f3834d41cc7b8a","9","","","","","","","","","","","","3243","[""SV_PolicingMSA/NV_0/IMG_5_0.jpg"",""SV_PolicingMSA/NV_0/IMG_0_0.jpg"",""SV_PolicingMSA/NV_0/IMG_4_0.jpg"",""SV_PolicingMSA/NV_0/IMG_12_0.jpg"",""SV_PolicingMSA/NV_0/IMG_13_0.jpg"",""SV_PolicingMSA/NV_0/IMG_7_0.jpg"",""SV_PolicingMSA/NV_0/IMG_11_0.jpg"",""SV_PolicingMSA/NV_0/IMG_14_0.jpg""]","1","","","","","","0","","4","[""./rc_img/cop_condGroup_18_CommunitySafety_autoscaled.png"",""./rc_img/cop_condGroup_18_SafeStreets_autoscaled.png""]","1","",""
"sliderTrial","html-slider-response","110","469280","0.0-110.0","","656776a7904ae00d6b91d1dd","6568ace584f3834d41cc7b8a","9","","","","","","","","","","","","3462","[""SV_PolicingMSA/NV_0/IMG_5_0.jpg"",""SV_PolicingMSA/NV_0/IMG_0_0.jpg"",""SV_PolicingMSA/NV_0/IMG_4_0.jpg"",""SV_PolicingMSA/NV_0/IMG_12_0.jpg"",""SV_PolicingMSA/NV_0/IMG_13_0.jpg"",""SV_PolicingMSA/NV_0/IMG_7_0.jpg"",""SV_PolicingMSA/NV_0/IMG_11_0.jpg"",""SV_PolicingMSA/NV_0/IMG_14_0.jpg""]","7","","","","","","0","","4","[""./rc_img/cop_condGroup_17_SafeStreets_autoscaled.png"",""./rc_img/cop_condGroup_17_CommunitySafety_autoscaled.png""]","1","",""
"before_SVSlide_prompt","html-button-response","111","470535","0.0-111.0","","656776a7904ae00d6b91d1dd","6568ace584f3834d41cc7b8a","9","","","","","","","","","","","","1253","Click [Next] to see the next neighborhood!","0","","","","","","","","","","","",""
"street view slide show","image-button-response","112","471546","0.0-112.0","","656776a7904ae00d6b91d1dd","6568ace584f3834d41cc7b8a","9","","","","","","","","","","","","null","stimulus/SV_PolicingMSA/NV_466/IMG_2_466.jpg","null","","","","","","3","","","","","",""
"street view slide show","image-button-response","113","472563","0.0-113.0","","656776a7904ae00d6b91d1dd","6568ace584f3834d41cc7b8a","9","","","","","","","","","","","","null","stimulus/SV_PolicingMSA/NV_466/IMG_0_466.jpg","null","","","","","","3","","","","","",""
"street view slide show","image-button-response","114","473584","0.0-114.0","","656776a7904ae00d6b91d1dd","6568ace584f3834d41cc7b8a","9","","","","","","","","","","","","null","stimulus/SV_PolicingMSA/NV_466/IMG_10_466.jpg","null","","","","","","3","","","","","",""
"street view slide show","image-button-response","115","474601","0.0-115.0","","656776a7904ae00d6b91d1dd","6568ace584f3834d41cc7b8a","9","","","","","","","","","","","","null","stimulus/SV_PolicingMSA/NV_466/IMG_6_466.jpg","null","","","","","","3","","","","","",""
"street view slide show","image-button-response","116","475605","0.0-116.0","","656776a7904ae00d6b91d1dd","6568ace584f3834d41cc7b8a","9","","","","","","","","","","","","null","stimulus/SV_PolicingMSA/NV_466/IMG_1_466.jpg","null","","","","","","3","","","","","",""
"street view slide show","image-button-response","117","476623","0.0-117.0","","656776a7904ae00d6b91d1dd","6568ace584f3834d41cc7b8a","9","","","","","","","","","","","","null","stimulus/SV_PolicingMSA/NV_466/IMG_13_466.jpg","null","","","","","","3","","","","","",""
"street view slide show","image-button-response","118","477627","0.0-118.0","","656776a7904ae00d6b91d1dd","6568ace584f3834d41cc7b8a","9","","","","","","","","","","","","null","stimulus/SV_PolicingMSA/NV_466/IMG_4_466.jpg","null","","","","","","3","","","","","",""
"street view slide show","image-button-response","119","478631","0.0-119.0","","656776a7904ae00d6b91d1dd","6568ace584f3834d41cc7b8a","9","","","","","","","","","","","","null","stimulus/SV_PolicingMSA/NV_466/IMG_5_466.jpg","null","","","","","","3","","","","","",""
"dot matrix survey1","survey","120","490498","0.0-120.0","","656776a7904ae00d6b91d1dd","6568ace584f3834d41cc7b8a","9","","","","","","","","","","","","11834","","{""P0_Q0"":null,""P0_Q1"":{""wealthy"":1,""safe"":2,""walkable"":1,""traditional"":4,""diverse"":1}}","","","","","","3","[]","","","","",""
"dot matrix survey2","survey","121","497243","0.0-121.0","","656776a7904ae00d6b91d1dd","6568ace584f3834d41cc7b8a","9","","","","","","","","","","","","6729","","{""P0_Q0"":null,""P0_Q1"":{""violence"":2,""crime"":2,""drug"":2,""schools"":2,""opportunities"":1}}","","","","","","3","[]","","","","",""
"dot matrix survey3","survey","122","508553","0.0-122.0","","656776a7904ae00d6b91d1dd","6568ace584f3834d41cc7b8a","9","","","","","","","","","","","","11296","","{""P0_Q0"":null,""P0_Q1"":{""movein"":0,""moveout"":4,""shopping"":2,""walk"":0,""park"":1,""school"":1}}","","","","","","3","[]","","","","",""
"sliderTrial","html-slider-response","123","511871","0.0-123.0","","656776a7904ae00d6b91d1dd","6568ace584f3834d41cc7b8a","9","","","","","","","","","","","","3314","[""SV_PolicingMSA/NV_466/IMG_2_466.jpg"",""SV_PolicingMSA/NV_466/IMG_0_466.jpg"",""SV_PolicingMSA/NV_466/IMG_10_466.jpg"",""SV_PolicingMSA/NV_466/IMG_6_466.jpg"",""SV_PolicingMSA/NV_466/IMG_1_466.jpg"",""SV_PolicingMSA/NV_466/IMG_13_466.jpg"",""SV_PolicingMSA/NV_466/IMG_4_466.jpg"",""SV_PolicingMSA/NV_466/IMG_5_466.jpg""]","7","","","","","","3","","4","[""./rc_img/cop_condGroup_1_SafeStreets_autoscaled.png"",""./rc_img/cop_condGroup_1_CommunitySafety_autoscaled.png""]","1","",""
"sliderTrial","html-slider-response","124","514912","0.0-124.0","","656776a7904ae00d6b91d1dd","6568ace584f3834d41cc7b8a","9","","","","","","","","","","","","3037","[""SV_PolicingMSA/NV_466/IMG_2_466.jpg"",""SV_PolicingMSA/NV_466/IMG_0_466.jpg"",""SV_PolicingMSA/NV_466/IMG_10_466.jpg"",""SV_PolicingMSA/NV_466/IMG_6_466.jpg"",""SV_PolicingMSA/NV_466/IMG_1_466.jpg"",""SV_PolicingMSA/NV_466/IMG_13_466.jpg"",""SV_PolicingMSA/NV_466/IMG_4_466.jpg"",""SV_PolicingMSA/NV_466/IMG_5_466.jpg""]","7","","","","","","3","","4","[""./rc_img/cop_condGroup_13_SafeStreets_autoscaled.png"",""./rc_img/cop_condGroup_13_CommunitySafety_autoscaled.png""]","1","",""
"sliderTrial","html-slider-response","125","518617","0.0-125.0","","656776a7904ae00d6b91d1dd","6568ace584f3834d41cc7b8a","9","","","","","","","","","","","","3701","[""SV_PolicingMSA/NV_466/IMG_2_466.jpg"",""SV_PolicingMSA/NV_466/IMG_0_466.jpg"",""SV_PolicingMSA/NV_466/IMG_10_466.jpg"",""SV_PolicingMSA/NV_466/IMG_6_466.jpg"",""SV_PolicingMSA/NV_466/IMG_1_466.jpg"",""SV_PolicingMSA/NV_466/IMG_13_466.jpg"",""SV_PolicingMSA/NV_466/IMG_4_466.jpg"",""SV_PolicingMSA/NV_466/IMG_5_466.jpg""]","2","","","","","","3","","4","[""./rc_img/cop_condGroup_20_CommunitySafety_autoscaled.png"",""./rc_img/cop_condGroup_20_SafeStreets_autoscaled.png""]","2","",""
"sliderTrial","html-slider-response","126","521111","0.0-126.0","","656776a7904ae00d6b91d1dd","6568ace584f3834d41cc7b8a","9","","","","","","","","","","","","2490","[""SV_PolicingMSA/NV_466/IMG_2_466.jpg"",""SV_PolicingMSA/NV_466/IMG_0_466.jpg"",""SV_PolicingMSA/NV_466/IMG_10_466.jpg"",""SV_PolicingMSA/NV_466/IMG_6_466.jpg"",""SV_PolicingMSA/NV_466/IMG_1_466.jpg"",""SV_PolicingMSA/NV_466/IMG_13_466.jpg"",""SV_PolicingMSA/NV_466/IMG_4_466.jpg"",""SV_PolicingMSA/NV_466/IMG_5_466.jpg""]","1","","","","","","3","","4","[""./rc_img/cop_condGroup_16_CommunitySafety_autoscaled.png"",""./rc_img/cop_condGroup_16_SafeStreets_autoscaled.png""]","1","",""
"sliderTrial","html-slider-response","127","525056","0.0-127.0","","656776a7904ae00d6b91d1dd","6568ace584f3834d41cc7b8a","9","","","","","","","","","","","","3941","[""SV_PolicingMSA/NV_466/IMG_2_466.jpg"",""SV_PolicingMSA/NV_466/IMG_0_466.jpg"",""SV_PolicingMSA/NV_466/IMG_10_466.jpg"",""SV_PolicingMSA/NV_466/IMG_6_466.jpg"",""SV_PolicingMSA/NV_466/IMG_1_466.jpg"",""SV_PolicingMSA/NV_466/IMG_13_466.jpg"",""SV_PolicingMSA/NV_466/IMG_4_466.jpg"",""SV_PolicingMSA/NV_466/IMG_5_466.jpg""]","1","","","","","","3","","4","[""./rc_img/cop_condGroup_6_CommunitySafety_autoscaled.png"",""./rc_img/cop_condGroup_6_SafeStreets_autoscaled.png""]","1","",""
"before_SVSlide_prompt","html-button-response","128","526223","0.0-128.0","","656776a7904ae00d6b91d1dd","6568ace584f3834d41cc7b8a","9","","","","","","","","","","","","1166","Click [Next] to see the next neighborhood!","0","","","","","","","","","","","",""
"street view slide show","image-button-response","129","527240","0.0-129.0","","656776a7904ae00d6b91d1dd","6568ace584f3834d41cc7b8a","9","","","","","","","","","","","","null","stimulus/SV_PolicingMSA/NV_173/IMG_7_173.jpg","null","","","","","","3","","","","","",""
"street view slide show","image-button-response","130","528245","0.0-130.0","","656776a7904ae00d6b91d1dd","6568ace584f3834d41cc7b8a","9","","","","","","","","","","","","null","stimulus/SV_PolicingMSA/NV_173/IMG_4_173.jpg","null","","","","","","3","","","","","",""
"street view slide show","image-button-response","131","529249","0.0-131.0","","656776a7904ae00d6b91d1dd","6568ace584f3834d41cc7b8a","9","","","","","","","","","","","","null","stimulus/SV_PolicingMSA/NV_173/IMG_6_173.jpg","null","","","","","","3","","","","","",""
"street view slide show","image-button-response","132","530252","0.0-132.0","","656776a7904ae00d6b91d1dd","6568ace584f3834d41cc7b8a","9","","","","","","","","","","","","null","stimulus/SV_PolicingMSA/NV_173/IMG_14_173.jpg","null","","","","","","3","","","","","",""
"street view slide show","image-button-response","133","531276","0.0-133.0","","656776a7904ae00d6b91d1dd","6568ace584f3834d41cc7b8a","9","","","","","","","","","","","","null","stimulus/SV_PolicingMSA/NV_173/IMG_10_173.jpg","null","","","","","","3","","","","","",""
"street view slide show","image-button-response","134","532293","0.0-134.0","","656776a7904ae00d6b91d1dd","6568ace584f3834d41cc7b8a","9","","","","","","","","","","","","null","stimulus/SV_PolicingMSA/NV_173/IMG_8_173.jpg","null","","","","","","3","","","","","",""
"street view slide show","image-button-response","135","533312","0.0-135.0","","656776a7904ae00d6b91d1dd","6568ace584f3834d41cc7b8a","9","","","","","","","","","","","","null","stimulus/SV_PolicingMSA/NV_173/IMG_13_173.jpg","null","","","","","","3","","","","","",""
"street view slide show","image-button-response","136","534328","0.0-136.0","","656776a7904ae00d6b91d1dd","6568ace584f3834d41cc7b8a","9","","","","","","","","","","","","null","stimulus/SV_PolicingMSA/NV_173/IMG_0_173.jpg","null","","","","","","3","","","","","",""
"dot matrix survey1","survey","137","543591","0.0-137.0","","656776a7904ae00d6b91d1dd","6568ace584f3834d41cc7b8a","9","","","","","","","","","","","","9234","","{""P0_Q0"":null,""P0_Q1"":{""wealthy"":3,""safe"":3,""walkable"":3,""traditional"":4,""diverse"":2}}","","","","","","3","[]","","","","",""
"dot matrix survey2","survey","138","550250","0.0-138.0","","656776a7904ae00d6b91d1dd","6568ace584f3834d41cc7b8a","9","","","","","","","","","","","","6645","","{""P0_Q0"":null,""P0_Q1"":{""violence"":2,""crime"":2,""drug"":2,""schools"":3,""opportunities"":3}}","","","","","","3","[]","","","","",""
"dot matrix survey3","survey","139","562389","0.0-139.0","","656776a7904ae00d6b91d1dd","6568ace584f3834d41cc7b8a","9","","","","","","","","","","","","12121","","{""P0_Q0"":null,""P0_Q1"":{""movein"":4,""moveout"":0,""shopping"":4,""walk"":3,""park"":4,""school"":4}}","","","","","","3","[]","","","","",""
"sliderTrial","html-slider-response","140","565320","0.0-140.0","","656776a7904ae00d6b91d1dd","6568ace584f3834d41cc7b8a","9","","","","","","","","","","","","2927","[""SV_PolicingMSA/NV_173/IMG_7_173.jpg"",""SV_PolicingMSA/NV_173/IMG_4_173.jpg"",""SV_PolicingMSA/NV_173/IMG_6_173.jpg"",""SV_PolicingMSA/NV_173/IMG_14_173.jpg"",""SV_PolicingMSA/NV_173/IMG_10_173.jpg"",""SV_PolicingMSA/NV_173/IMG_8_173.jpg"",""SV_PolicingMSA/NV_173/IMG_13_173.jpg"",""SV_PolicingMSA/NV_173/IMG_0_173.jpg""]","1","","","","","","3","","4","[""./rc_img/cop_condGroup_19_CommunitySafety_autoscaled.png"",""./rc_img/cop_condGroup_19_SafeStreets_autoscaled.png""]","1","",""
"sliderTrial","html-slider-response","141","568383","0.0-141.0","","656776a7904ae00d6b91d1dd","6568ace584f3834d41cc7b8a","9","","","","","","","","","","","","3059","[""SV_PolicingMSA/NV_173/IMG_7_173.jpg"",""SV_PolicingMSA/NV_173/IMG_4_173.jpg"",""SV_PolicingMSA/NV_173/IMG_6_173.jpg"",""SV_PolicingMSA/NV_173/IMG_14_173.jpg"",""SV_PolicingMSA/NV_173/IMG_10_173.jpg"",""SV_PolicingMSA/NV_173/IMG_8_173.jpg"",""SV_PolicingMSA/NV_173/IMG_13_173.jpg"",""SV_PolicingMSA/NV_173/IMG_0_173.jpg""]","1","","","","","","3","","4","[""./rc_img/cop_condGroup_7_CommunitySafety_autoscaled.png"",""./rc_img/cop_condGroup_7_SafeStreets_autoscaled.png""]","1","",""
"sliderTrial","html-slider-response","142","570903","0.0-142.0","","656776a7904ae00d6b91d1dd","6568ace584f3834d41cc7b8a","9","","","","","","","","","","","","2517","[""SV_PolicingMSA/NV_173/IMG_7_173.jpg"",""SV_PolicingMSA/NV_173/IMG_4_173.jpg"",""SV_PolicingMSA/NV_173/IMG_6_173.jpg"",""SV_PolicingMSA/NV_173/IMG_14_173.jpg"",""SV_PolicingMSA/NV_173/IMG_10_173.jpg"",""SV_PolicingMSA/NV_173/IMG_8_173.jpg"",""SV_PolicingMSA/NV_173/IMG_13_173.jpg"",""SV_PolicingMSA/NV_173/IMG_0_173.jpg""]","1","","","","","","3","","4","[""./rc_img/cop_condGroup_5_CommunitySafety_autoscaled.png"",""./rc_img/cop_condGroup_5_SafeStreets_autoscaled.png""]","1","",""
"sliderTrial","html-slider-response","143","573422","0.0-143.0","","656776a7904ae00d6b91d1dd","6568ace584f3834d41cc7b8a","9","","","","","","","","","","","","2516","[""SV_PolicingMSA/NV_173/IMG_7_173.jpg"",""SV_PolicingMSA/NV_173/IMG_4_173.jpg"",""SV_PolicingMSA/NV_173/IMG_6_173.jpg"",""SV_PolicingMSA/NV_173/IMG_14_173.jpg"",""SV_PolicingMSA/NV_173/IMG_10_173.jpg"",""SV_PolicingMSA/NV_173/IMG_8_173.jpg"",""SV_PolicingMSA/NV_173/IMG_13_173.jpg"",""SV_PolicingMSA/NV_173/IMG_0_173.jpg""]","7","","","","","","3","","4","[""./rc_img/cop_condGroup_9_SafeStreets_autoscaled.png"",""./rc_img/cop_condGroup_9_CommunitySafety_autoscaled.png""]","1","",""
"sliderTrial","html-slider-response","144","577271","0.0-144.0","","656776a7904ae00d6b91d1dd","6568ace584f3834d41cc7b8a","9","","","","","","","","","","","","3845","[""SV_PolicingMSA/NV_173/IMG_7_173.jpg"",""SV_PolicingMSA/NV_173/IMG_4_173.jpg"",""SV_PolicingMSA/NV_173/IMG_6_173.jpg"",""SV_PolicingMSA/NV_173/IMG_14_173.jpg"",""SV_PolicingMSA/NV_173/IMG_10_173.jpg"",""SV_PolicingMSA/NV_173/IMG_8_173.jpg"",""SV_PolicingMSA/NV_173/IMG_13_173.jpg"",""SV_PolicingMSA/NV_173/IMG_0_173.jpg""]","7","","","","","","3","","4","[""./rc_img/cop_condGroup_2_SafeStreets_autoscaled.png"",""./rc_img/cop_condGroup_2_CommunitySafety_autoscaled.png""]","1","",""
"demographics","survey-html-form","145","590113","0.0-145.0","","656776a7904ae00d6b91d1dd","6568ace584f3834d41cc7b8a","9","","","","","","","","","","","","12839","","{""age"":""47"",""sex"":""female"",""gender"":""woman"",""gender-self-describe"":"""",""zipcode"":""77088""}","","","","","","","","","","","",""
"demographics-list","survey","146","613162","0.0-146.0","","656776a7904ae00d6b91d1dd","6568ace584f3834d41cc7b8a","9","","","","","","","","","","","","22966","","{""P0_Q0"":null,""race-ethnicity"":[""None of the above""],""education"":""High school diploma or equivalent"",""P1_Q0"":null,""ideology"":""Moderate"",""P2_Q0"":null,""num-moves"":0,""P3_Q0"":null,""social-ladder"":4}","","","","","","","[]","","","","",""
"end-survey","survey-text","147","714463","0.0-147.0","","656776a7904ae00d6b91d1dd","6568ace584f3834d41cc7b8a","9","","","","","","","","","","","","101282","","{""Q0"":""It's sometimes hard to tell about certain aspects of an area and at other times, you can clearly see.  We also need to take pride in what we have and own instead of conforming to certain standards that seem to be the norm.  We work hard for what we have and it should show in how we take care of our homes and neighborhood.""}","","","","","","","","","","","","2"
"end-survey","html-button-response","148","717141","0.0-148.0","","656776a7904ae00d6b91d1dd","6568ace584f3834d41cc7b8a","9","","","","","","","","","","","","2675","
    You've reached the end of the survey. <br><br> 
    <b>Do not close or refresh this window.</b><br>
    On the next page, you will be automatically redirected to Prolific. <br><br>

    <div class=""alert alert-warning""><b>
    </div>
","0","","","","","","","","","","","",""
