"task","trial_type","trial_index","time_elapsed","internal_node_id","subject_id","study_id","session_id","section","width","height","webaudio","browser","browser_version","mobile","os","fullscreen","vsync_rate","webcam","microphone","rt","stimulus","response","success","timeout","failed_images","failed_audio","failed_video","block","accuracy","slider_start","choices","standardized_response","correct","num_attention_checks_correct"
"pavlovia-init","pavlovia","0","1383","0.0-0.0","","656776a7904ae00d6b91d1dd","6568adb8f1d5a32d7b36f74f","7","","","","","","","","","","","","","","","","","","","","","","","","","",""
"browser-check","browser-check","1","2386","0.0-1.0","","656776a7904ae00d6b91d1dd","6568adb8f1d5a32d7b36f74f","7","1455","655","true","chrome","119.0.0","false","Windows 10","true","60","false","false","","","","","","","","","","","","","","",""
"consent","html-button-response","2","4802","0.0-2.0","","656776a7904ae00d6b91d1dd","6568adb8f1d5a32d7b36f74f","7","","","","","","","","","","","","2414","
        <div style=""font-size: 80%; max-width:700px"">
            <h2>CONSENT FORM</h2>
        
            <div style=""text-align: left"">
            <h4>DESCRIPTION</h4>
            <p>
            You will complete a short task where you give your impressions of various neighborhoods and assign individuals to those spaces, and answer some questions about your thoughts and opinions.<br>
            The University of Michigan Institutional Review Board Health Sciences and Behavioral Sciences has determined that this study is exempt from IRB oversight.
            </p>

            <h4>TIME INVOLVEMENT</h4>
            <p>Your participation will take approximately 15 minutes. You will receive $3.15 upon completion of the study.</p>
        
            <h4>RISKS AND BENEFITS</h4>
            <p>
            The risks associated with this study are minimal. The benefits which may reasonably be expected to result from this study are none. We cannot and do not guarantee or promise that you will receive any benefits from this study.
            </p>
          
            <h4>SUBJECT'S RIGHTS</h4>
            <p>
            If you have read this form and have decided to participate in this project, please understand your participation is voluntary and you have the right to withdraw your consent or discontinue participation at any time without penalty or loss of benefits to which you are otherwise entitled. The alternative is not to participate. You have the right to refuse to answer particular questions. Your individual privacy will be maintained in all published and written data resulting from the study.
            </p>

            <h4>HUMAN SUBJECT APPROVAL</h4>
            <p>
            This study is exempt from ongoing IRB review.
            </p>

            <h4>CONTACT INFORMATION</h4>
            If you have any questions, concerns or complaints about this research, its procedures, risks and benefits, contact the Protocol Director, Nicholas Camp, npcamp@umich.edu, (443) 851-6783. <br>

            If you have questions about your rights as a research participant, or wish to obtain information, ask questions or discuss any concerns about this study with someone other than the researcher(s), please contact the following:<br><br>
            University of Michigan<br>
            Health Sciences and Behavioral Sciences Institutional Review Board (IRB-HSBS)<br>
            2800 Plymouth Road<br>
            Building 520, Room 1169Ann Arbor, MI 48109-2800<br>
            Telephone: 734-936-0933 or toll free (866) 936-0933<br>
            Fax: 734-936-1852<br>
            E-mail: irbhsbs@umich.edu<br><br>

            You can also contact the University of Michigan Compliance Hotline at 1-866-990-0111. You may also print this consent form to keep.
            <br><br>
            <div class=""alert alert-warning""><b>
            Do you consent to participate in this study? If you consent to participate in this study, please click “Accept and Continue”. If you select ""Decline and Exit"", you will be exited from the survey. <br>
            </b></div>
            </div>
        </div>
    ","1","","","","","","","","","","","",""
"","preload","3","7390","0.0-3.0","","656776a7904ae00d6b91d1dd","6568adb8f1d5a32d7b36f74f","7","","","","","","","","","","","","","","","true","false","[]","[]","[]","","","","","","",""
"instructions","html-button-response","4","13503","0.0-4.0","","656776a7904ae00d6b91d1dd","6568adb8f1d5a32d7b36f74f","7","","","","","","","","","","","","6113","
        <div class=""text-container"">
        <h1>Welcome to the study!</h1>
        
        <div class=""text-left"">
            <p>
                In this study, we are interested in what people can tell about spaces from Google Street View images. <br> Google Street View takes pictures of streets used for Google Earth and Google Maps. <br>You’ll see Google Street View images of different places and answer some questions about each one.<br>
            </p>
        </div>
        <img src = ""assets/img/example.png"" width = 500px, height = auto>
        <br>
    <br>
    ","0","","","","","","","","","","","",""
"instructions","html-button-response","5","15536","0.0-5.0","","656776a7904ae00d6b91d1dd","6568adb8f1d5a32d7b36f74f","7","","","","","","","","","","","","2032","
    <div class=""text-container"">
        <div class=""text-center"">
            <p>Please remember that your answers are completely anonymous.<br>Go with your gut response- there are no right or wrong answers!</p>
        </div>
    <br>
","0","","","","","","","","","","","",""
"before_SVSlide_prompt","html-button-response","6","16414","0.0-6.0","","656776a7904ae00d6b91d1dd","6568adb8f1d5a32d7b36f74f","7","","","","","","","","","","","","878","Click [Next] to see the next neighborhood!","0","","","","","","","","","","","",""
"street view slide show","image-button-response","7","17417","0.0-7.0","","656776a7904ae00d6b91d1dd","6568adb8f1d5a32d7b36f74f","7","","","","","","","","","","","","null","stimulus/SV_PolicingMSA/MO_1031/IMG_13_1031.jpg","null","","","","","","0","","","","","",""
"street view slide show","image-button-response","8","18425","0.0-8.0","","656776a7904ae00d6b91d1dd","6568adb8f1d5a32d7b36f74f","7","","","","","","","","","","","","null","stimulus/SV_PolicingMSA/MO_1031/IMG_9_1031.jpg","null","","","","","","0","","","","","",""
"street view slide show","image-button-response","9","19438","0.0-9.0","","656776a7904ae00d6b91d1dd","6568adb8f1d5a32d7b36f74f","7","","","","","","","","","","","","null","stimulus/SV_PolicingMSA/MO_1031/IMG_12_1031.jpg","null","","","","","","0","","","","","",""
"street view slide show","image-button-response","10","20452","0.0-10.0","","656776a7904ae00d6b91d1dd","6568adb8f1d5a32d7b36f74f","7","","","","","","","","","","","","null","stimulus/SV_PolicingMSA/MO_1031/IMG_11_1031.jpg","null","","","","","","0","","","","","",""
"street view slide show","image-button-response","11","21454","0.0-11.0","","656776a7904ae00d6b91d1dd","6568adb8f1d5a32d7b36f74f","7","","","","","","","","","","","","null","stimulus/SV_PolicingMSA/MO_1031/IMG_7_1031.jpg","null","","","","","","0","","","","","",""
"street view slide show","image-button-response","12","22466","0.0-12.0","","656776a7904ae00d6b91d1dd","6568adb8f1d5a32d7b36f74f","7","","","","","","","","","","","","null","stimulus/SV_PolicingMSA/MO_1031/IMG_0_1031.jpg","null","","","","","","0","","","","","",""
"street view slide show","image-button-response","13","23479","0.0-13.0","","656776a7904ae00d6b91d1dd","6568adb8f1d5a32d7b36f74f","7","","","","","","","","","","","","null","stimulus/SV_PolicingMSA/MO_1031/IMG_3_1031.jpg","null","","","","","","0","","","","","",""
"street view slide show","image-button-response","14","24494","0.0-14.0","","656776a7904ae00d6b91d1dd","6568adb8f1d5a32d7b36f74f","7","","","","","","","","","","","","null","stimulus/SV_PolicingMSA/MO_1031/IMG_2_1031.jpg","null","","","","","","0","","","","","",""
"dot matrix survey1","survey","15","36611","0.0-15.0","","656776a7904ae00d6b91d1dd","6568adb8f1d5a32d7b36f74f","7","","","","","","","","","","","","12075","","{""P0_Q0"":null,""P0_Q1"":{""wealthy"":1,""safe"":2,""walkable"":1,""traditional"":2,""diverse"":1}}","","","","","","0","[]","","","","",""
"dot matrix survey2","survey","16","51713","0.0-16.0","","656776a7904ae00d6b91d1dd","6568adb8f1d5a32d7b36f74f","7","","","","","","","","","","","","15094","","{""P0_Q0"":null,""P0_Q1"":{""violence"":2,""crime"":2,""drug"":2,""schools"":2,""opportunities"":2}}","","","","","","0","[]","","","","",""
"dot matrix survey3","survey","17","73935","0.0-17.0","","656776a7904ae00d6b91d1dd","6568adb8f1d5a32d7b36f74f","7","","","","","","","","","","","","22215","","{""P0_Q0"":null,""P0_Q1"":{""movein"":0,""moveout"":2,""shopping"":2,""walk"":2,""park"":2,""school"":2}}","","","","","","0","[]","","","","",""
"sliderTrial","html-slider-response","18","84852","0.0-18.0","","656776a7904ae00d6b91d1dd","6568adb8f1d5a32d7b36f74f","7","","","","","","","","","","","","10915","[""SV_PolicingMSA/MO_1031/IMG_13_1031.jpg"",""SV_PolicingMSA/MO_1031/IMG_9_1031.jpg"",""SV_PolicingMSA/MO_1031/IMG_12_1031.jpg"",""SV_PolicingMSA/MO_1031/IMG_11_1031.jpg"",""SV_PolicingMSA/MO_1031/IMG_7_1031.jpg"",""SV_PolicingMSA/MO_1031/IMG_0_1031.jpg"",""SV_PolicingMSA/MO_1031/IMG_3_1031.jpg"",""SV_PolicingMSA/MO_1031/IMG_2_1031.jpg""]","7","","","","","","0","","4","[""./rc_img/cop_condGroup_12_SafeStreets_autoscaled.png"",""./rc_img/cop_condGroup_12_CommunitySafety_autoscaled.png""]","1","",""
"sliderTrial","html-slider-response","19","90582","0.0-19.0","","656776a7904ae00d6b91d1dd","6568adb8f1d5a32d7b36f74f","7","","","","","","","","","","","","5728","[""SV_PolicingMSA/MO_1031/IMG_13_1031.jpg"",""SV_PolicingMSA/MO_1031/IMG_9_1031.jpg"",""SV_PolicingMSA/MO_1031/IMG_12_1031.jpg"",""SV_PolicingMSA/MO_1031/IMG_11_1031.jpg"",""SV_PolicingMSA/MO_1031/IMG_7_1031.jpg"",""SV_PolicingMSA/MO_1031/IMG_0_1031.jpg"",""SV_PolicingMSA/MO_1031/IMG_3_1031.jpg"",""SV_PolicingMSA/MO_1031/IMG_2_1031.jpg""]","7","","","","","","0","","4","[""./rc_img/cop_condGroup_3_CommunitySafety_autoscaled.png"",""./rc_img/cop_condGroup_3_SafeStreets_autoscaled.png""]","7","",""
"sliderTrial","html-slider-response","20","96242","0.0-20.0","","656776a7904ae00d6b91d1dd","6568adb8f1d5a32d7b36f74f","7","","","","","","","","","","","","5659","[""SV_PolicingMSA/MO_1031/IMG_13_1031.jpg"",""SV_PolicingMSA/MO_1031/IMG_9_1031.jpg"",""SV_PolicingMSA/MO_1031/IMG_12_1031.jpg"",""SV_PolicingMSA/MO_1031/IMG_11_1031.jpg"",""SV_PolicingMSA/MO_1031/IMG_7_1031.jpg"",""SV_PolicingMSA/MO_1031/IMG_0_1031.jpg"",""SV_PolicingMSA/MO_1031/IMG_3_1031.jpg"",""SV_PolicingMSA/MO_1031/IMG_2_1031.jpg""]","7","","","","","","0","","4","[""./rc_img/cop_condGroup_6_SafeStreets_autoscaled.png"",""./rc_img/cop_condGroup_6_CommunitySafety_autoscaled.png""]","1","",""
"sliderTrial_attention","html-slider-response","21","106249","0.0-21.0","","656776a7904ae00d6b91d1dd","6568adb8f1d5a32d7b36f74f","7","","","","","","","","","","","","null","[""SV_PolicingMSA/MO_1031/IMG_13_1031.jpg"",""SV_PolicingMSA/MO_1031/IMG_9_1031.jpg"",""SV_PolicingMSA/MO_1031/IMG_12_1031.jpg"",""SV_PolicingMSA/MO_1031/IMG_11_1031.jpg"",""SV_PolicingMSA/MO_1031/IMG_7_1031.jpg"",""SV_PolicingMSA/MO_1031/IMG_0_1031.jpg"",""SV_PolicingMSA/MO_1031/IMG_3_1031.jpg"",""SV_PolicingMSA/MO_1031/IMG_2_1031.jpg""]","null","","","","","","0","","4","[""./assets/img/attnchk.png"",""./assets/img/attnchk.png""]","","true",""
"sliderTrial","html-slider-response","22","113392","0.0-22.0","","656776a7904ae00d6b91d1dd","6568adb8f1d5a32d7b36f74f","7","","","","","","","","","","","","7140","[""SV_PolicingMSA/MO_1031/IMG_13_1031.jpg"",""SV_PolicingMSA/MO_1031/IMG_9_1031.jpg"",""SV_PolicingMSA/MO_1031/IMG_12_1031.jpg"",""SV_PolicingMSA/MO_1031/IMG_11_1031.jpg"",""SV_PolicingMSA/MO_1031/IMG_7_1031.jpg"",""SV_PolicingMSA/MO_1031/IMG_0_1031.jpg"",""SV_PolicingMSA/MO_1031/IMG_3_1031.jpg"",""SV_PolicingMSA/MO_1031/IMG_2_1031.jpg""]","7","","","","","","0","","4","[""./rc_img/cop_condGroup_1_SafeStreets_autoscaled.png"",""./rc_img/cop_condGroup_1_CommunitySafety_autoscaled.png""]","1","",""
"sliderTrial","html-slider-response","23","118106","0.0-23.0","","656776a7904ae00d6b91d1dd","6568adb8f1d5a32d7b36f74f","7","","","","","","","","","","","","4712","[""SV_PolicingMSA/MO_1031/IMG_13_1031.jpg"",""SV_PolicingMSA/MO_1031/IMG_9_1031.jpg"",""SV_PolicingMSA/MO_1031/IMG_12_1031.jpg"",""SV_PolicingMSA/MO_1031/IMG_11_1031.jpg"",""SV_PolicingMSA/MO_1031/IMG_7_1031.jpg"",""SV_PolicingMSA/MO_1031/IMG_0_1031.jpg"",""SV_PolicingMSA/MO_1031/IMG_3_1031.jpg"",""SV_PolicingMSA/MO_1031/IMG_2_1031.jpg""]","1","","","","","","0","","4","[""./rc_img/cop_condGroup_2_CommunitySafety_autoscaled.png"",""./rc_img/cop_condGroup_2_SafeStreets_autoscaled.png""]","1","",""
"before_SVSlide_prompt","html-button-response","24","119198","0.0-24.0","","656776a7904ae00d6b91d1dd","6568adb8f1d5a32d7b36f74f","7","","","","","","","","","","","","1091","Click [Next] to see the next neighborhood!","0","","","","","","","","","","","",""
"street view slide show","image-button-response","25","120199","0.0-25.0","","656776a7904ae00d6b91d1dd","6568adb8f1d5a32d7b36f74f","7","","","","","","","","","","","","null","stimulus/SV_PolicingMSA/MO_1289/IMG_7_1289.jpg","null","","","","","","3","","","","","",""
"street view slide show","image-button-response","26","121211","0.0-26.0","","656776a7904ae00d6b91d1dd","6568adb8f1d5a32d7b36f74f","7","","","","","","","","","","","","null","stimulus/SV_PolicingMSA/MO_1289/IMG_11_1289.jpg","null","","","","","","3","","","","","",""
"street view slide show","image-button-response","27","122227","0.0-27.0","","656776a7904ae00d6b91d1dd","6568adb8f1d5a32d7b36f74f","7","","","","","","","","","","","","null","stimulus/SV_PolicingMSA/MO_1289/IMG_5_1289.jpg","null","","","","","","3","","","","","",""
"street view slide show","image-button-response","28","123242","0.0-28.0","","656776a7904ae00d6b91d1dd","6568adb8f1d5a32d7b36f74f","7","","","","","","","","","","","","null","stimulus/SV_PolicingMSA/MO_1289/IMG_4_1289.jpg","null","","","","","","3","","","","","",""
"street view slide show","image-button-response","29","124254","0.0-29.0","","656776a7904ae00d6b91d1dd","6568adb8f1d5a32d7b36f74f","7","","","","","","","","","","","","null","stimulus/SV_PolicingMSA/MO_1289/IMG_6_1289.jpg","null","","","","","","3","","","","","",""
"street view slide show","image-button-response","30","125269","0.0-30.0","","656776a7904ae00d6b91d1dd","6568adb8f1d5a32d7b36f74f","7","","","","","","","","","","","","null","stimulus/SV_PolicingMSA/MO_1289/IMG_3_1289.jpg","null","","","","","","3","","","","","",""
"street view slide show","image-button-response","31","126284","0.0-31.0","","656776a7904ae00d6b91d1dd","6568adb8f1d5a32d7b36f74f","7","","","","","","","","","","","","null","stimulus/SV_PolicingMSA/MO_1289/IMG_1_1289.jpg","null","","","","","","3","","","","","",""
"street view slide show","image-button-response","32","127300","0.0-32.0","","656776a7904ae00d6b91d1dd","6568adb8f1d5a32d7b36f74f","7","","","","","","","","","","","","null","stimulus/SV_PolicingMSA/MO_1289/IMG_8_1289.jpg","null","","","","","","3","","","","","",""
"dot matrix survey1","survey","33","135336","0.0-33.0","","656776a7904ae00d6b91d1dd","6568adb8f1d5a32d7b36f74f","7","","","","","","","","","","","","8028","","{""P0_Q0"":null,""P0_Q1"":{""wealthy"":2,""safe"":2,""walkable"":1,""traditional"":2,""diverse"":1}}","","","","","","3","[]","","","","",""
"dot matrix survey2","survey","34","142303","0.0-34.0","","656776a7904ae00d6b91d1dd","6568adb8f1d5a32d7b36f74f","7","","","","","","","","","","","","6962","","{""P0_Q0"":null,""P0_Q1"":{""violence"":1,""crime"":1,""drug"":2,""schools"":2,""opportunities"":2}}","","","","","","3","[]","","","","",""
"dot matrix survey3","survey","35","152423","0.0-35.0","","656776a7904ae00d6b91d1dd","6568adb8f1d5a32d7b36f74f","7","","","","","","","","","","","","10114","","{""P0_Q0"":null,""P0_Q1"":{""movein"":2,""moveout"":1,""shopping"":2,""walk"":2,""park"":2,""school"":2}}","","","","","","3","[]","","","","",""
"sliderTrial","html-slider-response","36","156534","0.0-36.0","","656776a7904ae00d6b91d1dd","6568adb8f1d5a32d7b36f74f","7","","","","","","","","","","","","4110","[""SV_PolicingMSA/MO_1289/IMG_7_1289.jpg"",""SV_PolicingMSA/MO_1289/IMG_11_1289.jpg"",""SV_PolicingMSA/MO_1289/IMG_5_1289.jpg"",""SV_PolicingMSA/MO_1289/IMG_4_1289.jpg"",""SV_PolicingMSA/MO_1289/IMG_6_1289.jpg"",""SV_PolicingMSA/MO_1289/IMG_3_1289.jpg"",""SV_PolicingMSA/MO_1289/IMG_1_1289.jpg"",""SV_PolicingMSA/MO_1289/IMG_8_1289.jpg""]","1","","","","","","3","","4","[""./rc_img/cop_condGroup_14_CommunitySafety_autoscaled.png"",""./rc_img/cop_condGroup_14_SafeStreets_autoscaled.png""]","1","",""
"sliderTrial","html-slider-response","37","159321","0.0-37.0","","656776a7904ae00d6b91d1dd","6568adb8f1d5a32d7b36f74f","7","","","","","","","","","","","","2786","[""SV_PolicingMSA/MO_1289/IMG_7_1289.jpg"",""SV_PolicingMSA/MO_1289/IMG_11_1289.jpg"",""SV_PolicingMSA/MO_1289/IMG_5_1289.jpg"",""SV_PolicingMSA/MO_1289/IMG_4_1289.jpg"",""SV_PolicingMSA/MO_1289/IMG_6_1289.jpg"",""SV_PolicingMSA/MO_1289/IMG_3_1289.jpg"",""SV_PolicingMSA/MO_1289/IMG_1_1289.jpg"",""SV_PolicingMSA/MO_1289/IMG_8_1289.jpg""]","1","","","","","","3","","4","[""./rc_img/cop_condGroup_16_CommunitySafety_autoscaled.png"",""./rc_img/cop_condGroup_16_SafeStreets_autoscaled.png""]","1","",""
"sliderTrial","html-slider-response","38","162224","0.0-38.0","","656776a7904ae00d6b91d1dd","6568adb8f1d5a32d7b36f74f","7","","","","","","","","","","","","2902","[""SV_PolicingMSA/MO_1289/IMG_7_1289.jpg"",""SV_PolicingMSA/MO_1289/IMG_11_1289.jpg"",""SV_PolicingMSA/MO_1289/IMG_5_1289.jpg"",""SV_PolicingMSA/MO_1289/IMG_4_1289.jpg"",""SV_PolicingMSA/MO_1289/IMG_6_1289.jpg"",""SV_PolicingMSA/MO_1289/IMG_3_1289.jpg"",""SV_PolicingMSA/MO_1289/IMG_1_1289.jpg"",""SV_PolicingMSA/MO_1289/IMG_8_1289.jpg""]","7","","","","","","3","","4","[""./rc_img/cop_condGroup_10_SafeStreets_autoscaled.png"",""./rc_img/cop_condGroup_10_CommunitySafety_autoscaled.png""]","1","",""
"sliderTrial","html-slider-response","39","165142","0.0-39.0","","656776a7904ae00d6b91d1dd","6568adb8f1d5a32d7b36f74f","7","","","","","","","","","","","","2916","[""SV_PolicingMSA/MO_1289/IMG_7_1289.jpg"",""SV_PolicingMSA/MO_1289/IMG_11_1289.jpg"",""SV_PolicingMSA/MO_1289/IMG_5_1289.jpg"",""SV_PolicingMSA/MO_1289/IMG_4_1289.jpg"",""SV_PolicingMSA/MO_1289/IMG_6_1289.jpg"",""SV_PolicingMSA/MO_1289/IMG_3_1289.jpg"",""SV_PolicingMSA/MO_1289/IMG_1_1289.jpg"",""SV_PolicingMSA/MO_1289/IMG_8_1289.jpg""]","7","","","","","","3","","4","[""./rc_img/cop_condGroup_11_SafeStreets_autoscaled.png"",""./rc_img/cop_condGroup_11_CommunitySafety_autoscaled.png""]","1","",""
"sliderTrial","html-slider-response","40","168792","0.0-40.0","","656776a7904ae00d6b91d1dd","6568adb8f1d5a32d7b36f74f","7","","","","","","","","","","","","3649","[""SV_PolicingMSA/MO_1289/IMG_7_1289.jpg"",""SV_PolicingMSA/MO_1289/IMG_11_1289.jpg"",""SV_PolicingMSA/MO_1289/IMG_5_1289.jpg"",""SV_PolicingMSA/MO_1289/IMG_4_1289.jpg"",""SV_PolicingMSA/MO_1289/IMG_6_1289.jpg"",""SV_PolicingMSA/MO_1289/IMG_3_1289.jpg"",""SV_PolicingMSA/MO_1289/IMG_1_1289.jpg"",""SV_PolicingMSA/MO_1289/IMG_8_1289.jpg""]","1","","","","","","3","","4","[""./rc_img/cop_condGroup_7_CommunitySafety_autoscaled.png"",""./rc_img/cop_condGroup_7_SafeStreets_autoscaled.png""]","1","",""
"before_SVSlide_prompt","html-button-response","41","169892","0.0-41.0","","656776a7904ae00d6b91d1dd","6568adb8f1d5a32d7b36f74f","7","","","","","","","","","","","","1100","Click [Next] to see the next neighborhood!","0","","","","","","","","","","","",""
"street view slide show","image-button-response","42","170904","0.0-42.0","","656776a7904ae00d6b91d1dd","6568adb8f1d5a32d7b36f74f","7","","","","","","","","","","","","null","stimulus/SV_PolicingMSA/MO_60/IMG_7_60.jpg","null","","","","","","4","","","","","",""
"street view slide show","image-button-response","43","171908","0.0-43.0","","656776a7904ae00d6b91d1dd","6568adb8f1d5a32d7b36f74f","7","","","","","","","","","","","","null","stimulus/SV_PolicingMSA/MO_60/IMG_10_60.jpg","null","","","","","","4","","","","","",""
"street view slide show","image-button-response","44","172910","0.0-44.0","","656776a7904ae00d6b91d1dd","6568adb8f1d5a32d7b36f74f","7","","","","","","","","","","","","null","stimulus/SV_PolicingMSA/MO_60/IMG_14_60.jpg","null","","","","","","4","","","","","",""
"street view slide show","image-button-response","45","173914","0.0-45.0","","656776a7904ae00d6b91d1dd","6568adb8f1d5a32d7b36f74f","7","","","","","","","","","","","","null","stimulus/SV_PolicingMSA/MO_60/IMG_3_60.jpg","null","","","","","","4","","","","","",""
"street view slide show","image-button-response","46","174918","0.0-46.0","","656776a7904ae00d6b91d1dd","6568adb8f1d5a32d7b36f74f","7","","","","","","","","","","","","null","stimulus/SV_PolicingMSA/MO_60/IMG_0_60.jpg","null","","","","","","4","","","","","",""
"street view slide show","image-button-response","47","175936","0.0-47.0","","656776a7904ae00d6b91d1dd","6568adb8f1d5a32d7b36f74f","7","","","","","","","","","","","","null","stimulus/SV_PolicingMSA/MO_60/IMG_12_60.jpg","null","","","","","","4","","","","","",""
"street view slide show","image-button-response","48","176940","0.0-48.0","","656776a7904ae00d6b91d1dd","6568adb8f1d5a32d7b36f74f","7","","","","","","","","","","","","null","stimulus/SV_PolicingMSA/MO_60/IMG_5_60.jpg","null","","","","","","4","","","","","",""
"street view slide show","image-button-response","49","177956","0.0-49.0","","656776a7904ae00d6b91d1dd","6568adb8f1d5a32d7b36f74f","7","","","","","","","","","","","","null","stimulus/SV_PolicingMSA/MO_60/IMG_13_60.jpg","null","","","","","","4","","","","","",""
"dot matrix survey1","survey","50","189079","0.0-50.0","","656776a7904ae00d6b91d1dd","6568adb8f1d5a32d7b36f74f","7","","","","","","","","","","","","11114","","{""P0_Q0"":null,""P0_Q1"":{""wealthy"":2,""safe"":2,""walkable"":0,""traditional"":2,""diverse"":1}}","","","","","","4","[]","","","","",""
"dot matrix survey2","survey","51","195562","0.0-51.0","","656776a7904ae00d6b91d1dd","6568adb8f1d5a32d7b36f74f","7","","","","","","","","","","","","6479","","{""P0_Q0"":null,""P0_Q1"":{""violence"":1,""crime"":1,""drug"":1,""schools"":2,""opportunities"":2}}","","","","","","4","[]","","","","",""
"dot matrix survey3","survey","52","203661","0.0-52.0","","656776a7904ae00d6b91d1dd","6568adb8f1d5a32d7b36f74f","7","","","","","","","","","","","","8094","","{""P0_Q0"":null,""P0_Q1"":{""movein"":2,""moveout"":1,""shopping"":3,""walk"":2,""park"":2,""school"":2}}","","","","","","4","[]","","","","",""
"sliderTrial","html-slider-response","53","207837","0.0-53.0","","656776a7904ae00d6b91d1dd","6568adb8f1d5a32d7b36f74f","7","","","","","","","","","","","","4175","[""SV_PolicingMSA/MO_60/IMG_7_60.jpg"",""SV_PolicingMSA/MO_60/IMG_10_60.jpg"",""SV_PolicingMSA/MO_60/IMG_14_60.jpg"",""SV_PolicingMSA/MO_60/IMG_3_60.jpg"",""SV_PolicingMSA/MO_60/IMG_0_60.jpg"",""SV_PolicingMSA/MO_60/IMG_12_60.jpg"",""SV_PolicingMSA/MO_60/IMG_5_60.jpg"",""SV_PolicingMSA/MO_60/IMG_13_60.jpg""]","1","","","","","","4","","4","[""./rc_img/cop_condGroup_5_CommunitySafety_autoscaled.png"",""./rc_img/cop_condGroup_5_SafeStreets_autoscaled.png""]","1","",""
"sliderTrial","html-slider-response","54","210132","0.0-54.0","","656776a7904ae00d6b91d1dd","6568adb8f1d5a32d7b36f74f","7","","","","","","","","","","","","2293","[""SV_PolicingMSA/MO_60/IMG_7_60.jpg"",""SV_PolicingMSA/MO_60/IMG_10_60.jpg"",""SV_PolicingMSA/MO_60/IMG_14_60.jpg"",""SV_PolicingMSA/MO_60/IMG_3_60.jpg"",""SV_PolicingMSA/MO_60/IMG_0_60.jpg"",""SV_PolicingMSA/MO_60/IMG_12_60.jpg"",""SV_PolicingMSA/MO_60/IMG_5_60.jpg"",""SV_PolicingMSA/MO_60/IMG_13_60.jpg""]","7","","","","","","4","","4","[""./rc_img/cop_condGroup_4_SafeStreets_autoscaled.png"",""./rc_img/cop_condGroup_4_CommunitySafety_autoscaled.png""]","1","",""
"sliderTrial","html-slider-response","55","212479","0.0-55.0","","656776a7904ae00d6b91d1dd","6568adb8f1d5a32d7b36f74f","7","","","","","","","","","","","","2346","[""SV_PolicingMSA/MO_60/IMG_7_60.jpg"",""SV_PolicingMSA/MO_60/IMG_10_60.jpg"",""SV_PolicingMSA/MO_60/IMG_14_60.jpg"",""SV_PolicingMSA/MO_60/IMG_3_60.jpg"",""SV_PolicingMSA/MO_60/IMG_0_60.jpg"",""SV_PolicingMSA/MO_60/IMG_12_60.jpg"",""SV_PolicingMSA/MO_60/IMG_5_60.jpg"",""SV_PolicingMSA/MO_60/IMG_13_60.jpg""]","1","","","","","","4","","4","[""./rc_img/cop_condGroup_9_CommunitySafety_autoscaled.png"",""./rc_img/cop_condGroup_9_SafeStreets_autoscaled.png""]","1","",""
"sliderTrial","html-slider-response","56","217576","0.0-56.0","","656776a7904ae00d6b91d1dd","6568adb8f1d5a32d7b36f74f","7","","","","","","","","","","","","5095","[""SV_PolicingMSA/MO_60/IMG_7_60.jpg"",""SV_PolicingMSA/MO_60/IMG_10_60.jpg"",""SV_PolicingMSA/MO_60/IMG_14_60.jpg"",""SV_PolicingMSA/MO_60/IMG_3_60.jpg"",""SV_PolicingMSA/MO_60/IMG_0_60.jpg"",""SV_PolicingMSA/MO_60/IMG_12_60.jpg"",""SV_PolicingMSA/MO_60/IMG_5_60.jpg"",""SV_PolicingMSA/MO_60/IMG_13_60.jpg""]","1","","","","","","4","","4","[""./rc_img/cop_condGroup_17_CommunitySafety_autoscaled.png"",""./rc_img/cop_condGroup_17_SafeStreets_autoscaled.png""]","1","",""
"sliderTrial","html-slider-response","57","220501","0.0-57.0","","656776a7904ae00d6b91d1dd","6568adb8f1d5a32d7b36f74f","7","","","","","","","","","","","","2924","[""SV_PolicingMSA/MO_60/IMG_7_60.jpg"",""SV_PolicingMSA/MO_60/IMG_10_60.jpg"",""SV_PolicingMSA/MO_60/IMG_14_60.jpg"",""SV_PolicingMSA/MO_60/IMG_3_60.jpg"",""SV_PolicingMSA/MO_60/IMG_0_60.jpg"",""SV_PolicingMSA/MO_60/IMG_12_60.jpg"",""SV_PolicingMSA/MO_60/IMG_5_60.jpg"",""SV_PolicingMSA/MO_60/IMG_13_60.jpg""]","7","","","","","","4","","4","[""./rc_img/cop_condGroup_8_SafeStreets_autoscaled.png"",""./rc_img/cop_condGroup_8_CommunitySafety_autoscaled.png""]","1","",""
"before_SVSlide_prompt","html-button-response","58","221372","0.0-58.0","","656776a7904ae00d6b91d1dd","6568adb8f1d5a32d7b36f74f","7","","","","","","","","","","","","870","Click [Next] to see the next neighborhood!","0","","","","","","","","","","","",""
"street view slide show","image-button-response","59","222379","0.0-59.0","","656776a7904ae00d6b91d1dd","6568adb8f1d5a32d7b36f74f","7","","","","","","","","","","","","null","stimulus/SV_PolicingMSA/MO_1004/IMG_5_1004.jpg","null","","","","","","1","","","","","",""
"street view slide show","image-button-response","60","223393","0.0-60.0","","656776a7904ae00d6b91d1dd","6568adb8f1d5a32d7b36f74f","7","","","","","","","","","","","","null","stimulus/SV_PolicingMSA/MO_1004/IMG_3_1004.jpg","null","","","","","","1","","","","","",""
"street view slide show","image-button-response","61","224395","0.0-61.0","","656776a7904ae00d6b91d1dd","6568adb8f1d5a32d7b36f74f","7","","","","","","","","","","","","null","stimulus/SV_PolicingMSA/MO_1004/IMG_0_1004.jpg","null","","","","","","1","","","","","",""
"street view slide show","image-button-response","62","225405","0.0-62.0","","656776a7904ae00d6b91d1dd","6568adb8f1d5a32d7b36f74f","7","","","","","","","","","","","","null","stimulus/SV_PolicingMSA/MO_1004/IMG_14_1004.jpg","null","","","","","","1","","","","","",""
"street view slide show","image-button-response","63","226417","0.0-63.0","","656776a7904ae00d6b91d1dd","6568adb8f1d5a32d7b36f74f","7","","","","","","","","","","","","null","stimulus/SV_PolicingMSA/MO_1004/IMG_6_1004.jpg","null","","","","","","1","","","","","",""
"street view slide show","image-button-response","64","227432","0.0-64.0","","656776a7904ae00d6b91d1dd","6568adb8f1d5a32d7b36f74f","7","","","","","","","","","","","","null","stimulus/SV_PolicingMSA/MO_1004/IMG_9_1004.jpg","null","","","","","","1","","","","","",""
"street view slide show","image-button-response","65","228447","0.0-65.0","","656776a7904ae00d6b91d1dd","6568adb8f1d5a32d7b36f74f","7","","","","","","","","","","","","null","stimulus/SV_PolicingMSA/MO_1004/IMG_12_1004.jpg","null","","","","","","1","","","","","",""
"street view slide show","image-button-response","66","229463","0.0-66.0","","656776a7904ae00d6b91d1dd","6568adb8f1d5a32d7b36f74f","7","","","","","","","","","","","","null","stimulus/SV_PolicingMSA/MO_1004/IMG_1_1004.jpg","null","","","","","","1","","","","","",""
"dot matrix survey1","survey","67","239271","0.0-67.0","","656776a7904ae00d6b91d1dd","6568adb8f1d5a32d7b36f74f","7","","","","","","","","","","","","9795","","{""P0_Q0"":null,""P0_Q1"":{""wealthy"":1,""safe"":1,""walkable"":2,""traditional"":2,""diverse"":2}}","","","","","","1","[]","","","","",""
"dot matrix survey2","survey","68","255548","0.0-68.0","","656776a7904ae00d6b91d1dd","6568adb8f1d5a32d7b36f74f","7","","","","","","","","","","","","16271","","{""P0_Q0"":null,""P0_Q1"":{""violence"":2,""crime"":2,""drug"":2,""schools"":1,""opportunities"":1}}","","","","","","1","[]","","","","",""
"dot matrix survey3","survey","69","264451","0.0-69.0","","656776a7904ae00d6b91d1dd","6568adb8f1d5a32d7b36f74f","7","","","","","","","","","","","","8898","","{""P0_Q0"":null,""P0_Q1"":{""movein"":1,""moveout"":3,""shopping"":2,""walk"":1,""park"":1,""school"":1}}","","","","","","1","[]","","","","",""
"sliderTrial","html-slider-response","70","268024","0.0-70.0","","656776a7904ae00d6b91d1dd","6568adb8f1d5a32d7b36f74f","7","","","","","","","","","","","","3572","[""SV_PolicingMSA/MO_1004/IMG_5_1004.jpg"",""SV_PolicingMSA/MO_1004/IMG_3_1004.jpg"",""SV_PolicingMSA/MO_1004/IMG_0_1004.jpg"",""SV_PolicingMSA/MO_1004/IMG_14_1004.jpg"",""SV_PolicingMSA/MO_1004/IMG_6_1004.jpg"",""SV_PolicingMSA/MO_1004/IMG_9_1004.jpg"",""SV_PolicingMSA/MO_1004/IMG_12_1004.jpg"",""SV_PolicingMSA/MO_1004/IMG_1_1004.jpg""]","1","","","","","","1","","4","[""./rc_img/cop_condGroup_14_CommunitySafety_autoscaled.png"",""./rc_img/cop_condGroup_14_SafeStreets_autoscaled.png""]","1","",""
"sliderTrial","html-slider-response","71","271280","0.0-71.0","","656776a7904ae00d6b91d1dd","6568adb8f1d5a32d7b36f74f","7","","","","","","","","","","","","3254","[""SV_PolicingMSA/MO_1004/IMG_5_1004.jpg"",""SV_PolicingMSA/MO_1004/IMG_3_1004.jpg"",""SV_PolicingMSA/MO_1004/IMG_0_1004.jpg"",""SV_PolicingMSA/MO_1004/IMG_14_1004.jpg"",""SV_PolicingMSA/MO_1004/IMG_6_1004.jpg"",""SV_PolicingMSA/MO_1004/IMG_9_1004.jpg"",""SV_PolicingMSA/MO_1004/IMG_12_1004.jpg"",""SV_PolicingMSA/MO_1004/IMG_1_1004.jpg""]","1","","","","","","1","","4","[""./rc_img/cop_condGroup_16_CommunitySafety_autoscaled.png"",""./rc_img/cop_condGroup_16_SafeStreets_autoscaled.png""]","1","",""
"sliderTrial","html-slider-response","72","273836","0.0-72.0","","656776a7904ae00d6b91d1dd","6568adb8f1d5a32d7b36f74f","7","","","","","","","","","","","","2555","[""SV_PolicingMSA/MO_1004/IMG_5_1004.jpg"",""SV_PolicingMSA/MO_1004/IMG_3_1004.jpg"",""SV_PolicingMSA/MO_1004/IMG_0_1004.jpg"",""SV_PolicingMSA/MO_1004/IMG_14_1004.jpg"",""SV_PolicingMSA/MO_1004/IMG_6_1004.jpg"",""SV_PolicingMSA/MO_1004/IMG_9_1004.jpg"",""SV_PolicingMSA/MO_1004/IMG_12_1004.jpg"",""SV_PolicingMSA/MO_1004/IMG_1_1004.jpg""]","7","","","","","","1","","4","[""./rc_img/cop_condGroup_10_SafeStreets_autoscaled.png"",""./rc_img/cop_condGroup_10_CommunitySafety_autoscaled.png""]","1","",""
"sliderTrial_attention","html-slider-response","73","283846","0.0-73.0","","656776a7904ae00d6b91d1dd","6568adb8f1d5a32d7b36f74f","7","","","","","","","","","","","","null","[""SV_PolicingMSA/MO_1004/IMG_5_1004.jpg"",""SV_PolicingMSA/MO_1004/IMG_3_1004.jpg"",""SV_PolicingMSA/MO_1004/IMG_0_1004.jpg"",""SV_PolicingMSA/MO_1004/IMG_14_1004.jpg"",""SV_PolicingMSA/MO_1004/IMG_6_1004.jpg"",""SV_PolicingMSA/MO_1004/IMG_9_1004.jpg"",""SV_PolicingMSA/MO_1004/IMG_12_1004.jpg"",""SV_PolicingMSA/MO_1004/IMG_1_1004.jpg""]","null","","","","","","1","","4","[""./assets/img/attnchk.png"",""./assets/img/attnchk.png""]","","true",""
"sliderTrial","html-slider-response","74","286758","0.0-74.0","","656776a7904ae00d6b91d1dd","6568adb8f1d5a32d7b36f74f","7","","","","","","","","","","","","2911","[""SV_PolicingMSA/MO_1004/IMG_5_1004.jpg"",""SV_PolicingMSA/MO_1004/IMG_3_1004.jpg"",""SV_PolicingMSA/MO_1004/IMG_0_1004.jpg"",""SV_PolicingMSA/MO_1004/IMG_14_1004.jpg"",""SV_PolicingMSA/MO_1004/IMG_6_1004.jpg"",""SV_PolicingMSA/MO_1004/IMG_9_1004.jpg"",""SV_PolicingMSA/MO_1004/IMG_12_1004.jpg"",""SV_PolicingMSA/MO_1004/IMG_1_1004.jpg""]","7","","","","","","1","","4","[""./rc_img/cop_condGroup_11_SafeStreets_autoscaled.png"",""./rc_img/cop_condGroup_11_CommunitySafety_autoscaled.png""]","1","",""
"sliderTrial","html-slider-response","75","289076","0.0-75.0","","656776a7904ae00d6b91d1dd","6568adb8f1d5a32d7b36f74f","7","","","","","","","","","","","","2317","[""SV_PolicingMSA/MO_1004/IMG_5_1004.jpg"",""SV_PolicingMSA/MO_1004/IMG_3_1004.jpg"",""SV_PolicingMSA/MO_1004/IMG_0_1004.jpg"",""SV_PolicingMSA/MO_1004/IMG_14_1004.jpg"",""SV_PolicingMSA/MO_1004/IMG_6_1004.jpg"",""SV_PolicingMSA/MO_1004/IMG_9_1004.jpg"",""SV_PolicingMSA/MO_1004/IMG_12_1004.jpg"",""SV_PolicingMSA/MO_1004/IMG_1_1004.jpg""]","1","","","","","","1","","4","[""./rc_img/cop_condGroup_7_CommunitySafety_autoscaled.png"",""./rc_img/cop_condGroup_7_SafeStreets_autoscaled.png""]","1","",""
"half-way","html-button-response","76","304832","0.0-76.0","","656776a7904ae00d6b91d1dd","6568adb8f1d5a32d7b36f74f","7","","","","","","","","","","","","null","
    <h3>You are now half way through the study.</h3>
    <p>Please take a quick, 15-second break before you continue.</p>
    <img src='assets/img/countdown-15.gif'>
    <p>The study will automatically advance forward after the countdown is complete. <br> However, you may click ""Next"" to advance forward now if you wish.</p>
    ","null","","","","","","","","","","","",""
"before_SVSlide_prompt","html-button-response","77","309056","0.0-77.0","","656776a7904ae00d6b91d1dd","6568adb8f1d5a32d7b36f74f","7","","","","","","","","","","","","4224","Click [Next] to see the next neighborhood!","0","","","","","","","","","","","",""
"street view slide show","image-button-response","78","310062","0.0-78.0","","656776a7904ae00d6b91d1dd","6568adb8f1d5a32d7b36f74f","7","","","","","","","","","","","","null","stimulus/SV_PolicingMSA/MO_1278/IMG_6_1278.jpg","null","","","","","","5","","","","","",""
"street view slide show","image-button-response","79","311064","0.0-79.0","","656776a7904ae00d6b91d1dd","6568adb8f1d5a32d7b36f74f","7","","","","","","","","","","","","null","stimulus/SV_PolicingMSA/MO_1278/IMG_0_1278.jpg","null","","","","","","5","","","","","",""
"street view slide show","image-button-response","80","312077","0.0-80.0","","656776a7904ae00d6b91d1dd","6568adb8f1d5a32d7b36f74f","7","","","","","","","","","","","","null","stimulus/SV_PolicingMSA/MO_1278/IMG_14_1278.jpg","null","","","","","","5","","","","","",""
"street view slide show","image-button-response","81","313087","0.0-81.0","","656776a7904ae00d6b91d1dd","6568adb8f1d5a32d7b36f74f","7","","","","","","","","","","","","null","stimulus/SV_PolicingMSA/MO_1278/IMG_4_1278.jpg","null","","","","","","5","","","","","",""
"street view slide show","image-button-response","82","314090","0.0-82.0","","656776a7904ae00d6b91d1dd","6568adb8f1d5a32d7b36f74f","7","","","","","","","","","","","","null","stimulus/SV_PolicingMSA/MO_1278/IMG_9_1278.jpg","null","","","","","","5","","","","","",""
"street view slide show","image-button-response","83","315092","0.0-83.0","","656776a7904ae00d6b91d1dd","6568adb8f1d5a32d7b36f74f","7","","","","","","","","","","","","null","stimulus/SV_PolicingMSA/MO_1278/IMG_1_1278.jpg","null","","","","","","5","","","","","",""
"street view slide show","image-button-response","84","316094","0.0-84.0","","656776a7904ae00d6b91d1dd","6568adb8f1d5a32d7b36f74f","7","","","","","","","","","","","","null","stimulus/SV_PolicingMSA/MO_1278/IMG_2_1278.jpg","null","","","","","","5","","","","","",""
"street view slide show","image-button-response","85","317098","0.0-85.0","","656776a7904ae00d6b91d1dd","6568adb8f1d5a32d7b36f74f","7","","","","","","","","","","","","null","stimulus/SV_PolicingMSA/MO_1278/IMG_12_1278.jpg","null","","","","","","5","","","","","",""
"dot matrix survey1","survey","86","327560","0.0-86.0","","656776a7904ae00d6b91d1dd","6568adb8f1d5a32d7b36f74f","7","","","","","","","","","","","","10452","","{""P0_Q0"":null,""P0_Q1"":{""wealthy"":3,""safe"":3,""walkable"":1,""traditional"":3,""diverse"":1}}","","","","","","5","[]","","","","",""
"dot matrix survey2","survey","87","332818","0.0-87.0","","656776a7904ae00d6b91d1dd","6568adb8f1d5a32d7b36f74f","7","","","","","","","","","","","","5252","","{""P0_Q0"":null,""P0_Q1"":{""violence"":1,""crime"":1,""drug"":1,""schools"":2,""opportunities"":2}}","","","","","","5","[]","","","","",""
"dot matrix survey3","survey","88","342890","0.0-88.0","","656776a7904ae00d6b91d1dd","6568adb8f1d5a32d7b36f74f","7","","","","","","","","","","","","10066","","{""P0_Q0"":null,""P0_Q1"":{""movein"":1,""moveout"":1,""shopping"":3,""walk"":3,""park"":3,""school"":3}}","","","","","","5","[]","","","","",""
"sliderTrial","html-slider-response","89","346000","0.0-89.0","","656776a7904ae00d6b91d1dd","6568adb8f1d5a32d7b36f74f","7","","","","","","","","","","","","3109","[""SV_PolicingMSA/MO_1278/IMG_6_1278.jpg"",""SV_PolicingMSA/MO_1278/IMG_0_1278.jpg"",""SV_PolicingMSA/MO_1278/IMG_14_1278.jpg"",""SV_PolicingMSA/MO_1278/IMG_4_1278.jpg"",""SV_PolicingMSA/MO_1278/IMG_9_1278.jpg"",""SV_PolicingMSA/MO_1278/IMG_1_1278.jpg"",""SV_PolicingMSA/MO_1278/IMG_2_1278.jpg"",""SV_PolicingMSA/MO_1278/IMG_12_1278.jpg""]","1","","","","","","5","","4","[""./rc_img/cop_condGroup_13_CommunitySafety_autoscaled.png"",""./rc_img/cop_condGroup_13_SafeStreets_autoscaled.png""]","1","",""
"sliderTrial","html-slider-response","90","349156","0.0-90.0","","656776a7904ae00d6b91d1dd","6568adb8f1d5a32d7b36f74f","7","","","","","","","","","","","","3154","[""SV_PolicingMSA/MO_1278/IMG_6_1278.jpg"",""SV_PolicingMSA/MO_1278/IMG_0_1278.jpg"",""SV_PolicingMSA/MO_1278/IMG_14_1278.jpg"",""SV_PolicingMSA/MO_1278/IMG_4_1278.jpg"",""SV_PolicingMSA/MO_1278/IMG_9_1278.jpg"",""SV_PolicingMSA/MO_1278/IMG_1_1278.jpg"",""SV_PolicingMSA/MO_1278/IMG_2_1278.jpg"",""SV_PolicingMSA/MO_1278/IMG_12_1278.jpg""]","7","","","","","","5","","4","[""./rc_img/cop_condGroup_19_SafeStreets_autoscaled.png"",""./rc_img/cop_condGroup_19_CommunitySafety_autoscaled.png""]","1","",""
"sliderTrial","html-slider-response","91","351266","0.0-91.0","","656776a7904ae00d6b91d1dd","6568adb8f1d5a32d7b36f74f","7","","","","","","","","","","","","2109","[""SV_PolicingMSA/MO_1278/IMG_6_1278.jpg"",""SV_PolicingMSA/MO_1278/IMG_0_1278.jpg"",""SV_PolicingMSA/MO_1278/IMG_14_1278.jpg"",""SV_PolicingMSA/MO_1278/IMG_4_1278.jpg"",""SV_PolicingMSA/MO_1278/IMG_9_1278.jpg"",""SV_PolicingMSA/MO_1278/IMG_1_1278.jpg"",""SV_PolicingMSA/MO_1278/IMG_2_1278.jpg"",""SV_PolicingMSA/MO_1278/IMG_12_1278.jpg""]","7","","","","","","5","","4","[""./rc_img/cop_condGroup_18_SafeStreets_autoscaled.png"",""./rc_img/cop_condGroup_18_CommunitySafety_autoscaled.png""]","1","",""
"sliderTrial","html-slider-response","92","353190","0.0-92.0","","656776a7904ae00d6b91d1dd","6568adb8f1d5a32d7b36f74f","7","","","","","","","","","","","","1923","[""SV_PolicingMSA/MO_1278/IMG_6_1278.jpg"",""SV_PolicingMSA/MO_1278/IMG_0_1278.jpg"",""SV_PolicingMSA/MO_1278/IMG_14_1278.jpg"",""SV_PolicingMSA/MO_1278/IMG_4_1278.jpg"",""SV_PolicingMSA/MO_1278/IMG_9_1278.jpg"",""SV_PolicingMSA/MO_1278/IMG_1_1278.jpg"",""SV_PolicingMSA/MO_1278/IMG_2_1278.jpg"",""SV_PolicingMSA/MO_1278/IMG_12_1278.jpg""]","1","","","","","","5","","4","[""./rc_img/cop_condGroup_20_CommunitySafety_autoscaled.png"",""./rc_img/cop_condGroup_20_SafeStreets_autoscaled.png""]","1","",""
"sliderTrial","html-slider-response","93","355771","0.0-93.0","","656776a7904ae00d6b91d1dd","6568adb8f1d5a32d7b36f74f","7","","","","","","","","","","","","2580","[""SV_PolicingMSA/MO_1278/IMG_6_1278.jpg"",""SV_PolicingMSA/MO_1278/IMG_0_1278.jpg"",""SV_PolicingMSA/MO_1278/IMG_14_1278.jpg"",""SV_PolicingMSA/MO_1278/IMG_4_1278.jpg"",""SV_PolicingMSA/MO_1278/IMG_9_1278.jpg"",""SV_PolicingMSA/MO_1278/IMG_1_1278.jpg"",""SV_PolicingMSA/MO_1278/IMG_2_1278.jpg"",""SV_PolicingMSA/MO_1278/IMG_12_1278.jpg""]","7","","","","","","5","","4","[""./rc_img/cop_condGroup_15_SafeStreets_autoscaled.png"",""./rc_img/cop_condGroup_15_CommunitySafety_autoscaled.png""]","1","",""
"before_SVSlide_prompt","html-button-response","94","356786","0.0-94.0","","656776a7904ae00d6b91d1dd","6568adb8f1d5a32d7b36f74f","7","","","","","","","","","","","","1015","Click [Next] to see the next neighborhood!","0","","","","","","","","","","","",""
"street view slide show","image-button-response","95","357790","0.0-95.0","","656776a7904ae00d6b91d1dd","6568adb8f1d5a32d7b36f74f","7","","","","","","","","","","","","null","stimulus/SV_PolicingMSA/MO_589/IMG_13_589.jpg","null","","","","","","2","","","","","",""
"street view slide show","image-button-response","96","358806","0.0-96.0","","656776a7904ae00d6b91d1dd","6568adb8f1d5a32d7b36f74f","7","","","","","","","","","","","","null","stimulus/SV_PolicingMSA/MO_589/IMG_8_589.jpg","null","","","","","","2","","","","","",""
"street view slide show","image-button-response","97","359822","0.0-97.0","","656776a7904ae00d6b91d1dd","6568adb8f1d5a32d7b36f74f","7","","","","","","","","","","","","null","stimulus/SV_PolicingMSA/MO_589/IMG_4_589.jpg","null","","","","","","2","","","","","",""
"street view slide show","image-button-response","98","360829","0.0-98.0","","656776a7904ae00d6b91d1dd","6568adb8f1d5a32d7b36f74f","7","","","","","","","","","","","","null","stimulus/SV_PolicingMSA/MO_589/IMG_1_589.jpg","null","","","","","","2","","","","","",""
"street view slide show","image-button-response","99","361831","0.0-99.0","","656776a7904ae00d6b91d1dd","6568adb8f1d5a32d7b36f74f","7","","","","","","","","","","","","null","stimulus/SV_PolicingMSA/MO_589/IMG_10_589.jpg","null","","","","","","2","","","","","",""
"street view slide show","image-button-response","100","362846","0.0-100.0","","656776a7904ae00d6b91d1dd","6568adb8f1d5a32d7b36f74f","7","","","","","","","","","","","","null","stimulus/SV_PolicingMSA/MO_589/IMG_9_589.jpg","null","","","","","","2","","","","","",""
"street view slide show","image-button-response","101","363861","0.0-101.0","","656776a7904ae00d6b91d1dd","6568adb8f1d5a32d7b36f74f","7","","","","","","","","","","","","null","stimulus/SV_PolicingMSA/MO_589/IMG_0_589.jpg","null","","","","","","2","","","","","",""
"street view slide show","image-button-response","102","364865","0.0-102.0","","656776a7904ae00d6b91d1dd","6568adb8f1d5a32d7b36f74f","7","","","","","","","","","","","","null","stimulus/SV_PolicingMSA/MO_589/IMG_12_589.jpg","null","","","","","","2","","","","","",""
"dot matrix survey1","survey","103","372461","0.0-103.0","","656776a7904ae00d6b91d1dd","6568adb8f1d5a32d7b36f74f","7","","","","","","","","","","","","7590","","{""P0_Q0"":null,""P0_Q1"":{""wealthy"":3,""safe"":3,""walkable"":0,""traditional"":2,""diverse"":1}}","","","","","","2","[]","","","","",""
"dot matrix survey2","survey","104","377019","0.0-104.0","","656776a7904ae00d6b91d1dd","6568adb8f1d5a32d7b36f74f","7","","","","","","","","","","","","4552","","{""P0_Q0"":null,""P0_Q1"":{""violence"":1,""crime"":1,""drug"":1,""schools"":2,""opportunities"":2}}","","","","","","2","[]","","","","",""
"dot matrix survey3","survey","105","391218","0.0-105.0","","656776a7904ae00d6b91d1dd","6568adb8f1d5a32d7b36f74f","7","","","","","","","","","","","","14194","","{""P0_Q0"":null,""P0_Q1"":{""movein"":2,""moveout"":1,""shopping"":2,""walk"":2,""park"":2,""school"":2}}","","","","","","2","[]","","","","",""
"sliderTrial","html-slider-response","106","393598","0.0-106.0","","656776a7904ae00d6b91d1dd","6568adb8f1d5a32d7b36f74f","7","","","","","","","","","","","","2379","[""SV_PolicingMSA/MO_589/IMG_13_589.jpg"",""SV_PolicingMSA/MO_589/IMG_8_589.jpg"",""SV_PolicingMSA/MO_589/IMG_4_589.jpg"",""SV_PolicingMSA/MO_589/IMG_1_589.jpg"",""SV_PolicingMSA/MO_589/IMG_10_589.jpg"",""SV_PolicingMSA/MO_589/IMG_9_589.jpg"",""SV_PolicingMSA/MO_589/IMG_0_589.jpg"",""SV_PolicingMSA/MO_589/IMG_12_589.jpg""]","7","","","","","","2","","4","[""./rc_img/cop_condGroup_12_SafeStreets_autoscaled.png"",""./rc_img/cop_condGroup_12_CommunitySafety_autoscaled.png""]","1","",""
"sliderTrial","html-slider-response","107","395300","0.0-107.0","","656776a7904ae00d6b91d1dd","6568adb8f1d5a32d7b36f74f","7","","","","","","","","","","","","1701","[""SV_PolicingMSA/MO_589/IMG_13_589.jpg"",""SV_PolicingMSA/MO_589/IMG_8_589.jpg"",""SV_PolicingMSA/MO_589/IMG_4_589.jpg"",""SV_PolicingMSA/MO_589/IMG_1_589.jpg"",""SV_PolicingMSA/MO_589/IMG_10_589.jpg"",""SV_PolicingMSA/MO_589/IMG_9_589.jpg"",""SV_PolicingMSA/MO_589/IMG_0_589.jpg"",""SV_PolicingMSA/MO_589/IMG_12_589.jpg""]","1","","","","","","2","","4","[""./rc_img/cop_condGroup_3_CommunitySafety_autoscaled.png"",""./rc_img/cop_condGroup_3_SafeStreets_autoscaled.png""]","1","",""
"sliderTrial","html-slider-response","108","397540","0.0-108.0","","656776a7904ae00d6b91d1dd","6568adb8f1d5a32d7b36f74f","7","","","","","","","","","","","","2238","[""SV_PolicingMSA/MO_589/IMG_13_589.jpg"",""SV_PolicingMSA/MO_589/IMG_8_589.jpg"",""SV_PolicingMSA/MO_589/IMG_4_589.jpg"",""SV_PolicingMSA/MO_589/IMG_1_589.jpg"",""SV_PolicingMSA/MO_589/IMG_10_589.jpg"",""SV_PolicingMSA/MO_589/IMG_9_589.jpg"",""SV_PolicingMSA/MO_589/IMG_0_589.jpg"",""SV_PolicingMSA/MO_589/IMG_12_589.jpg""]","7","","","","","","2","","4","[""./rc_img/cop_condGroup_6_SafeStreets_autoscaled.png"",""./rc_img/cop_condGroup_6_CommunitySafety_autoscaled.png""]","1","",""
"sliderTrial","html-slider-response","109","400026","0.0-109.0","","656776a7904ae00d6b91d1dd","6568adb8f1d5a32d7b36f74f","7","","","","","","","","","","","","2485","[""SV_PolicingMSA/MO_589/IMG_13_589.jpg"",""SV_PolicingMSA/MO_589/IMG_8_589.jpg"",""SV_PolicingMSA/MO_589/IMG_4_589.jpg"",""SV_PolicingMSA/MO_589/IMG_1_589.jpg"",""SV_PolicingMSA/MO_589/IMG_10_589.jpg"",""SV_PolicingMSA/MO_589/IMG_9_589.jpg"",""SV_PolicingMSA/MO_589/IMG_0_589.jpg"",""SV_PolicingMSA/MO_589/IMG_12_589.jpg""]","7","","","","","","2","","4","[""./rc_img/cop_condGroup_1_SafeStreets_autoscaled.png"",""./rc_img/cop_condGroup_1_CommunitySafety_autoscaled.png""]","1","",""
"sliderTrial","html-slider-response","110","401836","0.0-110.0","","656776a7904ae00d6b91d1dd","6568adb8f1d5a32d7b36f74f","7","","","","","","","","","","","","1809","[""SV_PolicingMSA/MO_589/IMG_13_589.jpg"",""SV_PolicingMSA/MO_589/IMG_8_589.jpg"",""SV_PolicingMSA/MO_589/IMG_4_589.jpg"",""SV_PolicingMSA/MO_589/IMG_1_589.jpg"",""SV_PolicingMSA/MO_589/IMG_10_589.jpg"",""SV_PolicingMSA/MO_589/IMG_9_589.jpg"",""SV_PolicingMSA/MO_589/IMG_0_589.jpg"",""SV_PolicingMSA/MO_589/IMG_12_589.jpg""]","1","","","","","","2","","4","[""./rc_img/cop_condGroup_2_CommunitySafety_autoscaled.png"",""./rc_img/cop_condGroup_2_SafeStreets_autoscaled.png""]","1","",""
"before_SVSlide_prompt","html-button-response","111","402720","0.0-111.0","","656776a7904ae00d6b91d1dd","6568adb8f1d5a32d7b36f74f","7","","","","","","","","","","","","884","Click [Next] to see the next neighborhood!","0","","","","","","","","","","","",""
"street view slide show","image-button-response","112","403722","0.0-112.0","","656776a7904ae00d6b91d1dd","6568adb8f1d5a32d7b36f74f","7","","","","","","","","","","","","null","stimulus/SV_PolicingMSA/MO_982/IMG_0_982.jpg","null","","","","","","2","","","","","",""
"street view slide show","image-button-response","113","404735","0.0-113.0","","656776a7904ae00d6b91d1dd","6568adb8f1d5a32d7b36f74f","7","","","","","","","","","","","","null","stimulus/SV_PolicingMSA/MO_982/IMG_12_982.jpg","null","","","","","","2","","","","","",""
"street view slide show","image-button-response","114","405746","0.0-114.0","","656776a7904ae00d6b91d1dd","6568adb8f1d5a32d7b36f74f","7","","","","","","","","","","","","null","stimulus/SV_PolicingMSA/MO_982/IMG_10_982.jpg","null","","","","","","2","","","","","",""
"street view slide show","image-button-response","115","406763","0.0-115.0","","656776a7904ae00d6b91d1dd","6568adb8f1d5a32d7b36f74f","7","","","","","","","","","","","","null","stimulus/SV_PolicingMSA/MO_982/IMG_7_982.jpg","null","","","","","","2","","","","","",""
"street view slide show","image-button-response","116","407768","0.0-116.0","","656776a7904ae00d6b91d1dd","6568adb8f1d5a32d7b36f74f","7","","","","","","","","","","","","null","stimulus/SV_PolicingMSA/MO_982/IMG_14_982.jpg","null","","","","","","2","","","","","",""
"street view slide show","image-button-response","117","408782","0.0-117.0","","656776a7904ae00d6b91d1dd","6568adb8f1d5a32d7b36f74f","7","","","","","","","","","","","","null","stimulus/SV_PolicingMSA/MO_982/IMG_13_982.jpg","null","","","","","","2","","","","","",""
"street view slide show","image-button-response","118","409795","0.0-118.0","","656776a7904ae00d6b91d1dd","6568adb8f1d5a32d7b36f74f","7","","","","","","","","","","","","null","stimulus/SV_PolicingMSA/MO_982/IMG_8_982.jpg","null","","","","","","2","","","","","",""
"street view slide show","image-button-response","119","410808","0.0-119.0","","656776a7904ae00d6b91d1dd","6568adb8f1d5a32d7b36f74f","7","","","","","","","","","","","","null","stimulus/SV_PolicingMSA/MO_982/IMG_2_982.jpg","null","","","","","","2","","","","","",""
"dot matrix survey1","survey","120","419819","0.0-120.0","","656776a7904ae00d6b91d1dd","6568adb8f1d5a32d7b36f74f","7","","","","","","","","","","","","9006","","{""P0_Q0"":null,""P0_Q1"":{""wealthy"":2,""safe"":2,""walkable"":3,""traditional"":2,""diverse"":2}}","","","","","","2","[]","","","","",""
"dot matrix survey2","survey","121","425555","0.0-121.0","","656776a7904ae00d6b91d1dd","6568adb8f1d5a32d7b36f74f","7","","","","","","","","","","","","5730","","{""P0_Q0"":null,""P0_Q1"":{""violence"":2,""crime"":2,""drug"":2,""schools"":2,""opportunities"":1}}","","","","","","2","[]","","","","",""
"dot matrix survey3","survey","122","434473","0.0-122.0","","656776a7904ae00d6b91d1dd","6568adb8f1d5a32d7b36f74f","7","","","","","","","","","","","","8913","","{""P0_Q0"":null,""P0_Q1"":{""movein"":1,""moveout"":2,""shopping"":2,""walk"":1,""park"":1,""school"":1}}","","","","","","2","[]","","","","",""
"sliderTrial","html-slider-response","123","436870","0.0-123.0","","656776a7904ae00d6b91d1dd","6568adb8f1d5a32d7b36f74f","7","","","","","","","","","","","","2395","[""SV_PolicingMSA/MO_982/IMG_0_982.jpg"",""SV_PolicingMSA/MO_982/IMG_12_982.jpg"",""SV_PolicingMSA/MO_982/IMG_10_982.jpg"",""SV_PolicingMSA/MO_982/IMG_7_982.jpg"",""SV_PolicingMSA/MO_982/IMG_14_982.jpg"",""SV_PolicingMSA/MO_982/IMG_13_982.jpg"",""SV_PolicingMSA/MO_982/IMG_8_982.jpg"",""SV_PolicingMSA/MO_982/IMG_2_982.jpg""]","1","","","","","","2","","4","[""./rc_img/cop_condGroup_5_CommunitySafety_autoscaled.png"",""./rc_img/cop_condGroup_5_SafeStreets_autoscaled.png""]","1","",""
"sliderTrial","html-slider-response","124","439046","0.0-124.0","","656776a7904ae00d6b91d1dd","6568adb8f1d5a32d7b36f74f","7","","","","","","","","","","","","2175","[""SV_PolicingMSA/MO_982/IMG_0_982.jpg"",""SV_PolicingMSA/MO_982/IMG_12_982.jpg"",""SV_PolicingMSA/MO_982/IMG_10_982.jpg"",""SV_PolicingMSA/MO_982/IMG_7_982.jpg"",""SV_PolicingMSA/MO_982/IMG_14_982.jpg"",""SV_PolicingMSA/MO_982/IMG_13_982.jpg"",""SV_PolicingMSA/MO_982/IMG_8_982.jpg"",""SV_PolicingMSA/MO_982/IMG_2_982.jpg""]","7","","","","","","2","","4","[""./rc_img/cop_condGroup_4_SafeStreets_autoscaled.png"",""./rc_img/cop_condGroup_4_CommunitySafety_autoscaled.png""]","1","",""
"sliderTrial","html-slider-response","125","441216","0.0-125.0","","656776a7904ae00d6b91d1dd","6568adb8f1d5a32d7b36f74f","7","","","","","","","","","","","","2169","[""SV_PolicingMSA/MO_982/IMG_0_982.jpg"",""SV_PolicingMSA/MO_982/IMG_12_982.jpg"",""SV_PolicingMSA/MO_982/IMG_10_982.jpg"",""SV_PolicingMSA/MO_982/IMG_7_982.jpg"",""SV_PolicingMSA/MO_982/IMG_14_982.jpg"",""SV_PolicingMSA/MO_982/IMG_13_982.jpg"",""SV_PolicingMSA/MO_982/IMG_8_982.jpg"",""SV_PolicingMSA/MO_982/IMG_2_982.jpg""]","1","","","","","","2","","4","[""./rc_img/cop_condGroup_9_CommunitySafety_autoscaled.png"",""./rc_img/cop_condGroup_9_SafeStreets_autoscaled.png""]","1","",""
"sliderTrial","html-slider-response","126","443872","0.0-126.0","","656776a7904ae00d6b91d1dd","6568adb8f1d5a32d7b36f74f","7","","","","","","","","","","","","2654","[""SV_PolicingMSA/MO_982/IMG_0_982.jpg"",""SV_PolicingMSA/MO_982/IMG_12_982.jpg"",""SV_PolicingMSA/MO_982/IMG_10_982.jpg"",""SV_PolicingMSA/MO_982/IMG_7_982.jpg"",""SV_PolicingMSA/MO_982/IMG_14_982.jpg"",""SV_PolicingMSA/MO_982/IMG_13_982.jpg"",""SV_PolicingMSA/MO_982/IMG_8_982.jpg"",""SV_PolicingMSA/MO_982/IMG_2_982.jpg""]","1","","","","","","2","","4","[""./rc_img/cop_condGroup_17_CommunitySafety_autoscaled.png"",""./rc_img/cop_condGroup_17_SafeStreets_autoscaled.png""]","1","",""
"sliderTrial","html-slider-response","127","445574","0.0-127.0","","656776a7904ae00d6b91d1dd","6568adb8f1d5a32d7b36f74f","7","","","","","","","","","","","","1701","[""SV_PolicingMSA/MO_982/IMG_0_982.jpg"",""SV_PolicingMSA/MO_982/IMG_12_982.jpg"",""SV_PolicingMSA/MO_982/IMG_10_982.jpg"",""SV_PolicingMSA/MO_982/IMG_7_982.jpg"",""SV_PolicingMSA/MO_982/IMG_14_982.jpg"",""SV_PolicingMSA/MO_982/IMG_13_982.jpg"",""SV_PolicingMSA/MO_982/IMG_8_982.jpg"",""SV_PolicingMSA/MO_982/IMG_2_982.jpg""]","7","","","","","","2","","4","[""./rc_img/cop_condGroup_8_SafeStreets_autoscaled.png"",""./rc_img/cop_condGroup_8_CommunitySafety_autoscaled.png""]","1","",""
"before_SVSlide_prompt","html-button-response","128","446706","0.0-128.0","","656776a7904ae00d6b91d1dd","6568adb8f1d5a32d7b36f74f","7","","","","","","","","","","","","1132","Click [Next] to see the next neighborhood!","0","","","","","","","","","","","",""
"street view slide show","image-button-response","129","447709","0.0-129.0","","656776a7904ae00d6b91d1dd","6568adb8f1d5a32d7b36f74f","7","","","","","","","","","","","","null","stimulus/SV_PolicingMSA/MO_628/IMG_14_628.jpg","null","","","","","","3","","","","","",""
"street view slide show","image-button-response","130","448723","0.0-130.0","","656776a7904ae00d6b91d1dd","6568adb8f1d5a32d7b36f74f","7","","","","","","","","","","","","null","stimulus/SV_PolicingMSA/MO_628/IMG_10_628.jpg","null","","","","","","3","","","","","",""
"street view slide show","image-button-response","131","449739","0.0-131.0","","656776a7904ae00d6b91d1dd","6568adb8f1d5a32d7b36f74f","7","","","","","","","","","","","","null","stimulus/SV_PolicingMSA/MO_628/IMG_6_628.jpg","null","","","","","","3","","","","","",""
"street view slide show","image-button-response","132","450752","0.0-132.0","","656776a7904ae00d6b91d1dd","6568adb8f1d5a32d7b36f74f","7","","","","","","","","","","","","null","stimulus/SV_PolicingMSA/MO_628/IMG_9_628.jpg","null","","","","","","3","","","","","",""
"street view slide show","image-button-response","133","451765","0.0-133.0","","656776a7904ae00d6b91d1dd","6568adb8f1d5a32d7b36f74f","7","","","","","","","","","","","","null","stimulus/SV_PolicingMSA/MO_628/IMG_4_628.jpg","null","","","","","","3","","","","","",""
"street view slide show","image-button-response","134","452766","0.0-134.0","","656776a7904ae00d6b91d1dd","6568adb8f1d5a32d7b36f74f","7","","","","","","","","","","","","null","stimulus/SV_PolicingMSA/MO_628/IMG_1_628.jpg","null","","","","","","3","","","","","",""
"street view slide show","image-button-response","135","453770","0.0-135.0","","656776a7904ae00d6b91d1dd","6568adb8f1d5a32d7b36f74f","7","","","","","","","","","","","","null","stimulus/SV_PolicingMSA/MO_628/IMG_5_628.jpg","null","","","","","","3","","","","","",""
"street view slide show","image-button-response","136","454783","0.0-136.0","","656776a7904ae00d6b91d1dd","6568adb8f1d5a32d7b36f74f","7","","","","","","","","","","","","null","stimulus/SV_PolicingMSA/MO_628/IMG_0_628.jpg","null","","","","","","3","","","","","",""
"dot matrix survey1","survey","137","462260","0.0-137.0","","656776a7904ae00d6b91d1dd","6568adb8f1d5a32d7b36f74f","7","","","","","","","","","","","","7469","","{""P0_Q0"":null,""P0_Q1"":{""wealthy"":1,""safe"":1,""walkable"":2,""traditional"":2,""diverse"":2}}","","","","","","3","[]","","","","",""
"dot matrix survey2","survey","138","467863","0.0-138.0","","656776a7904ae00d6b91d1dd","6568adb8f1d5a32d7b36f74f","7","","","","","","","","","","","","5598","","{""P0_Q0"":null,""P0_Q1"":{""violence"":2,""crime"":2,""drug"":2,""schools"":1,""opportunities"":1}}","","","","","","3","[]","","","","",""
"dot matrix survey3","survey","139","476295","0.0-139.0","","656776a7904ae00d6b91d1dd","6568adb8f1d5a32d7b36f74f","7","","","","","","","","","","","","8428","","{""P0_Q0"":null,""P0_Q1"":{""movein"":1,""moveout"":2,""shopping"":1,""park"":1,""walk"":1,""school"":1}}","","","","","","3","[]","","","","",""
"sliderTrial","html-slider-response","140","479154","0.0-140.0","","656776a7904ae00d6b91d1dd","6568adb8f1d5a32d7b36f74f","7","","","","","","","","","","","","2858","[""SV_PolicingMSA/MO_628/IMG_14_628.jpg"",""SV_PolicingMSA/MO_628/IMG_10_628.jpg"",""SV_PolicingMSA/MO_628/IMG_6_628.jpg"",""SV_PolicingMSA/MO_628/IMG_9_628.jpg"",""SV_PolicingMSA/MO_628/IMG_4_628.jpg"",""SV_PolicingMSA/MO_628/IMG_1_628.jpg"",""SV_PolicingMSA/MO_628/IMG_5_628.jpg"",""SV_PolicingMSA/MO_628/IMG_0_628.jpg""]","1","","","","","","3","","4","[""./rc_img/cop_condGroup_13_CommunitySafety_autoscaled.png"",""./rc_img/cop_condGroup_13_SafeStreets_autoscaled.png""]","1","",""
"sliderTrial","html-slider-response","141","481094","0.0-141.0","","656776a7904ae00d6b91d1dd","6568adb8f1d5a32d7b36f74f","7","","","","","","","","","","","","1939","[""SV_PolicingMSA/MO_628/IMG_14_628.jpg"",""SV_PolicingMSA/MO_628/IMG_10_628.jpg"",""SV_PolicingMSA/MO_628/IMG_6_628.jpg"",""SV_PolicingMSA/MO_628/IMG_9_628.jpg"",""SV_PolicingMSA/MO_628/IMG_4_628.jpg"",""SV_PolicingMSA/MO_628/IMG_1_628.jpg"",""SV_PolicingMSA/MO_628/IMG_5_628.jpg"",""SV_PolicingMSA/MO_628/IMG_0_628.jpg""]","7","","","","","","3","","4","[""./rc_img/cop_condGroup_19_SafeStreets_autoscaled.png"",""./rc_img/cop_condGroup_19_CommunitySafety_autoscaled.png""]","1","",""
"sliderTrial","html-slider-response","142","483480","0.0-142.0","","656776a7904ae00d6b91d1dd","6568adb8f1d5a32d7b36f74f","7","","","","","","","","","","","","2385","[""SV_PolicingMSA/MO_628/IMG_14_628.jpg"",""SV_PolicingMSA/MO_628/IMG_10_628.jpg"",""SV_PolicingMSA/MO_628/IMG_6_628.jpg"",""SV_PolicingMSA/MO_628/IMG_9_628.jpg"",""SV_PolicingMSA/MO_628/IMG_4_628.jpg"",""SV_PolicingMSA/MO_628/IMG_1_628.jpg"",""SV_PolicingMSA/MO_628/IMG_5_628.jpg"",""SV_PolicingMSA/MO_628/IMG_0_628.jpg""]","7","","","","","","3","","4","[""./rc_img/cop_condGroup_18_SafeStreets_autoscaled.png"",""./rc_img/cop_condGroup_18_CommunitySafety_autoscaled.png""]","1","",""
"sliderTrial","html-slider-response","143","485228","0.0-143.0","","656776a7904ae00d6b91d1dd","6568adb8f1d5a32d7b36f74f","7","","","","","","","","","","","","1747","[""SV_PolicingMSA/MO_628/IMG_14_628.jpg"",""SV_PolicingMSA/MO_628/IMG_10_628.jpg"",""SV_PolicingMSA/MO_628/IMG_6_628.jpg"",""SV_PolicingMSA/MO_628/IMG_9_628.jpg"",""SV_PolicingMSA/MO_628/IMG_4_628.jpg"",""SV_PolicingMSA/MO_628/IMG_1_628.jpg"",""SV_PolicingMSA/MO_628/IMG_5_628.jpg"",""SV_PolicingMSA/MO_628/IMG_0_628.jpg""]","1","","","","","","3","","4","[""./rc_img/cop_condGroup_20_CommunitySafety_autoscaled.png"",""./rc_img/cop_condGroup_20_SafeStreets_autoscaled.png""]","1","",""
"sliderTrial","html-slider-response","144","488498","0.0-144.0","","656776a7904ae00d6b91d1dd","6568adb8f1d5a32d7b36f74f","7","","","","","","","","","","","","3269","[""SV_PolicingMSA/MO_628/IMG_14_628.jpg"",""SV_PolicingMSA/MO_628/IMG_10_628.jpg"",""SV_PolicingMSA/MO_628/IMG_6_628.jpg"",""SV_PolicingMSA/MO_628/IMG_9_628.jpg"",""SV_PolicingMSA/MO_628/IMG_4_628.jpg"",""SV_PolicingMSA/MO_628/IMG_1_628.jpg"",""SV_PolicingMSA/MO_628/IMG_5_628.jpg"",""SV_PolicingMSA/MO_628/IMG_0_628.jpg""]","7","","","","","","3","","4","[""./rc_img/cop_condGroup_15_SafeStreets_autoscaled.png"",""./rc_img/cop_condGroup_15_CommunitySafety_autoscaled.png""]","1","",""
"demographics","survey-html-form","145","501495","0.0-145.0","","656776a7904ae00d6b91d1dd","6568adb8f1d5a32d7b36f74f","7","","","","","","","","","","","","12995","","{""age"":""33"",""sex"":""male"",""gender"":""man"",""gender-self-describe"":"""",""zipcode"":""55076""}","","","","","","","","","","","",""
"demographics-list","survey","146","517931","0.0-146.0","","656776a7904ae00d6b91d1dd","6568adb8f1d5a32d7b36f74f","7","","","","","","","","","","","","16413","","{""P0_Q0"":null,""race-ethnicity"":[""White or of European ancestry""],""education"":""Associate’s degree"",""P1_Q0"":null,""ideology"":""Liberal"",""P2_Q0"":null,""num-moves"":2,""P3_Q0"":null,""social-ladder"":4}","","","","","","","[]","","","","",""
"end-survey","survey-text","147","520150","0.0-147.0","","656776a7904ae00d6b91d1dd","6568adb8f1d5a32d7b36f74f","7","","","","","","","","","","","","2212","","{""Q0"":""""}","","","","","","","","","","","","2"
"end-survey","html-button-response","148","524232","0.0-148.0","","656776a7904ae00d6b91d1dd","6568adb8f1d5a32d7b36f74f","7","","","","","","","","","","","","4081","
    You've reached the end of the survey. <br><br> 
    <b>Do not close or refresh this window.</b><br>
    On the next page, you will be automatically redirected to Prolific. <br><br>

    <div class=""alert alert-warning""><b>
    </div>
","0","","","","","","","","","","","",""
