"task","trial_type","trial_index","time_elapsed","internal_node_id","subject_id","study_id","session_id","section","width","height","webaudio","browser","browser_version","mobile","os","fullscreen","vsync_rate","webcam","microphone","rt","stimulus","response","success","timeout","failed_images","failed_audio","failed_video","block","accuracy","slider_start","choices","standardized_response","correct","num_attention_checks_correct"
"pavlovia-init","pavlovia","0","1961","0.0-0.0","","656776a7904ae00d6b91d1dd","6568af14f2625ad293c134d1","13","","","","","","","","","","","","","","","","","","","","","","","","","",""
"browser-check","browser-check","1","2955","0.0-1.0","","656776a7904ae00d6b91d1dd","6568af14f2625ad293c134d1","13","1280","587","true","firefox","120.0.0","false","Windows 10","true","61.1","false","true","","","","","","","","","","","","","","",""
"consent","html-button-response","2","52245","0.0-2.0","","656776a7904ae00d6b91d1dd","6568af14f2625ad293c134d1","13","","","","","","","","","","","","49283","
        <div style=""font-size: 80%; max-width:700px"">
            <h2>CONSENT FORM</h2>
        
            <div style=""text-align: left"">
            <h4>DESCRIPTION</h4>
            <p>
            You will complete a short task where you give your impressions of various neighborhoods and assign individuals to those spaces, and answer some questions about your thoughts and opinions.<br>
            The University of Michigan Institutional Review Board Health Sciences and Behavioral Sciences has determined that this study is exempt from IRB oversight.
            </p>

            <h4>TIME INVOLVEMENT</h4>
            <p>Your participation will take approximately 15 minutes. You will receive $3.15 upon completion of the study.</p>
        
            <h4>RISKS AND BENEFITS</h4>
            <p>
            The risks associated with this study are minimal. The benefits which may reasonably be expected to result from this study are none. We cannot and do not guarantee or promise that you will receive any benefits from this study.
            </p>
          
            <h4>SUBJECT'S RIGHTS</h4>
            <p>
            If you have read this form and have decided to participate in this project, please understand your participation is voluntary and you have the right to withdraw your consent or discontinue participation at any time without penalty or loss of benefits to which you are otherwise entitled. The alternative is not to participate. You have the right to refuse to answer particular questions. Your individual privacy will be maintained in all published and written data resulting from the study.
            </p>

            <h4>HUMAN SUBJECT APPROVAL</h4>
            <p>
            This study is exempt from ongoing IRB review.
            </p>

            <h4>CONTACT INFORMATION</h4>
            If you have any questions, concerns or complaints about this research, its procedures, risks and benefits, contact the Protocol Director, Nicholas Camp, npcamp@umich.edu, (443) 851-6783. <br>

            If you have questions about your rights as a research participant, or wish to obtain information, ask questions or discuss any concerns about this study with someone other than the researcher(s), please contact the following:<br><br>
            University of Michigan<br>
            Health Sciences and Behavioral Sciences Institutional Review Board (IRB-HSBS)<br>
            2800 Plymouth Road<br>
            Building 520, Room 1169Ann Arbor, MI 48109-2800<br>
            Telephone: 734-936-0933 or toll free (866) 936-0933<br>
            Fax: 734-936-1852<br>
            E-mail: irbhsbs@umich.edu<br><br>

            You can also contact the University of Michigan Compliance Hotline at 1-866-990-0111. You may also print this consent form to keep.
            <br><br>
            <div class=""alert alert-warning""><b>
            Do you consent to participate in this study? If you consent to participate in this study, please click “Accept and Continue”. If you select ""Decline and Exit"", you will be exited from the survey. <br>
            </b></div>
            </div>
        </div>
    ","1","","","","","","","","","","","",""
"","preload","3","58585","0.0-3.0","","656776a7904ae00d6b91d1dd","6568af14f2625ad293c134d1","13","","","","","","","","","","","","","","","true","false","[]","[]","[]","","","","","","",""
"instructions","html-button-response","4","70771","0.0-4.0","","656776a7904ae00d6b91d1dd","6568af14f2625ad293c134d1","13","","","","","","","","","","","","12174","
        <div class=""text-container"">
        <h1>Welcome to the study!</h1>
        
        <div class=""text-left"">
            <p>
                In this study, we are interested in what people can tell about spaces from Google Street View images. <br> Google Street View takes pictures of streets used for Google Earth and Google Maps. <br>You’ll see Google Street View images of different places and answer some questions about each one.<br>
            </p>
        </div>
        <img src = ""assets/img/example.png"" width = 500px, height = auto>
        <br>
    <br>
    ","0","","","","","","","","","","","",""
"instructions","html-button-response","5","76393","0.0-5.0","","656776a7904ae00d6b91d1dd","6568af14f2625ad293c134d1","13","","","","","","","","","","","","5611","
    <div class=""text-container"">
        <div class=""text-center"">
            <p>Please remember that your answers are completely anonymous.<br>Go with your gut response- there are no right or wrong answers!</p>
        </div>
    <br>
","0","","","","","","","","","","","",""
"before_SVSlide_prompt","html-button-response","6","78583","0.0-6.0","","656776a7904ae00d6b91d1dd","6568af14f2625ad293c134d1","13","","","","","","","","","","","","2179","Click [Next] to see the next neighborhood!","0","","","","","","","","","","","",""
"street view slide show","image-button-response","7","79642","0.0-7.0","","656776a7904ae00d6b91d1dd","6568af14f2625ad293c134d1","13","","","","","","","","","","","","null","stimulus/SV_PolicingMSA/CA_7077/IMG_3_7077.jpg","null","","","","","","0","","","","","",""
"street view slide show","image-button-response","8","80667","0.0-8.0","","656776a7904ae00d6b91d1dd","6568af14f2625ad293c134d1","13","","","","","","","","","","","","null","stimulus/SV_PolicingMSA/CA_7077/IMG_1_7077.jpg","null","","","","","","0","","","","","",""
"street view slide show","image-button-response","9","81693","0.0-9.0","","656776a7904ae00d6b91d1dd","6568af14f2625ad293c134d1","13","","","","","","","","","","","","null","stimulus/SV_PolicingMSA/CA_7077/IMG_13_7077.jpg","null","","","","","","0","","","","","",""
"street view slide show","image-button-response","10","82719","0.0-10.0","","656776a7904ae00d6b91d1dd","6568af14f2625ad293c134d1","13","","","","","","","","","","","","null","stimulus/SV_PolicingMSA/CA_7077/IMG_12_7077.jpg","null","","","","","","0","","","","","",""
"street view slide show","image-button-response","11","83740","0.0-11.0","","656776a7904ae00d6b91d1dd","6568af14f2625ad293c134d1","13","","","","","","","","","","","","null","stimulus/SV_PolicingMSA/CA_7077/IMG_2_7077.jpg","null","","","","","","0","","","","","",""
"street view slide show","image-button-response","12","84767","0.0-12.0","","656776a7904ae00d6b91d1dd","6568af14f2625ad293c134d1","13","","","","","","","","","","","","null","stimulus/SV_PolicingMSA/CA_7077/IMG_14_7077.jpg","null","","","","","","0","","","","","",""
"street view slide show","image-button-response","13","85788","0.0-13.0","","656776a7904ae00d6b91d1dd","6568af14f2625ad293c134d1","13","","","","","","","","","","","","null","stimulus/SV_PolicingMSA/CA_7077/IMG_8_7077.jpg","null","","","","","","0","","","","","",""
"street view slide show","image-button-response","14","86812","0.0-14.0","","656776a7904ae00d6b91d1dd","6568af14f2625ad293c134d1","13","","","","","","","","","","","","null","stimulus/SV_PolicingMSA/CA_7077/IMG_6_7077.jpg","null","","","","","","0","","","","","",""
"dot matrix survey1","survey","15","130394","0.0-15.0","","656776a7904ae00d6b91d1dd","6568af14f2625ad293c134d1","13","","","","","","","","","","","","43110","","{""P0_Q0"":null,""P0_Q1"":{""wealthy"":2,""safe"":2,""walkable"":4,""traditional"":3,""diverse"":3}}","","","","","","0","[]","","","","",""
"dot matrix survey2","survey","16","168917","0.0-16.0","","656776a7904ae00d6b91d1dd","6568af14f2625ad293c134d1","13","","","","","","","","","","","","38493","","{""P0_Q0"":null,""P0_Q1"":{""violence"":2,""crime"":2,""drug"":2,""schools"":3,""opportunities"":3}}","","","","","","0","[]","","","","",""
"dot matrix survey3","survey","17","200661","0.0-17.0","","656776a7904ae00d6b91d1dd","6568af14f2625ad293c134d1","13","","","","","","","","","","","","31687","","{""P0_Q0"":null,""P0_Q1"":{""movein"":3,""moveout"":1,""shopping"":3,""walk"":3,""park"":3,""school"":3}}","","","","","","0","[]","","","","",""
"sliderTrial","html-slider-response","18","214250","0.0-18.0","","656776a7904ae00d6b91d1dd","6568af14f2625ad293c134d1","13","","","","","","","","","","","","13573","[""SV_PolicingMSA/CA_7077/IMG_3_7077.jpg"",""SV_PolicingMSA/CA_7077/IMG_1_7077.jpg"",""SV_PolicingMSA/CA_7077/IMG_13_7077.jpg"",""SV_PolicingMSA/CA_7077/IMG_12_7077.jpg"",""SV_PolicingMSA/CA_7077/IMG_2_7077.jpg"",""SV_PolicingMSA/CA_7077/IMG_14_7077.jpg"",""SV_PolicingMSA/CA_7077/IMG_8_7077.jpg"",""SV_PolicingMSA/CA_7077/IMG_6_7077.jpg""]","7","","","","","","0","","4","[""./rc_img/cop_condGroup_2_CommunitySafety_autoscaled.png"",""./rc_img/cop_condGroup_2_SafeStreets_autoscaled.png""]","7","",""
"sliderTrial","html-slider-response","19","222129","0.0-19.0","","656776a7904ae00d6b91d1dd","6568af14f2625ad293c134d1","13","","","","","","","","","","","","7868","[""SV_PolicingMSA/CA_7077/IMG_3_7077.jpg"",""SV_PolicingMSA/CA_7077/IMG_1_7077.jpg"",""SV_PolicingMSA/CA_7077/IMG_13_7077.jpg"",""SV_PolicingMSA/CA_7077/IMG_12_7077.jpg"",""SV_PolicingMSA/CA_7077/IMG_2_7077.jpg"",""SV_PolicingMSA/CA_7077/IMG_14_7077.jpg"",""SV_PolicingMSA/CA_7077/IMG_8_7077.jpg"",""SV_PolicingMSA/CA_7077/IMG_6_7077.jpg""]","1","","","","","","0","","4","[""./rc_img/cop_condGroup_1_SafeStreets_autoscaled.png"",""./rc_img/cop_condGroup_1_CommunitySafety_autoscaled.png""]","7","",""
"sliderTrial","html-slider-response","20","228016","0.0-20.0","","656776a7904ae00d6b91d1dd","6568af14f2625ad293c134d1","13","","","","","","","","","","","","5883","[""SV_PolicingMSA/CA_7077/IMG_3_7077.jpg"",""SV_PolicingMSA/CA_7077/IMG_1_7077.jpg"",""SV_PolicingMSA/CA_7077/IMG_13_7077.jpg"",""SV_PolicingMSA/CA_7077/IMG_12_7077.jpg"",""SV_PolicingMSA/CA_7077/IMG_2_7077.jpg"",""SV_PolicingMSA/CA_7077/IMG_14_7077.jpg"",""SV_PolicingMSA/CA_7077/IMG_8_7077.jpg"",""SV_PolicingMSA/CA_7077/IMG_6_7077.jpg""]","1","","","","","","0","","4","[""./rc_img/cop_condGroup_5_SafeStreets_autoscaled.png"",""./rc_img/cop_condGroup_5_CommunitySafety_autoscaled.png""]","7","",""
"sliderTrial_attention","html-slider-response","21","238036","0.0-21.0","","656776a7904ae00d6b91d1dd","6568af14f2625ad293c134d1","13","","","","","","","","","","","","null","[""SV_PolicingMSA/CA_7077/IMG_3_7077.jpg"",""SV_PolicingMSA/CA_7077/IMG_1_7077.jpg"",""SV_PolicingMSA/CA_7077/IMG_13_7077.jpg"",""SV_PolicingMSA/CA_7077/IMG_12_7077.jpg"",""SV_PolicingMSA/CA_7077/IMG_2_7077.jpg"",""SV_PolicingMSA/CA_7077/IMG_14_7077.jpg"",""SV_PolicingMSA/CA_7077/IMG_8_7077.jpg"",""SV_PolicingMSA/CA_7077/IMG_6_7077.jpg""]","null","","","","","","0","","4","[""./assets/img/attnchk.png"",""./assets/img/attnchk.png""]","","true",""
"sliderTrial","html-slider-response","22","252146","0.0-22.0","","656776a7904ae00d6b91d1dd","6568af14f2625ad293c134d1","13","","","","","","","","","","","","14104","[""SV_PolicingMSA/CA_7077/IMG_3_7077.jpg"",""SV_PolicingMSA/CA_7077/IMG_1_7077.jpg"",""SV_PolicingMSA/CA_7077/IMG_13_7077.jpg"",""SV_PolicingMSA/CA_7077/IMG_12_7077.jpg"",""SV_PolicingMSA/CA_7077/IMG_2_7077.jpg"",""SV_PolicingMSA/CA_7077/IMG_14_7077.jpg"",""SV_PolicingMSA/CA_7077/IMG_8_7077.jpg"",""SV_PolicingMSA/CA_7077/IMG_6_7077.jpg""]","1","","","","","","0","","4","[""./rc_img/cop_condGroup_3_SafeStreets_autoscaled.png"",""./rc_img/cop_condGroup_3_CommunitySafety_autoscaled.png""]","7","",""
"sliderTrial","html-slider-response","23","257791","0.0-23.0","","656776a7904ae00d6b91d1dd","6568af14f2625ad293c134d1","13","","","","","","","","","","","","5629","[""SV_PolicingMSA/CA_7077/IMG_3_7077.jpg"",""SV_PolicingMSA/CA_7077/IMG_1_7077.jpg"",""SV_PolicingMSA/CA_7077/IMG_13_7077.jpg"",""SV_PolicingMSA/CA_7077/IMG_12_7077.jpg"",""SV_PolicingMSA/CA_7077/IMG_2_7077.jpg"",""SV_PolicingMSA/CA_7077/IMG_14_7077.jpg"",""SV_PolicingMSA/CA_7077/IMG_8_7077.jpg"",""SV_PolicingMSA/CA_7077/IMG_6_7077.jpg""]","7","","","","","","0","","4","[""./rc_img/cop_condGroup_6_CommunitySafety_autoscaled.png"",""./rc_img/cop_condGroup_6_SafeStreets_autoscaled.png""]","7","",""
"before_SVSlide_prompt","html-button-response","24","261233","0.0-24.0","","656776a7904ae00d6b91d1dd","6568af14f2625ad293c134d1","13","","","","","","","","","","","","3427","Click [Next] to see the next neighborhood!","0","","","","","","","","","","","",""
"street view slide show","image-button-response","25","262264","0.0-25.0","","656776a7904ae00d6b91d1dd","6568af14f2625ad293c134d1","13","","","","","","","","","","","","null","stimulus/SV_PolicingMSA/CA_6489/IMG_1_6489.jpg","null","","","","","","2","","","","","",""
"street view slide show","image-button-response","26","263294","0.0-26.0","","656776a7904ae00d6b91d1dd","6568af14f2625ad293c134d1","13","","","","","","","","","","","","null","stimulus/SV_PolicingMSA/CA_6489/IMG_6_6489.jpg","null","","","","","","2","","","","","",""
"street view slide show","image-button-response","27","264316","0.0-27.0","","656776a7904ae00d6b91d1dd","6568af14f2625ad293c134d1","13","","","","","","","","","","","","null","stimulus/SV_PolicingMSA/CA_6489/IMG_7_6489.jpg","null","","","","","","2","","","","","",""
"street view slide show","image-button-response","28","265341","0.0-28.0","","656776a7904ae00d6b91d1dd","6568af14f2625ad293c134d1","13","","","","","","","","","","","","null","stimulus/SV_PolicingMSA/CA_6489/IMG_4_6489.jpg","null","","","","","","2","","","","","",""
"street view slide show","image-button-response","29","266368","0.0-29.0","","656776a7904ae00d6b91d1dd","6568af14f2625ad293c134d1","13","","","","","","","","","","","","null","stimulus/SV_PolicingMSA/CA_6489/IMG_12_6489.jpg","null","","","","","","2","","","","","",""
"street view slide show","image-button-response","30","267392","0.0-30.0","","656776a7904ae00d6b91d1dd","6568af14f2625ad293c134d1","13","","","","","","","","","","","","null","stimulus/SV_PolicingMSA/CA_6489/IMG_8_6489.jpg","null","","","","","","2","","","","","",""
"street view slide show","image-button-response","31","268419","0.0-31.0","","656776a7904ae00d6b91d1dd","6568af14f2625ad293c134d1","13","","","","","","","","","","","","null","stimulus/SV_PolicingMSA/CA_6489/IMG_0_6489.jpg","null","","","","","","2","","","","","",""
"street view slide show","image-button-response","32","269435","0.0-32.0","","656776a7904ae00d6b91d1dd","6568af14f2625ad293c134d1","13","","","","","","","","","","","","null","stimulus/SV_PolicingMSA/CA_6489/IMG_9_6489.jpg","null","","","","","","2","","","","","",""
"dot matrix survey1","survey","33","296824","0.0-33.0","","656776a7904ae00d6b91d1dd","6568af14f2625ad293c134d1","13","","","","","","","","","","","","27318","","{""P0_Q0"":null,""P0_Q1"":{""wealthy"":3,""safe"":3,""walkable"":3,""traditional"":1,""diverse"":3}}","","","","","","2","[]","","","","",""
"dot matrix survey2","survey","34","320473","0.0-34.0","","656776a7904ae00d6b91d1dd","6568af14f2625ad293c134d1","13","","","","","","","","","","","","23573","","{""P0_Q0"":null,""P0_Q1"":{""violence"":0,""crime"":0,""drug"":0,""schools"":4,""opportunities"":4}}","","","","","","2","[]","","","","",""
"dot matrix survey3","survey","35","346290","0.0-35.0","","656776a7904ae00d6b91d1dd","6568af14f2625ad293c134d1","13","","","","","","","","","","","","25765","","{""P0_Q0"":null,""P0_Q1"":{""movein"":4,""moveout"":0,""shopping"":4,""walk"":4,""park"":4,""school"":4}}","","","","","","2","[]","","","","",""
"sliderTrial","html-slider-response","36","352363","0.0-36.0","","656776a7904ae00d6b91d1dd","6568af14f2625ad293c134d1","13","","","","","","","","","","","","6065","[""SV_PolicingMSA/CA_6489/IMG_1_6489.jpg"",""SV_PolicingMSA/CA_6489/IMG_6_6489.jpg"",""SV_PolicingMSA/CA_6489/IMG_7_6489.jpg"",""SV_PolicingMSA/CA_6489/IMG_4_6489.jpg"",""SV_PolicingMSA/CA_6489/IMG_12_6489.jpg"",""SV_PolicingMSA/CA_6489/IMG_8_6489.jpg"",""SV_PolicingMSA/CA_6489/IMG_0_6489.jpg"",""SV_PolicingMSA/CA_6489/IMG_9_6489.jpg""]","7","","","","","","2","","4","[""./rc_img/cop_condGroup_11_CommunitySafety_autoscaled.png"",""./rc_img/cop_condGroup_11_SafeStreets_autoscaled.png""]","7","",""
"sliderTrial","html-slider-response","37","357101","0.0-37.0","","656776a7904ae00d6b91d1dd","6568af14f2625ad293c134d1","13","","","","","","","","","","","","4720","[""SV_PolicingMSA/CA_6489/IMG_1_6489.jpg"",""SV_PolicingMSA/CA_6489/IMG_6_6489.jpg"",""SV_PolicingMSA/CA_6489/IMG_7_6489.jpg"",""SV_PolicingMSA/CA_6489/IMG_4_6489.jpg"",""SV_PolicingMSA/CA_6489/IMG_12_6489.jpg"",""SV_PolicingMSA/CA_6489/IMG_8_6489.jpg"",""SV_PolicingMSA/CA_6489/IMG_0_6489.jpg"",""SV_PolicingMSA/CA_6489/IMG_9_6489.jpg""]","7","","","","","","2","","4","[""./rc_img/cop_condGroup_12_CommunitySafety_autoscaled.png"",""./rc_img/cop_condGroup_12_SafeStreets_autoscaled.png""]","7","",""
"sliderTrial","html-slider-response","38","362466","0.0-38.0","","656776a7904ae00d6b91d1dd","6568af14f2625ad293c134d1","13","","","","","","","","","","","","5355","[""SV_PolicingMSA/CA_6489/IMG_1_6489.jpg"",""SV_PolicingMSA/CA_6489/IMG_6_6489.jpg"",""SV_PolicingMSA/CA_6489/IMG_7_6489.jpg"",""SV_PolicingMSA/CA_6489/IMG_4_6489.jpg"",""SV_PolicingMSA/CA_6489/IMG_12_6489.jpg"",""SV_PolicingMSA/CA_6489/IMG_8_6489.jpg"",""SV_PolicingMSA/CA_6489/IMG_0_6489.jpg"",""SV_PolicingMSA/CA_6489/IMG_9_6489.jpg""]","1","","","","","","2","","4","[""./rc_img/cop_condGroup_15_SafeStreets_autoscaled.png"",""./rc_img/cop_condGroup_15_CommunitySafety_autoscaled.png""]","7","",""
"sliderTrial","html-slider-response","39","368602","0.0-39.0","","656776a7904ae00d6b91d1dd","6568af14f2625ad293c134d1","13","","","","","","","","","","","","6126","[""SV_PolicingMSA/CA_6489/IMG_1_6489.jpg"",""SV_PolicingMSA/CA_6489/IMG_6_6489.jpg"",""SV_PolicingMSA/CA_6489/IMG_7_6489.jpg"",""SV_PolicingMSA/CA_6489/IMG_4_6489.jpg"",""SV_PolicingMSA/CA_6489/IMG_12_6489.jpg"",""SV_PolicingMSA/CA_6489/IMG_8_6489.jpg"",""SV_PolicingMSA/CA_6489/IMG_0_6489.jpg"",""SV_PolicingMSA/CA_6489/IMG_9_6489.jpg""]","7","","","","","","2","","4","[""./rc_img/cop_condGroup_13_CommunitySafety_autoscaled.png"",""./rc_img/cop_condGroup_13_SafeStreets_autoscaled.png""]","7","",""
"sliderTrial","html-slider-response","40","377261","0.0-40.0","","656776a7904ae00d6b91d1dd","6568af14f2625ad293c134d1","13","","","","","","","","","","","","8649","[""SV_PolicingMSA/CA_6489/IMG_1_6489.jpg"",""SV_PolicingMSA/CA_6489/IMG_6_6489.jpg"",""SV_PolicingMSA/CA_6489/IMG_7_6489.jpg"",""SV_PolicingMSA/CA_6489/IMG_4_6489.jpg"",""SV_PolicingMSA/CA_6489/IMG_12_6489.jpg"",""SV_PolicingMSA/CA_6489/IMG_8_6489.jpg"",""SV_PolicingMSA/CA_6489/IMG_0_6489.jpg"",""SV_PolicingMSA/CA_6489/IMG_9_6489.jpg""]","1","","","","","","2","","4","[""./rc_img/cop_condGroup_14_SafeStreets_autoscaled.png"",""./rc_img/cop_condGroup_14_CommunitySafety_autoscaled.png""]","7","",""
"before_SVSlide_prompt","html-button-response","41","380499","0.0-41.0","","656776a7904ae00d6b91d1dd","6568af14f2625ad293c134d1","13","","","","","","","","","","","","3230","Click [Next] to see the next neighborhood!","0","","","","","","","","","","","",""
"street view slide show","image-button-response","42","381519","0.0-42.0","","656776a7904ae00d6b91d1dd","6568af14f2625ad293c134d1","13","","","","","","","","","","","","null","stimulus/SV_PolicingMSA/CA_2994/IMG_7_2994.jpg","null","","","","","","1","","","","","",""
"street view slide show","image-button-response","43","382552","0.0-43.0","","656776a7904ae00d6b91d1dd","6568af14f2625ad293c134d1","13","","","","","","","","","","","","null","stimulus/SV_PolicingMSA/CA_2994/IMG_10_2994.jpg","null","","","","","","1","","","","","",""
"street view slide show","image-button-response","44","383574","0.0-44.0","","656776a7904ae00d6b91d1dd","6568af14f2625ad293c134d1","13","","","","","","","","","","","","null","stimulus/SV_PolicingMSA/CA_2994/IMG_1_2994.jpg","null","","","","","","1","","","","","",""
"street view slide show","image-button-response","45","384586","0.0-45.0","","656776a7904ae00d6b91d1dd","6568af14f2625ad293c134d1","13","","","","","","","","","","","","null","stimulus/SV_PolicingMSA/CA_2994/IMG_11_2994.jpg","null","","","","","","1","","","","","",""
"street view slide show","image-button-response","46","385617","0.0-46.0","","656776a7904ae00d6b91d1dd","6568af14f2625ad293c134d1","13","","","","","","","","","","","","null","stimulus/SV_PolicingMSA/CA_2994/IMG_0_2994.jpg","null","","","","","","1","","","","","",""
"street view slide show","image-button-response","47","386638","0.0-47.0","","656776a7904ae00d6b91d1dd","6568af14f2625ad293c134d1","13","","","","","","","","","","","","null","stimulus/SV_PolicingMSA/CA_2994/IMG_12_2994.jpg","null","","","","","","1","","","","","",""
"street view slide show","image-button-response","48","387667","0.0-48.0","","656776a7904ae00d6b91d1dd","6568af14f2625ad293c134d1","13","","","","","","","","","","","","null","stimulus/SV_PolicingMSA/CA_2994/IMG_9_2994.jpg","null","","","","","","1","","","","","",""
"street view slide show","image-button-response","49","388682","0.0-49.0","","656776a7904ae00d6b91d1dd","6568af14f2625ad293c134d1","13","","","","","","","","","","","","null","stimulus/SV_PolicingMSA/CA_2994/IMG_14_2994.jpg","null","","","","","","1","","","","","",""
"dot matrix survey1","survey","50","420409","0.0-50.0","","656776a7904ae00d6b91d1dd","6568af14f2625ad293c134d1","13","","","","","","","","","","","","31682","","{""P0_Q0"":null,""P0_Q1"":{""wealthy"":1,""safe"":1,""walkable"":3,""traditional"":4,""diverse"":1}}","","","","","","1","[]","","","","",""
"dot matrix survey2","survey","51","440399","0.0-51.0","","656776a7904ae00d6b91d1dd","6568af14f2625ad293c134d1","13","","","","","","","","","","","","19942","","{""P0_Q0"":null,""P0_Q1"":{""violence"":4,""crime"":4,""drug"":4,""schools"":1,""opportunities"":1}}","","","","","","1","[]","","","","",""
"dot matrix survey3","survey","52","471487","0.0-52.0","","656776a7904ae00d6b91d1dd","6568af14f2625ad293c134d1","13","","","","","","","","","","","","31038","","{""P0_Q0"":null,""P0_Q1"":{""movein"":0,""moveout"":4,""shopping"":1,""walk"":0,""park"":0,""school"":0}}","","","","","","1","[]","","","","",""
"sliderTrial","html-slider-response","53","478148","0.0-53.0","","656776a7904ae00d6b91d1dd","6568af14f2625ad293c134d1","13","","","","","","","","","","","","6649","[""SV_PolicingMSA/CA_2994/IMG_7_2994.jpg"",""SV_PolicingMSA/CA_2994/IMG_10_2994.jpg"",""SV_PolicingMSA/CA_2994/IMG_1_2994.jpg"",""SV_PolicingMSA/CA_2994/IMG_11_2994.jpg"",""SV_PolicingMSA/CA_2994/IMG_0_2994.jpg"",""SV_PolicingMSA/CA_2994/IMG_12_2994.jpg"",""SV_PolicingMSA/CA_2994/IMG_9_2994.jpg"",""SV_PolicingMSA/CA_2994/IMG_14_2994.jpg""]","7","","","","","","1","","4","[""./rc_img/cop_condGroup_8_CommunitySafety_autoscaled.png"",""./rc_img/cop_condGroup_8_SafeStreets_autoscaled.png""]","7","",""
"sliderTrial","html-slider-response","54","482966","0.0-54.0","","656776a7904ae00d6b91d1dd","6568af14f2625ad293c134d1","13","","","","","","","","","","","","4808","[""SV_PolicingMSA/CA_2994/IMG_7_2994.jpg"",""SV_PolicingMSA/CA_2994/IMG_10_2994.jpg"",""SV_PolicingMSA/CA_2994/IMG_1_2994.jpg"",""SV_PolicingMSA/CA_2994/IMG_11_2994.jpg"",""SV_PolicingMSA/CA_2994/IMG_0_2994.jpg"",""SV_PolicingMSA/CA_2994/IMG_12_2994.jpg"",""SV_PolicingMSA/CA_2994/IMG_9_2994.jpg"",""SV_PolicingMSA/CA_2994/IMG_14_2994.jpg""]","1","","","","","","1","","4","[""./rc_img/cop_condGroup_9_SafeStreets_autoscaled.png"",""./rc_img/cop_condGroup_9_CommunitySafety_autoscaled.png""]","7","",""
"sliderTrial_attention","html-slider-response","55","492986","0.0-55.0","","656776a7904ae00d6b91d1dd","6568af14f2625ad293c134d1","13","","","","","","","","","","","","null","[""SV_PolicingMSA/CA_2994/IMG_7_2994.jpg"",""SV_PolicingMSA/CA_2994/IMG_10_2994.jpg"",""SV_PolicingMSA/CA_2994/IMG_1_2994.jpg"",""SV_PolicingMSA/CA_2994/IMG_11_2994.jpg"",""SV_PolicingMSA/CA_2994/IMG_0_2994.jpg"",""SV_PolicingMSA/CA_2994/IMG_12_2994.jpg"",""SV_PolicingMSA/CA_2994/IMG_9_2994.jpg"",""SV_PolicingMSA/CA_2994/IMG_14_2994.jpg""]","null","","","","","","1","","4","[""./assets/img/attnchk.png"",""./assets/img/attnchk.png""]","","true",""
"sliderTrial","html-slider-response","56","632508","0.0-56.0","","656776a7904ae00d6b91d1dd","6568af14f2625ad293c134d1","13","","","","","","","","","","","","139518","[""SV_PolicingMSA/CA_2994/IMG_7_2994.jpg"",""SV_PolicingMSA/CA_2994/IMG_10_2994.jpg"",""SV_PolicingMSA/CA_2994/IMG_1_2994.jpg"",""SV_PolicingMSA/CA_2994/IMG_11_2994.jpg"",""SV_PolicingMSA/CA_2994/IMG_0_2994.jpg"",""SV_PolicingMSA/CA_2994/IMG_12_2994.jpg"",""SV_PolicingMSA/CA_2994/IMG_9_2994.jpg"",""SV_PolicingMSA/CA_2994/IMG_14_2994.jpg""]","1","","","","","","1","","4","[""./rc_img/cop_condGroup_10_SafeStreets_autoscaled.png"",""./rc_img/cop_condGroup_10_CommunitySafety_autoscaled.png""]","7","",""
"sliderTrial","html-slider-response","57","636877","0.0-57.0","","656776a7904ae00d6b91d1dd","6568af14f2625ad293c134d1","13","","","","","","","","","","","","4358","[""SV_PolicingMSA/CA_2994/IMG_7_2994.jpg"",""SV_PolicingMSA/CA_2994/IMG_10_2994.jpg"",""SV_PolicingMSA/CA_2994/IMG_1_2994.jpg"",""SV_PolicingMSA/CA_2994/IMG_11_2994.jpg"",""SV_PolicingMSA/CA_2994/IMG_0_2994.jpg"",""SV_PolicingMSA/CA_2994/IMG_12_2994.jpg"",""SV_PolicingMSA/CA_2994/IMG_9_2994.jpg"",""SV_PolicingMSA/CA_2994/IMG_14_2994.jpg""]","1","","","","","","1","","4","[""./rc_img/cop_condGroup_4_SafeStreets_autoscaled.png"",""./rc_img/cop_condGroup_4_CommunitySafety_autoscaled.png""]","7","",""
"sliderTrial","html-slider-response","58","641754","0.0-58.0","","656776a7904ae00d6b91d1dd","6568af14f2625ad293c134d1","13","","","","","","","","","","","","4872","[""SV_PolicingMSA/CA_2994/IMG_7_2994.jpg"",""SV_PolicingMSA/CA_2994/IMG_10_2994.jpg"",""SV_PolicingMSA/CA_2994/IMG_1_2994.jpg"",""SV_PolicingMSA/CA_2994/IMG_11_2994.jpg"",""SV_PolicingMSA/CA_2994/IMG_0_2994.jpg"",""SV_PolicingMSA/CA_2994/IMG_12_2994.jpg"",""SV_PolicingMSA/CA_2994/IMG_9_2994.jpg"",""SV_PolicingMSA/CA_2994/IMG_14_2994.jpg""]","7","","","","","","1","","4","[""./rc_img/cop_condGroup_7_CommunitySafety_autoscaled.png"",""./rc_img/cop_condGroup_7_SafeStreets_autoscaled.png""]","7","",""
"before_SVSlide_prompt","html-button-response","59","644139","0.0-59.0","","656776a7904ae00d6b91d1dd","6568af14f2625ad293c134d1","13","","","","","","","","","","","","2375","Click [Next] to see the next neighborhood!","0","","","","","","","","","","","",""
"street view slide show","image-button-response","60","645173","0.0-60.0","","656776a7904ae00d6b91d1dd","6568af14f2625ad293c134d1","13","","","","","","","","","","","","null","stimulus/SV_PolicingMSA/CA_3476/IMG_12_3476.jpg","null","","","","","","2","","","","","",""
"street view slide show","image-button-response","61","646188","0.0-61.0","","656776a7904ae00d6b91d1dd","6568af14f2625ad293c134d1","13","","","","","","","","","","","","null","stimulus/SV_PolicingMSA/CA_3476/IMG_2_3476.jpg","null","","","","","","2","","","","","",""
"street view slide show","image-button-response","62","647211","0.0-62.0","","656776a7904ae00d6b91d1dd","6568af14f2625ad293c134d1","13","","","","","","","","","","","","null","stimulus/SV_PolicingMSA/CA_3476/IMG_7_3476.jpg","null","","","","","","2","","","","","",""
"street view slide show","image-button-response","63","648235","0.0-63.0","","656776a7904ae00d6b91d1dd","6568af14f2625ad293c134d1","13","","","","","","","","","","","","null","stimulus/SV_PolicingMSA/CA_3476/IMG_14_3476.jpg","null","","","","","","2","","","","","",""
"street view slide show","image-button-response","64","649263","0.0-64.0","","656776a7904ae00d6b91d1dd","6568af14f2625ad293c134d1","13","","","","","","","","","","","","null","stimulus/SV_PolicingMSA/CA_3476/IMG_1_3476.jpg","null","","","","","","2","","","","","",""
"street view slide show","image-button-response","65","650292","0.0-65.0","","656776a7904ae00d6b91d1dd","6568af14f2625ad293c134d1","13","","","","","","","","","","","","null","stimulus/SV_PolicingMSA/CA_3476/IMG_8_3476.jpg","null","","","","","","2","","","","","",""
"street view slide show","image-button-response","66","651309","0.0-66.0","","656776a7904ae00d6b91d1dd","6568af14f2625ad293c134d1","13","","","","","","","","","","","","null","stimulus/SV_PolicingMSA/CA_3476/IMG_10_3476.jpg","null","","","","","","2","","","","","",""
"street view slide show","image-button-response","67","652332","0.0-67.0","","656776a7904ae00d6b91d1dd","6568af14f2625ad293c134d1","13","","","","","","","","","","","","null","stimulus/SV_PolicingMSA/CA_3476/IMG_3_3476.jpg","null","","","","","","2","","","","","",""
"dot matrix survey1","survey","68","679895","0.0-68.0","","656776a7904ae00d6b91d1dd","6568af14f2625ad293c134d1","13","","","","","","","","","","","","27510","","{""P0_Q0"":null,""P0_Q1"":{""wealthy"":2,""safe"":2,""walkable"":3,""traditional"":4,""diverse"":2}}","","","","","","2","[]","","","","",""
"dot matrix survey2","survey","69","716814","0.0-69.0","","656776a7904ae00d6b91d1dd","6568af14f2625ad293c134d1","13","","","","","","","","","","","","36843","","{""P0_Q0"":null,""P0_Q1"":{""violence"":2,""crime"":2,""drug"":2,""schools"":2,""opportunities"":2}}","","","","","","2","[]","","","","",""
"dot matrix survey3","survey","70","744120","0.0-70.0","","656776a7904ae00d6b91d1dd","6568af14f2625ad293c134d1","13","","","","","","","","","","","","27255","","{""P0_Q0"":null,""P0_Q1"":{""movein"":1,""moveout"":3,""shopping"":3,""walk"":1,""park"":1,""school"":1}}","","","","","","2","[]","","","","",""
"sliderTrial","html-slider-response","71","751159","0.0-71.0","","656776a7904ae00d6b91d1dd","6568af14f2625ad293c134d1","13","","","","","","","","","","","","7030","[""SV_PolicingMSA/CA_3476/IMG_12_3476.jpg"",""SV_PolicingMSA/CA_3476/IMG_2_3476.jpg"",""SV_PolicingMSA/CA_3476/IMG_7_3476.jpg"",""SV_PolicingMSA/CA_3476/IMG_14_3476.jpg"",""SV_PolicingMSA/CA_3476/IMG_1_3476.jpg"",""SV_PolicingMSA/CA_3476/IMG_8_3476.jpg"",""SV_PolicingMSA/CA_3476/IMG_10_3476.jpg"",""SV_PolicingMSA/CA_3476/IMG_3_3476.jpg""]","7","","","","","","2","","4","[""./rc_img/cop_condGroup_2_CommunitySafety_autoscaled.png"",""./rc_img/cop_condGroup_2_SafeStreets_autoscaled.png""]","7","",""
"sliderTrial","html-slider-response","72","755737","0.0-72.0","","656776a7904ae00d6b91d1dd","6568af14f2625ad293c134d1","13","","","","","","","","","","","","4564","[""SV_PolicingMSA/CA_3476/IMG_12_3476.jpg"",""SV_PolicingMSA/CA_3476/IMG_2_3476.jpg"",""SV_PolicingMSA/CA_3476/IMG_7_3476.jpg"",""SV_PolicingMSA/CA_3476/IMG_14_3476.jpg"",""SV_PolicingMSA/CA_3476/IMG_1_3476.jpg"",""SV_PolicingMSA/CA_3476/IMG_8_3476.jpg"",""SV_PolicingMSA/CA_3476/IMG_10_3476.jpg"",""SV_PolicingMSA/CA_3476/IMG_3_3476.jpg""]","1","","","","","","2","","4","[""./rc_img/cop_condGroup_1_SafeStreets_autoscaled.png"",""./rc_img/cop_condGroup_1_CommunitySafety_autoscaled.png""]","7","",""
"sliderTrial","html-slider-response","73","762103","0.0-73.0","","656776a7904ae00d6b91d1dd","6568af14f2625ad293c134d1","13","","","","","","","","","","","","6358","[""SV_PolicingMSA/CA_3476/IMG_12_3476.jpg"",""SV_PolicingMSA/CA_3476/IMG_2_3476.jpg"",""SV_PolicingMSA/CA_3476/IMG_7_3476.jpg"",""SV_PolicingMSA/CA_3476/IMG_14_3476.jpg"",""SV_PolicingMSA/CA_3476/IMG_1_3476.jpg"",""SV_PolicingMSA/CA_3476/IMG_8_3476.jpg"",""SV_PolicingMSA/CA_3476/IMG_10_3476.jpg"",""SV_PolicingMSA/CA_3476/IMG_3_3476.jpg""]","7","","","","","","2","","4","[""./rc_img/cop_condGroup_5_SafeStreets_autoscaled.png"",""./rc_img/cop_condGroup_5_CommunitySafety_autoscaled.png""]","1","",""
"sliderTrial","html-slider-response","74","766684","0.0-74.0","","656776a7904ae00d6b91d1dd","6568af14f2625ad293c134d1","13","","","","","","","","","","","","4569","[""SV_PolicingMSA/CA_3476/IMG_12_3476.jpg"",""SV_PolicingMSA/CA_3476/IMG_2_3476.jpg"",""SV_PolicingMSA/CA_3476/IMG_7_3476.jpg"",""SV_PolicingMSA/CA_3476/IMG_14_3476.jpg"",""SV_PolicingMSA/CA_3476/IMG_1_3476.jpg"",""SV_PolicingMSA/CA_3476/IMG_8_3476.jpg"",""SV_PolicingMSA/CA_3476/IMG_10_3476.jpg"",""SV_PolicingMSA/CA_3476/IMG_3_3476.jpg""]","1","","","","","","2","","4","[""./rc_img/cop_condGroup_3_SafeStreets_autoscaled.png"",""./rc_img/cop_condGroup_3_CommunitySafety_autoscaled.png""]","7","",""
"sliderTrial","html-slider-response","75","771118","0.0-75.0","","656776a7904ae00d6b91d1dd","6568af14f2625ad293c134d1","13","","","","","","","","","","","","4423","[""SV_PolicingMSA/CA_3476/IMG_12_3476.jpg"",""SV_PolicingMSA/CA_3476/IMG_2_3476.jpg"",""SV_PolicingMSA/CA_3476/IMG_7_3476.jpg"",""SV_PolicingMSA/CA_3476/IMG_14_3476.jpg"",""SV_PolicingMSA/CA_3476/IMG_1_3476.jpg"",""SV_PolicingMSA/CA_3476/IMG_8_3476.jpg"",""SV_PolicingMSA/CA_3476/IMG_10_3476.jpg"",""SV_PolicingMSA/CA_3476/IMG_3_3476.jpg""]","7","","","","","","2","","4","[""./rc_img/cop_condGroup_6_CommunitySafety_autoscaled.png"",""./rc_img/cop_condGroup_6_SafeStreets_autoscaled.png""]","7","",""
"half-way","html-button-response","76","786885","0.0-76.0","","656776a7904ae00d6b91d1dd","6568af14f2625ad293c134d1","13","","","","","","","","","","","","null","
    <h3>You are now half way through the study.</h3>
    <p>Please take a quick, 15-second break before you continue.</p>
    <img src='assets/img/countdown-15.gif'>
    <p>The study will automatically advance forward after the countdown is complete. <br> However, you may click ""Next"" to advance forward now if you wish.</p>
    ","null","","","","","","","","","","","",""
"before_SVSlide_prompt","html-button-response","77","789472","0.0-77.0","","656776a7904ae00d6b91d1dd","6568af14f2625ad293c134d1","13","","","","","","","","","","","","2585","Click [Next] to see the next neighborhood!","0","","","","","","","","","","","",""
"street view slide show","image-button-response","78","790490","0.0-78.0","","656776a7904ae00d6b91d1dd","6568af14f2625ad293c134d1","13","","","","","","","","","","","","null","stimulus/SV_PolicingMSA/CA_3402/IMG_4_3402.jpg","null","","","","","","3","","","","","",""
"street view slide show","image-button-response","79","791506","0.0-79.0","","656776a7904ae00d6b91d1dd","6568af14f2625ad293c134d1","13","","","","","","","","","","","","null","stimulus/SV_PolicingMSA/CA_3402/IMG_1_3402.jpg","null","","","","","","3","","","","","",""
"street view slide show","image-button-response","80","792539","0.0-80.0","","656776a7904ae00d6b91d1dd","6568af14f2625ad293c134d1","13","","","","","","","","","","","","null","stimulus/SV_PolicingMSA/CA_3402/IMG_5_3402.jpg","null","","","","","","3","","","","","",""
"street view slide show","image-button-response","81","793572","0.0-81.0","","656776a7904ae00d6b91d1dd","6568af14f2625ad293c134d1","13","","","","","","","","","","","","null","stimulus/SV_PolicingMSA/CA_3402/IMG_0_3402.jpg","null","","","","","","3","","","","","",""
"street view slide show","image-button-response","82","794596","0.0-82.0","","656776a7904ae00d6b91d1dd","6568af14f2625ad293c134d1","13","","","","","","","","","","","","null","stimulus/SV_PolicingMSA/CA_3402/IMG_14_3402.jpg","null","","","","","","3","","","","","",""
"street view slide show","image-button-response","83","795627","0.0-83.0","","656776a7904ae00d6b91d1dd","6568af14f2625ad293c134d1","13","","","","","","","","","","","","null","stimulus/SV_PolicingMSA/CA_3402/IMG_7_3402.jpg","null","","","","","","3","","","","","",""
"street view slide show","image-button-response","84","796654","0.0-84.0","","656776a7904ae00d6b91d1dd","6568af14f2625ad293c134d1","13","","","","","","","","","","","","null","stimulus/SV_PolicingMSA/CA_3402/IMG_12_3402.jpg","null","","","","","","3","","","","","",""
"street view slide show","image-button-response","85","797670","0.0-85.0","","656776a7904ae00d6b91d1dd","6568af14f2625ad293c134d1","13","","","","","","","","","","","","null","stimulus/SV_PolicingMSA/CA_3402/IMG_10_3402.jpg","null","","","","","","3","","","","","",""
"dot matrix survey1","survey","86","827179","0.0-86.0","","656776a7904ae00d6b91d1dd","6568af14f2625ad293c134d1","13","","","","","","","","","","","","29364","","{""P0_Q0"":null,""P0_Q1"":{""wealthy"":2,""safe"":2,""walkable"":3,""traditional"":4,""diverse"":2}}","","","","","","3","[]","","","","",""
"dot matrix survey2","survey","87","846871","0.0-87.0","","656776a7904ae00d6b91d1dd","6568af14f2625ad293c134d1","13","","","","","","","","","","","","19627","","{""P0_Q0"":null,""P0_Q1"":{""violence"":1,""crime"":1,""drug"":1,""schools"":2,""opportunities"":2}}","","","","","","3","[]","","","","",""
"dot matrix survey3","survey","88","875368","0.0-88.0","","656776a7904ae00d6b91d1dd","6568af14f2625ad293c134d1","13","","","","","","","","","","","","28440","","{""P0_Q0"":null,""P0_Q1"":{""movein"":3,""moveout"":2,""shopping"":3,""walk"":2,""park"":2,""school"":2}}","","","","","","3","[]","","","","",""
"sliderTrial","html-slider-response","89","880293","0.0-89.0","","656776a7904ae00d6b91d1dd","6568af14f2625ad293c134d1","13","","","","","","","","","","","","4910","[""SV_PolicingMSA/CA_3402/IMG_4_3402.jpg"",""SV_PolicingMSA/CA_3402/IMG_1_3402.jpg"",""SV_PolicingMSA/CA_3402/IMG_5_3402.jpg"",""SV_PolicingMSA/CA_3402/IMG_0_3402.jpg"",""SV_PolicingMSA/CA_3402/IMG_14_3402.jpg"",""SV_PolicingMSA/CA_3402/IMG_7_3402.jpg"",""SV_PolicingMSA/CA_3402/IMG_12_3402.jpg"",""SV_PolicingMSA/CA_3402/IMG_10_3402.jpg""]","7","","","","","","3","","4","[""./rc_img/cop_condGroup_8_CommunitySafety_autoscaled.png"",""./rc_img/cop_condGroup_8_SafeStreets_autoscaled.png""]","7","",""
"sliderTrial","html-slider-response","90","887774","0.0-90.0","","656776a7904ae00d6b91d1dd","6568af14f2625ad293c134d1","13","","","","","","","","","","","","7471","[""SV_PolicingMSA/CA_3402/IMG_4_3402.jpg"",""SV_PolicingMSA/CA_3402/IMG_1_3402.jpg"",""SV_PolicingMSA/CA_3402/IMG_5_3402.jpg"",""SV_PolicingMSA/CA_3402/IMG_0_3402.jpg"",""SV_PolicingMSA/CA_3402/IMG_14_3402.jpg"",""SV_PolicingMSA/CA_3402/IMG_7_3402.jpg"",""SV_PolicingMSA/CA_3402/IMG_12_3402.jpg"",""SV_PolicingMSA/CA_3402/IMG_10_3402.jpg""]","1","","","","","","3","","4","[""./rc_img/cop_condGroup_9_SafeStreets_autoscaled.png"",""./rc_img/cop_condGroup_9_CommunitySafety_autoscaled.png""]","7","",""
"sliderTrial","html-slider-response","91","893024","0.0-91.0","","656776a7904ae00d6b91d1dd","6568af14f2625ad293c134d1","13","","","","","","","","","","","","5234","[""SV_PolicingMSA/CA_3402/IMG_4_3402.jpg"",""SV_PolicingMSA/CA_3402/IMG_1_3402.jpg"",""SV_PolicingMSA/CA_3402/IMG_5_3402.jpg"",""SV_PolicingMSA/CA_3402/IMG_0_3402.jpg"",""SV_PolicingMSA/CA_3402/IMG_14_3402.jpg"",""SV_PolicingMSA/CA_3402/IMG_7_3402.jpg"",""SV_PolicingMSA/CA_3402/IMG_12_3402.jpg"",""SV_PolicingMSA/CA_3402/IMG_10_3402.jpg""]","1","","","","","","3","","4","[""./rc_img/cop_condGroup_10_SafeStreets_autoscaled.png"",""./rc_img/cop_condGroup_10_CommunitySafety_autoscaled.png""]","7","",""
"sliderTrial","html-slider-response","92","898456","0.0-92.0","","656776a7904ae00d6b91d1dd","6568af14f2625ad293c134d1","13","","","","","","","","","","","","5421","[""SV_PolicingMSA/CA_3402/IMG_4_3402.jpg"",""SV_PolicingMSA/CA_3402/IMG_1_3402.jpg"",""SV_PolicingMSA/CA_3402/IMG_5_3402.jpg"",""SV_PolicingMSA/CA_3402/IMG_0_3402.jpg"",""SV_PolicingMSA/CA_3402/IMG_14_3402.jpg"",""SV_PolicingMSA/CA_3402/IMG_7_3402.jpg"",""SV_PolicingMSA/CA_3402/IMG_12_3402.jpg"",""SV_PolicingMSA/CA_3402/IMG_10_3402.jpg""]","1","","","","","","3","","4","[""./rc_img/cop_condGroup_4_SafeStreets_autoscaled.png"",""./rc_img/cop_condGroup_4_CommunitySafety_autoscaled.png""]","7","",""
"sliderTrial","html-slider-response","93","903038","0.0-93.0","","656776a7904ae00d6b91d1dd","6568af14f2625ad293c134d1","13","","","","","","","","","","","","4571","[""SV_PolicingMSA/CA_3402/IMG_4_3402.jpg"",""SV_PolicingMSA/CA_3402/IMG_1_3402.jpg"",""SV_PolicingMSA/CA_3402/IMG_5_3402.jpg"",""SV_PolicingMSA/CA_3402/IMG_0_3402.jpg"",""SV_PolicingMSA/CA_3402/IMG_14_3402.jpg"",""SV_PolicingMSA/CA_3402/IMG_7_3402.jpg"",""SV_PolicingMSA/CA_3402/IMG_12_3402.jpg"",""SV_PolicingMSA/CA_3402/IMG_10_3402.jpg""]","7","","","","","","3","","4","[""./rc_img/cop_condGroup_7_CommunitySafety_autoscaled.png"",""./rc_img/cop_condGroup_7_SafeStreets_autoscaled.png""]","7","",""
"before_SVSlide_prompt","html-button-response","94","905481","0.0-94.0","","656776a7904ae00d6b91d1dd","6568af14f2625ad293c134d1","13","","","","","","","","","","","","2437","Click [Next] to see the next neighborhood!","0","","","","","","","","","","","",""
"street view slide show","image-button-response","95","906516","0.0-95.0","","656776a7904ae00d6b91d1dd","6568af14f2625ad293c134d1","13","","","","","","","","","","","","null","stimulus/SV_PolicingMSA/CA_5476/IMG_3_5476.jpg","null","","","","","","5","","","","","",""
"street view slide show","image-button-response","96","907548","0.0-96.0","","656776a7904ae00d6b91d1dd","6568af14f2625ad293c134d1","13","","","","","","","","","","","","null","stimulus/SV_PolicingMSA/CA_5476/IMG_0_5476.jpg","null","","","","","","5","","","","","",""
"street view slide show","image-button-response","97","908569","0.0-97.0","","656776a7904ae00d6b91d1dd","6568af14f2625ad293c134d1","13","","","","","","","","","","","","null","stimulus/SV_PolicingMSA/CA_5476/IMG_9_5476.jpg","null","","","","","","5","","","","","",""
"street view slide show","image-button-response","98","909596","0.0-98.0","","656776a7904ae00d6b91d1dd","6568af14f2625ad293c134d1","13","","","","","","","","","","","","null","stimulus/SV_PolicingMSA/CA_5476/IMG_7_5476.jpg","null","","","","","","5","","","","","",""
"street view slide show","image-button-response","99","910610","0.0-99.0","","656776a7904ae00d6b91d1dd","6568af14f2625ad293c134d1","13","","","","","","","","","","","","null","stimulus/SV_PolicingMSA/CA_5476/IMG_11_5476.jpg","null","","","","","","5","","","","","",""
"street view slide show","image-button-response","100","911640","0.0-100.0","","656776a7904ae00d6b91d1dd","6568af14f2625ad293c134d1","13","","","","","","","","","","","","null","stimulus/SV_PolicingMSA/CA_5476/IMG_8_5476.jpg","null","","","","","","5","","","","","",""
"street view slide show","image-button-response","101","912670","0.0-101.0","","656776a7904ae00d6b91d1dd","6568af14f2625ad293c134d1","13","","","","","","","","","","","","null","stimulus/SV_PolicingMSA/CA_5476/IMG_14_5476.jpg","null","","","","","","5","","","","","",""
"street view slide show","image-button-response","102","913689","0.0-102.0","","656776a7904ae00d6b91d1dd","6568af14f2625ad293c134d1","13","","","","","","","","","","","","null","stimulus/SV_PolicingMSA/CA_5476/IMG_6_5476.jpg","null","","","","","","5","","","","","",""
"dot matrix survey1","survey","103","935640","0.0-103.0","","656776a7904ae00d6b91d1dd","6568af14f2625ad293c134d1","13","","","","","","","","","","","","21850","","{""P0_Q0"":null,""P0_Q1"":{""wealthy"":3,""safe"":3,""walkable"":3,""traditional"":4,""diverse"":2}}","","","","","","5","[]","","","","",""
"dot matrix survey2","survey","104","950165","0.0-104.0","","656776a7904ae00d6b91d1dd","6568af14f2625ad293c134d1","13","","","","","","","","","","","","14422","","{""P0_Q0"":null,""P0_Q1"":{""violence"":1,""crime"":1,""drug"":1,""schools"":3,""opportunities"":3}}","","","","","","5","[]","","","","",""
"dot matrix survey3","survey","105","969978","0.0-105.0","","656776a7904ae00d6b91d1dd","6568af14f2625ad293c134d1","13","","","","","","","","","","","","19751","","{""P0_Q0"":null,""P0_Q1"":{""movein"":3,""moveout"":1,""shopping"":3,""walk"":3,""park"":3,""school"":4}}","","","","","","5","[]","","","","",""
"sliderTrial","html-slider-response","106","1032522","0.0-106.0","","656776a7904ae00d6b91d1dd","6568af14f2625ad293c134d1","13","","","","","","","","","","","","62531","[""SV_PolicingMSA/CA_5476/IMG_3_5476.jpg"",""SV_PolicingMSA/CA_5476/IMG_0_5476.jpg"",""SV_PolicingMSA/CA_5476/IMG_9_5476.jpg"",""SV_PolicingMSA/CA_5476/IMG_7_5476.jpg"",""SV_PolicingMSA/CA_5476/IMG_11_5476.jpg"",""SV_PolicingMSA/CA_5476/IMG_8_5476.jpg"",""SV_PolicingMSA/CA_5476/IMG_14_5476.jpg"",""SV_PolicingMSA/CA_5476/IMG_6_5476.jpg""]","7","","","","","","5","","4","[""./rc_img/cop_condGroup_20_CommunitySafety_autoscaled.png"",""./rc_img/cop_condGroup_20_SafeStreets_autoscaled.png""]","7","",""
"sliderTrial","html-slider-response","107","1037415","0.0-107.0","","656776a7904ae00d6b91d1dd","6568af14f2625ad293c134d1","13","","","","","","","","","","","","4879","[""SV_PolicingMSA/CA_5476/IMG_3_5476.jpg"",""SV_PolicingMSA/CA_5476/IMG_0_5476.jpg"",""SV_PolicingMSA/CA_5476/IMG_9_5476.jpg"",""SV_PolicingMSA/CA_5476/IMG_7_5476.jpg"",""SV_PolicingMSA/CA_5476/IMG_11_5476.jpg"",""SV_PolicingMSA/CA_5476/IMG_8_5476.jpg"",""SV_PolicingMSA/CA_5476/IMG_14_5476.jpg"",""SV_PolicingMSA/CA_5476/IMG_6_5476.jpg""]","1","","","","","","5","","4","[""./rc_img/cop_condGroup_17_CommunitySafety_autoscaled.png"",""./rc_img/cop_condGroup_17_SafeStreets_autoscaled.png""]","1","",""
"sliderTrial","html-slider-response","108","1042790","0.0-108.0","","656776a7904ae00d6b91d1dd","6568af14f2625ad293c134d1","13","","","","","","","","","","","","5361","[""SV_PolicingMSA/CA_5476/IMG_3_5476.jpg"",""SV_PolicingMSA/CA_5476/IMG_0_5476.jpg"",""SV_PolicingMSA/CA_5476/IMG_9_5476.jpg"",""SV_PolicingMSA/CA_5476/IMG_7_5476.jpg"",""SV_PolicingMSA/CA_5476/IMG_11_5476.jpg"",""SV_PolicingMSA/CA_5476/IMG_8_5476.jpg"",""SV_PolicingMSA/CA_5476/IMG_14_5476.jpg"",""SV_PolicingMSA/CA_5476/IMG_6_5476.jpg""]","7","","","","","","5","","4","[""./rc_img/cop_condGroup_16_SafeStreets_autoscaled.png"",""./rc_img/cop_condGroup_16_CommunitySafety_autoscaled.png""]","1","",""
"sliderTrial","html-slider-response","109","1048191","0.0-109.0","","656776a7904ae00d6b91d1dd","6568af14f2625ad293c134d1","13","","","","","","","","","","","","5386","[""SV_PolicingMSA/CA_5476/IMG_3_5476.jpg"",""SV_PolicingMSA/CA_5476/IMG_0_5476.jpg"",""SV_PolicingMSA/CA_5476/IMG_9_5476.jpg"",""SV_PolicingMSA/CA_5476/IMG_7_5476.jpg"",""SV_PolicingMSA/CA_5476/IMG_11_5476.jpg"",""SV_PolicingMSA/CA_5476/IMG_8_5476.jpg"",""SV_PolicingMSA/CA_5476/IMG_14_5476.jpg"",""SV_PolicingMSA/CA_5476/IMG_6_5476.jpg""]","7","","","","","","5","","4","[""./rc_img/cop_condGroup_19_CommunitySafety_autoscaled.png"",""./rc_img/cop_condGroup_19_SafeStreets_autoscaled.png""]","7","",""
"sliderTrial","html-slider-response","110","1052659","0.0-110.0","","656776a7904ae00d6b91d1dd","6568af14f2625ad293c134d1","13","","","","","","","","","","","","4452","[""SV_PolicingMSA/CA_5476/IMG_3_5476.jpg"",""SV_PolicingMSA/CA_5476/IMG_0_5476.jpg"",""SV_PolicingMSA/CA_5476/IMG_9_5476.jpg"",""SV_PolicingMSA/CA_5476/IMG_7_5476.jpg"",""SV_PolicingMSA/CA_5476/IMG_11_5476.jpg"",""SV_PolicingMSA/CA_5476/IMG_8_5476.jpg"",""SV_PolicingMSA/CA_5476/IMG_14_5476.jpg"",""SV_PolicingMSA/CA_5476/IMG_6_5476.jpg""]","7","","","","","","5","","4","[""./rc_img/cop_condGroup_18_CommunitySafety_autoscaled.png"",""./rc_img/cop_condGroup_18_SafeStreets_autoscaled.png""]","7","",""
"before_SVSlide_prompt","html-button-response","111","1054866","0.0-111.0","","656776a7904ae00d6b91d1dd","6568af14f2625ad293c134d1","13","","","","","","","","","","","","2193","Click [Next] to see the next neighborhood!","0","","","","","","","","","","","",""
"street view slide show","image-button-response","112","1055897","0.0-112.0","","656776a7904ae00d6b91d1dd","6568af14f2625ad293c134d1","13","","","","","","","","","","","","null","stimulus/SV_PolicingMSA/CA_5734/IMG_13_5734.jpg","null","","","","","","4","","","","","",""
"street view slide show","image-button-response","113","1056941","0.0-113.0","","656776a7904ae00d6b91d1dd","6568af14f2625ad293c134d1","13","","","","","","","","","","","","null","stimulus/SV_PolicingMSA/CA_5734/IMG_4_5734.jpg","null","","","","","","4","","","","","",""
"street view slide show","image-button-response","114","1057960","0.0-114.0","","656776a7904ae00d6b91d1dd","6568af14f2625ad293c134d1","13","","","","","","","","","","","","null","stimulus/SV_PolicingMSA/CA_5734/IMG_1_5734.jpg","null","","","","","","4","","","","","",""
"street view slide show","image-button-response","115","1058979","0.0-115.0","","656776a7904ae00d6b91d1dd","6568af14f2625ad293c134d1","13","","","","","","","","","","","","null","stimulus/SV_PolicingMSA/CA_5734/IMG_7_5734.jpg","null","","","","","","4","","","","","",""
"street view slide show","image-button-response","116","1060005","0.0-116.0","","656776a7904ae00d6b91d1dd","6568af14f2625ad293c134d1","13","","","","","","","","","","","","null","stimulus/SV_PolicingMSA/CA_5734/IMG_12_5734.jpg","null","","","","","","4","","","","","",""
"street view slide show","image-button-response","117","1061044","0.0-117.0","","656776a7904ae00d6b91d1dd","6568af14f2625ad293c134d1","13","","","","","","","","","","","","null","stimulus/SV_PolicingMSA/CA_5734/IMG_6_5734.jpg","null","","","","","","4","","","","","",""
"street view slide show","image-button-response","118","1062070","0.0-118.0","","656776a7904ae00d6b91d1dd","6568af14f2625ad293c134d1","13","","","","","","","","","","","","null","stimulus/SV_PolicingMSA/CA_5734/IMG_14_5734.jpg","null","","","","","","4","","","","","",""
"street view slide show","image-button-response","119","1063096","0.0-119.0","","656776a7904ae00d6b91d1dd","6568af14f2625ad293c134d1","13","","","","","","","","","","","","null","stimulus/SV_PolicingMSA/CA_5734/IMG_5_5734.jpg","null","","","","","","4","","","","","",""
"dot matrix survey1","survey","120","1080298","0.0-120.0","","656776a7904ae00d6b91d1dd","6568af14f2625ad293c134d1","13","","","","","","","","","","","","17043","","{""P0_Q0"":null,""P0_Q1"":{""wealthy"":2,""safe"":2,""walkable"":3,""traditional"":3,""diverse"":2}}","","","","","","4","[]","","","","",""
"dot matrix survey2","survey","121","1107929","0.0-121.0","","656776a7904ae00d6b91d1dd","6568af14f2625ad293c134d1","13","","","","","","","","","","","","27562","","{""P0_Q0"":null,""P0_Q1"":{""violence"":1,""crime"":1,""drug"":1,""schools"":3,""opportunities"":3}}","","","","","","4","[]","","","","",""
"dot matrix survey3","survey","122","1131127","0.0-122.0","","656776a7904ae00d6b91d1dd","6568af14f2625ad293c134d1","13","","","","","","","","","","","","23141","","{""P0_Q0"":null,""P0_Q1"":{""movein"":3,""moveout"":1,""shopping"":4,""walk"":3,""school"":3,""park"":3}}","","","","","","4","[]","","","","",""
"sliderTrial","html-slider-response","123","1135824","0.0-123.0","","656776a7904ae00d6b91d1dd","6568af14f2625ad293c134d1","13","","","","","","","","","","","","4685","[""SV_PolicingMSA/CA_5734/IMG_13_5734.jpg"",""SV_PolicingMSA/CA_5734/IMG_4_5734.jpg"",""SV_PolicingMSA/CA_5734/IMG_1_5734.jpg"",""SV_PolicingMSA/CA_5734/IMG_7_5734.jpg"",""SV_PolicingMSA/CA_5734/IMG_12_5734.jpg"",""SV_PolicingMSA/CA_5734/IMG_6_5734.jpg"",""SV_PolicingMSA/CA_5734/IMG_14_5734.jpg"",""SV_PolicingMSA/CA_5734/IMG_5_5734.jpg""]","7","","","","","","4","","4","[""./rc_img/cop_condGroup_11_CommunitySafety_autoscaled.png"",""./rc_img/cop_condGroup_11_SafeStreets_autoscaled.png""]","7","",""
"sliderTrial","html-slider-response","124","1140070","0.0-124.0","","656776a7904ae00d6b91d1dd","6568af14f2625ad293c134d1","13","","","","","","","","","","","","4235","[""SV_PolicingMSA/CA_5734/IMG_13_5734.jpg"",""SV_PolicingMSA/CA_5734/IMG_4_5734.jpg"",""SV_PolicingMSA/CA_5734/IMG_1_5734.jpg"",""SV_PolicingMSA/CA_5734/IMG_7_5734.jpg"",""SV_PolicingMSA/CA_5734/IMG_12_5734.jpg"",""SV_PolicingMSA/CA_5734/IMG_6_5734.jpg"",""SV_PolicingMSA/CA_5734/IMG_14_5734.jpg"",""SV_PolicingMSA/CA_5734/IMG_5_5734.jpg""]","7","","","","","","4","","4","[""./rc_img/cop_condGroup_12_CommunitySafety_autoscaled.png"",""./rc_img/cop_condGroup_12_SafeStreets_autoscaled.png""]","7","",""
"sliderTrial","html-slider-response","125","1145993","0.0-125.0","","656776a7904ae00d6b91d1dd","6568af14f2625ad293c134d1","13","","","","","","","","","","","","5907","[""SV_PolicingMSA/CA_5734/IMG_13_5734.jpg"",""SV_PolicingMSA/CA_5734/IMG_4_5734.jpg"",""SV_PolicingMSA/CA_5734/IMG_1_5734.jpg"",""SV_PolicingMSA/CA_5734/IMG_7_5734.jpg"",""SV_PolicingMSA/CA_5734/IMG_12_5734.jpg"",""SV_PolicingMSA/CA_5734/IMG_6_5734.jpg"",""SV_PolicingMSA/CA_5734/IMG_14_5734.jpg"",""SV_PolicingMSA/CA_5734/IMG_5_5734.jpg""]","1","","","","","","4","","4","[""./rc_img/cop_condGroup_15_SafeStreets_autoscaled.png"",""./rc_img/cop_condGroup_15_CommunitySafety_autoscaled.png""]","7","",""
"sliderTrial","html-slider-response","126","1150036","0.0-126.0","","656776a7904ae00d6b91d1dd","6568af14f2625ad293c134d1","13","","","","","","","","","","","","4028","[""SV_PolicingMSA/CA_5734/IMG_13_5734.jpg"",""SV_PolicingMSA/CA_5734/IMG_4_5734.jpg"",""SV_PolicingMSA/CA_5734/IMG_1_5734.jpg"",""SV_PolicingMSA/CA_5734/IMG_7_5734.jpg"",""SV_PolicingMSA/CA_5734/IMG_12_5734.jpg"",""SV_PolicingMSA/CA_5734/IMG_6_5734.jpg"",""SV_PolicingMSA/CA_5734/IMG_14_5734.jpg"",""SV_PolicingMSA/CA_5734/IMG_5_5734.jpg""]","7","","","","","","4","","4","[""./rc_img/cop_condGroup_13_CommunitySafety_autoscaled.png"",""./rc_img/cop_condGroup_13_SafeStreets_autoscaled.png""]","7","",""
"sliderTrial","html-slider-response","127","1155196","0.0-127.0","","656776a7904ae00d6b91d1dd","6568af14f2625ad293c134d1","13","","","","","","","","","","","","5148","[""SV_PolicingMSA/CA_5734/IMG_13_5734.jpg"",""SV_PolicingMSA/CA_5734/IMG_4_5734.jpg"",""SV_PolicingMSA/CA_5734/IMG_1_5734.jpg"",""SV_PolicingMSA/CA_5734/IMG_7_5734.jpg"",""SV_PolicingMSA/CA_5734/IMG_12_5734.jpg"",""SV_PolicingMSA/CA_5734/IMG_6_5734.jpg"",""SV_PolicingMSA/CA_5734/IMG_14_5734.jpg"",""SV_PolicingMSA/CA_5734/IMG_5_5734.jpg""]","7","","","","","","4","","4","[""./rc_img/cop_condGroup_14_SafeStreets_autoscaled.png"",""./rc_img/cop_condGroup_14_CommunitySafety_autoscaled.png""]","1","",""
"before_SVSlide_prompt","html-button-response","128","1357053","0.0-128.0","","656776a7904ae00d6b91d1dd","6568af14f2625ad293c134d1","13","","","","","","","","","","","","201848","Click [Next] to see the next neighborhood!","0","","","","","","","","","","","",""
"street view slide show","image-button-response","129","1358089","0.0-129.0","","656776a7904ae00d6b91d1dd","6568af14f2625ad293c134d1","13","","","","","","","","","","","","null","stimulus/SV_PolicingMSA/CA_5812/IMG_7_5812.jpg","null","","","","","","3","","","","","",""
"street view slide show","image-button-response","130","1359114","0.0-130.0","","656776a7904ae00d6b91d1dd","6568af14f2625ad293c134d1","13","","","","","","","","","","","","null","stimulus/SV_PolicingMSA/CA_5812/IMG_2_5812.jpg","null","","","","","","3","","","","","",""
"street view slide show","image-button-response","131","1360147","0.0-131.0","","656776a7904ae00d6b91d1dd","6568af14f2625ad293c134d1","13","","","","","","","","","","","","null","stimulus/SV_PolicingMSA/CA_5812/IMG_1_5812.jpg","null","","","","","","3","","","","","",""
"street view slide show","image-button-response","132","1361173","0.0-132.0","","656776a7904ae00d6b91d1dd","6568af14f2625ad293c134d1","13","","","","","","","","","","","","null","stimulus/SV_PolicingMSA/CA_5812/IMG_4_5812.jpg","null","","","","","","3","","","","","",""
"street view slide show","image-button-response","133","1362199","0.0-133.0","","656776a7904ae00d6b91d1dd","6568af14f2625ad293c134d1","13","","","","","","","","","","","","null","stimulus/SV_PolicingMSA/CA_5812/IMG_5_5812.jpg","null","","","","","","3","","","","","",""
"street view slide show","image-button-response","134","1363242","0.0-134.0","","656776a7904ae00d6b91d1dd","6568af14f2625ad293c134d1","13","","","","","","","","","","","","null","stimulus/SV_PolicingMSA/CA_5812/IMG_9_5812.jpg","null","","","","","","3","","","","","",""
"street view slide show","image-button-response","135","1364270","0.0-135.0","","656776a7904ae00d6b91d1dd","6568af14f2625ad293c134d1","13","","","","","","","","","","","","null","stimulus/SV_PolicingMSA/CA_5812/IMG_14_5812.jpg","null","","","","","","3","","","","","",""
"street view slide show","image-button-response","136","1365301","0.0-136.0","","656776a7904ae00d6b91d1dd","6568af14f2625ad293c134d1","13","","","","","","","","","","","","null","stimulus/SV_PolicingMSA/CA_5812/IMG_11_5812.jpg","null","","","","","","3","","","","","",""
"dot matrix survey1","survey","137","1387232","0.0-137.0","","656776a7904ae00d6b91d1dd","6568af14f2625ad293c134d1","13","","","","","","","","","","","","21880","","{""P0_Q0"":null,""P0_Q1"":{""wealthy"":1,""safe"":2,""walkable"":3,""traditional"":3,""diverse"":2}}","","","","","","3","[]","","","","",""
"dot matrix survey2","survey","138","1400706","0.0-138.0","","656776a7904ae00d6b91d1dd","6568af14f2625ad293c134d1","13","","","","","","","","","","","","13417","","{""P0_Q0"":null,""P0_Q1"":{""violence"":2,""crime"":2,""drug"":2,""schools"":3,""opportunities"":3}}","","","","","","3","[]","","","","",""
"dot matrix survey3","survey","139","1426372","0.0-139.0","","656776a7904ae00d6b91d1dd","6568af14f2625ad293c134d1","13","","","","","","","","","","","","25620","","{""P0_Q0"":null,""P0_Q1"":{""movein"":2,""moveout"":2,""shopping"":3,""walk"":2,""park"":3,""school"":3}}","","","","","","3","[]","","","","",""
"sliderTrial","html-slider-response","140","1430861","0.0-140.0","","656776a7904ae00d6b91d1dd","6568af14f2625ad293c134d1","13","","","","","","","","","","","","4478","[""SV_PolicingMSA/CA_5812/IMG_7_5812.jpg"",""SV_PolicingMSA/CA_5812/IMG_2_5812.jpg"",""SV_PolicingMSA/CA_5812/IMG_1_5812.jpg"",""SV_PolicingMSA/CA_5812/IMG_4_5812.jpg"",""SV_PolicingMSA/CA_5812/IMG_5_5812.jpg"",""SV_PolicingMSA/CA_5812/IMG_9_5812.jpg"",""SV_PolicingMSA/CA_5812/IMG_14_5812.jpg"",""SV_PolicingMSA/CA_5812/IMG_11_5812.jpg""]","7","","","","","","3","","4","[""./rc_img/cop_condGroup_20_CommunitySafety_autoscaled.png"",""./rc_img/cop_condGroup_20_SafeStreets_autoscaled.png""]","7","",""
"sliderTrial","html-slider-response","141","1435535","0.0-141.0","","656776a7904ae00d6b91d1dd","6568af14f2625ad293c134d1","13","","","","","","","","","","","","4660","[""SV_PolicingMSA/CA_5812/IMG_7_5812.jpg"",""SV_PolicingMSA/CA_5812/IMG_2_5812.jpg"",""SV_PolicingMSA/CA_5812/IMG_1_5812.jpg"",""SV_PolicingMSA/CA_5812/IMG_4_5812.jpg"",""SV_PolicingMSA/CA_5812/IMG_5_5812.jpg"",""SV_PolicingMSA/CA_5812/IMG_9_5812.jpg"",""SV_PolicingMSA/CA_5812/IMG_14_5812.jpg"",""SV_PolicingMSA/CA_5812/IMG_11_5812.jpg""]","1","","","","","","3","","4","[""./rc_img/cop_condGroup_17_CommunitySafety_autoscaled.png"",""./rc_img/cop_condGroup_17_SafeStreets_autoscaled.png""]","1","",""
"sliderTrial","html-slider-response","142","1441339","0.0-142.0","","656776a7904ae00d6b91d1dd","6568af14f2625ad293c134d1","13","","","","","","","","","","","","5794","[""SV_PolicingMSA/CA_5812/IMG_7_5812.jpg"",""SV_PolicingMSA/CA_5812/IMG_2_5812.jpg"",""SV_PolicingMSA/CA_5812/IMG_1_5812.jpg"",""SV_PolicingMSA/CA_5812/IMG_4_5812.jpg"",""SV_PolicingMSA/CA_5812/IMG_5_5812.jpg"",""SV_PolicingMSA/CA_5812/IMG_9_5812.jpg"",""SV_PolicingMSA/CA_5812/IMG_14_5812.jpg"",""SV_PolicingMSA/CA_5812/IMG_11_5812.jpg""]","1","","","","","","3","","4","[""./rc_img/cop_condGroup_16_SafeStreets_autoscaled.png"",""./rc_img/cop_condGroup_16_CommunitySafety_autoscaled.png""]","7","",""
"sliderTrial","html-slider-response","143","1446605","0.0-143.0","","656776a7904ae00d6b91d1dd","6568af14f2625ad293c134d1","13","","","","","","","","","","","","5253","[""SV_PolicingMSA/CA_5812/IMG_7_5812.jpg"",""SV_PolicingMSA/CA_5812/IMG_2_5812.jpg"",""SV_PolicingMSA/CA_5812/IMG_1_5812.jpg"",""SV_PolicingMSA/CA_5812/IMG_4_5812.jpg"",""SV_PolicingMSA/CA_5812/IMG_5_5812.jpg"",""SV_PolicingMSA/CA_5812/IMG_9_5812.jpg"",""SV_PolicingMSA/CA_5812/IMG_14_5812.jpg"",""SV_PolicingMSA/CA_5812/IMG_11_5812.jpg""]","7","","","","","","3","","4","[""./rc_img/cop_condGroup_19_CommunitySafety_autoscaled.png"",""./rc_img/cop_condGroup_19_SafeStreets_autoscaled.png""]","7","",""
"sliderTrial","html-slider-response","144","1452489","0.0-144.0","","656776a7904ae00d6b91d1dd","6568af14f2625ad293c134d1","13","","","","","","","","","","","","5870","[""SV_PolicingMSA/CA_5812/IMG_7_5812.jpg"",""SV_PolicingMSA/CA_5812/IMG_2_5812.jpg"",""SV_PolicingMSA/CA_5812/IMG_1_5812.jpg"",""SV_PolicingMSA/CA_5812/IMG_4_5812.jpg"",""SV_PolicingMSA/CA_5812/IMG_5_5812.jpg"",""SV_PolicingMSA/CA_5812/IMG_9_5812.jpg"",""SV_PolicingMSA/CA_5812/IMG_14_5812.jpg"",""SV_PolicingMSA/CA_5812/IMG_11_5812.jpg""]","7","","","","","","3","","4","[""./rc_img/cop_condGroup_18_CommunitySafety_autoscaled.png"",""./rc_img/cop_condGroup_18_SafeStreets_autoscaled.png""]","7","",""
"demographics","survey-html-form","145","1490356","0.0-145.0","","656776a7904ae00d6b91d1dd","6568af14f2625ad293c134d1","13","","","","","","","","","","","","37846","","{""age"":""49"",""sex"":""male"",""gender"":""man"",""gender-self-describe"":"""",""zipcode"":""20147""}","","","","","","","","","","","",""
"demographics-list","survey","146","1527327","0.0-146.0","","656776a7904ae00d6b91d1dd","6568af14f2625ad293c134d1","13","","","","","","","","","","","","36834","","{""P0_Q0"":null,""race-ethnicity"":[""Black or of African ancestry""],""education"":""Bachelor’s degree"",""P1_Q0"":null,""ideology"":""Liberal"",""P2_Q0"":null,""num-moves"":4,""P3_Q0"":null,""social-ladder"":4}","","","","","","","[]","","","","",""
"end-survey","survey-text","147","1534125","0.0-147.0","","656776a7904ae00d6b91d1dd","6568af14f2625ad293c134d1","13","","","","","","","","","","","","6732","","{""Q0"":""n/a""}","","","","","","","","","","","","2"
"end-survey","html-button-response","148","1541833","0.0-148.0","","656776a7904ae00d6b91d1dd","6568af14f2625ad293c134d1","13","","","","","","","","","","","","7697","
    You've reached the end of the survey. <br><br> 
    <b>Do not close or refresh this window.</b><br>
    On the next page, you will be automatically redirected to Prolific. <br><br>

    <div class=""alert alert-warning""><b>
    </div>
","0","","","","","","","","","","","",""
