"task","trial_type","trial_index","time_elapsed","internal_node_id","subject_id","study_id","session_id","section","width","height","webaudio","browser","browser_version","mobile","os","fullscreen","vsync_rate","webcam","microphone","rt","stimulus","response","success","timeout","failed_images","failed_audio","failed_video","block","accuracy","slider_start","choices","standardized_response","correct","num_attention_checks_correct"
"pavlovia-init","pavlovia","0","1156","0.0-0.0","","656776a7904ae00d6b91d1dd","6568a6ddf7b6f86a69cda249","11","","","","","","","","","","","","","","","","","","","","","","","","","",""
"browser-check","browser-check","1","3193","0.0-1.0","","656776a7904ae00d6b91d1dd","6568a6ddf7b6f86a69cda249","11","1401","723","true","safari","16.6.0","false","Mac OS","true","30","true","true","","","","","","","","","","","","","","",""
"consent","html-button-response","2","19877","0.0-2.0","","656776a7904ae00d6b91d1dd","6568a6ddf7b6f86a69cda249","11","","","","","","","","","","","","16682","
        <div style=""font-size: 80%; max-width:700px"">
            <h2>CONSENT FORM</h2>
        
            <div style=""text-align: left"">
            <h4>DESCRIPTION</h4>
            <p>
            You will complete a short task where you give your impressions of various neighborhoods and assign individuals to those spaces, and answer some questions about your thoughts and opinions.<br>
            The University of Michigan Institutional Review Board Health Sciences and Behavioral Sciences has determined that this study is exempt from IRB oversight.
            </p>

            <h4>TIME INVOLVEMENT</h4>
            <p>Your participation will take approximately 15 minutes. You will receive $3.15 upon completion of the study.</p>
        
            <h4>RISKS AND BENEFITS</h4>
            <p>
            The risks associated with this study are minimal. The benefits which may reasonably be expected to result from this study are none. We cannot and do not guarantee or promise that you will receive any benefits from this study.
            </p>
          
            <h4>SUBJECT'S RIGHTS</h4>
            <p>
            If you have read this form and have decided to participate in this project, please understand your participation is voluntary and you have the right to withdraw your consent or discontinue participation at any time without penalty or loss of benefits to which you are otherwise entitled. The alternative is not to participate. You have the right to refuse to answer particular questions. Your individual privacy will be maintained in all published and written data resulting from the study.
            </p>

            <h4>HUMAN SUBJECT APPROVAL</h4>
            <p>
            This study is exempt from ongoing IRB review.
            </p>

            <h4>CONTACT INFORMATION</h4>
            If you have any questions, concerns or complaints about this research, its procedures, risks and benefits, contact the Protocol Director, Nicholas Camp, npcamp@umich.edu, (443) 851-6783. <br>

            If you have questions about your rights as a research participant, or wish to obtain information, ask questions or discuss any concerns about this study with someone other than the researcher(s), please contact the following:<br><br>
            University of Michigan<br>
            Health Sciences and Behavioral Sciences Institutional Review Board (IRB-HSBS)<br>
            2800 Plymouth Road<br>
            Building 520, Room 1169Ann Arbor, MI 48109-2800<br>
            Telephone: 734-936-0933 or toll free (866) 936-0933<br>
            Fax: 734-936-1852<br>
            E-mail: irbhsbs@umich.edu<br><br>

            You can also contact the University of Michigan Compliance Hotline at 1-866-990-0111. You may also print this consent form to keep.
            <br><br>
            <div class=""alert alert-warning""><b>
            Do you consent to participate in this study? If you consent to participate in this study, please click “Accept and Continue”. If you select ""Decline and Exit"", you will be exited from the survey. <br>
            </b></div>
            </div>
        </div>
    ","1","","","","","","","","","","","",""
"","preload","3","23484","0.0-3.0","","656776a7904ae00d6b91d1dd","6568a6ddf7b6f86a69cda249","11","","","","","","","","","","","","","","","true","false","[]","[]","[]","","","","","","",""
"instructions","html-button-response","4","32289","0.0-4.0","","656776a7904ae00d6b91d1dd","6568a6ddf7b6f86a69cda249","11","","","","","","","","","","","","8801","
        <div class=""text-container"">
        <h1>Welcome to the study!</h1>
        
        <div class=""text-left"">
            <p>
                In this study, we are interested in what people can tell about spaces from Google Street View images. <br> Google Street View takes pictures of streets used for Google Earth and Google Maps. <br>You’ll see Google Street View images of different places and answer some questions about each one.<br>
            </p>
        </div>
        <img src = ""assets/img/example.png"" width = 500px, height = auto>
        <br>
    <br>
    ","0","","","","","","","","","","","",""
"instructions","html-button-response","5","34755","0.0-5.0","","656776a7904ae00d6b91d1dd","6568a6ddf7b6f86a69cda249","11","","","","","","","","","","","","2464","
    <div class=""text-container"">
        <div class=""text-center"">
            <p>Please remember that your answers are completely anonymous.<br>Go with your gut response- there are no right or wrong answers!</p>
        </div>
    <br>
","0","","","","","","","","","","","",""
"before_SVSlide_prompt","html-button-response","6","36016","0.0-6.0","","656776a7904ae00d6b91d1dd","6568a6ddf7b6f86a69cda249","11","","","","","","","","","","","","1260","Click [Next] to see the next neighborhood!","0","","","","","","","","","","","",""
"street view slide show","image-button-response","7","37032","0.0-7.0","","656776a7904ae00d6b91d1dd","6568a6ddf7b6f86a69cda249","11","","","","","","","","","","","","null","stimulus/SV_PolicingMSA/NY_2726/IMG_11_2726.jpg","null","","","","","","2","","","","","",""
"street view slide show","image-button-response","8","38047","0.0-8.0","","656776a7904ae00d6b91d1dd","6568a6ddf7b6f86a69cda249","11","","","","","","","","","","","","null","stimulus/SV_PolicingMSA/NY_2726/IMG_14_2726.jpg","null","","","","","","2","","","","","",""
"street view slide show","image-button-response","9","39062","0.0-9.0","","656776a7904ae00d6b91d1dd","6568a6ddf7b6f86a69cda249","11","","","","","","","","","","","","null","stimulus/SV_PolicingMSA/NY_2726/IMG_3_2726.jpg","null","","","","","","2","","","","","",""
"street view slide show","image-button-response","10","40077","0.0-10.0","","656776a7904ae00d6b91d1dd","6568a6ddf7b6f86a69cda249","11","","","","","","","","","","","","null","stimulus/SV_PolicingMSA/NY_2726/IMG_1_2726.jpg","null","","","","","","2","","","","","",""
"street view slide show","image-button-response","11","41092","0.0-11.0","","656776a7904ae00d6b91d1dd","6568a6ddf7b6f86a69cda249","11","","","","","","","","","","","","null","stimulus/SV_PolicingMSA/NY_2726/IMG_10_2726.jpg","null","","","","","","2","","","","","",""
"street view slide show","image-button-response","12","42107","0.0-12.0","","656776a7904ae00d6b91d1dd","6568a6ddf7b6f86a69cda249","11","","","","","","","","","","","","null","stimulus/SV_PolicingMSA/NY_2726/IMG_12_2726.jpg","null","","","","","","2","","","","","",""
"street view slide show","image-button-response","13","43123","0.0-13.0","","656776a7904ae00d6b91d1dd","6568a6ddf7b6f86a69cda249","11","","","","","","","","","","","","null","stimulus/SV_PolicingMSA/NY_2726/IMG_7_2726.jpg","null","","","","","","2","","","","","",""
"street view slide show","image-button-response","14","44133","0.0-14.0","","656776a7904ae00d6b91d1dd","6568a6ddf7b6f86a69cda249","11","","","","","","","","","","","","null","stimulus/SV_PolicingMSA/NY_2726/IMG_2_2726.jpg","null","","","","","","2","","","","","",""
"dot matrix survey1","survey","15","63873","0.0-15.0","","656776a7904ae00d6b91d1dd","6568a6ddf7b6f86a69cda249","11","","","","","","","","","","","","19649","","{""P0_Q0"":null,""P0_Q1"":{""wealthy"":1,""safe"":1,""walkable"":3,""diverse"":2,""traditional"":2}}","","","","","","2","[]","","","","",""
"dot matrix survey2","survey","16","77488","0.0-16.0","","656776a7904ae00d6b91d1dd","6568a6ddf7b6f86a69cda249","11","","","","","","","","","","","","13592","","{""P0_Q0"":null,""P0_Q1"":{""violence"":3,""crime"":3,""drug"":3,""schools"":1,""opportunities"":1}}","","","","","","2","[]","","","","",""
"dot matrix survey3","survey","17","91668","0.0-17.0","","656776a7904ae00d6b91d1dd","6568a6ddf7b6f86a69cda249","11","","","","","","","","","","","","14164","","{""P0_Q0"":null,""P0_Q1"":{""movein"":1,""moveout"":2,""shopping"":1,""walk"":1,""park"":1,""school"":1}}","","","","","","2","[]","","","","",""
"sliderTrial","html-slider-response","18","101118","0.0-18.0","","656776a7904ae00d6b91d1dd","6568a6ddf7b6f86a69cda249","11","","","","","","","","","","","","9446","[""SV_PolicingMSA/NY_2726/IMG_11_2726.jpg"",""SV_PolicingMSA/NY_2726/IMG_14_2726.jpg"",""SV_PolicingMSA/NY_2726/IMG_3_2726.jpg"",""SV_PolicingMSA/NY_2726/IMG_1_2726.jpg"",""SV_PolicingMSA/NY_2726/IMG_10_2726.jpg"",""SV_PolicingMSA/NY_2726/IMG_12_2726.jpg"",""SV_PolicingMSA/NY_2726/IMG_7_2726.jpg"",""SV_PolicingMSA/NY_2726/IMG_2_2726.jpg""]","5","","","","","","2","","4","[""./rc_img/cop_condGroup_8_CommunitySafety_autoscaled.png"",""./rc_img/cop_condGroup_8_SafeStreets_autoscaled.png""]","5","",""
"sliderTrial","html-slider-response","19","104181","0.0-19.0","","656776a7904ae00d6b91d1dd","6568a6ddf7b6f86a69cda249","11","","","","","","","","","","","","3060","[""SV_PolicingMSA/NY_2726/IMG_11_2726.jpg"",""SV_PolicingMSA/NY_2726/IMG_14_2726.jpg"",""SV_PolicingMSA/NY_2726/IMG_3_2726.jpg"",""SV_PolicingMSA/NY_2726/IMG_1_2726.jpg"",""SV_PolicingMSA/NY_2726/IMG_10_2726.jpg"",""SV_PolicingMSA/NY_2726/IMG_12_2726.jpg"",""SV_PolicingMSA/NY_2726/IMG_7_2726.jpg"",""SV_PolicingMSA/NY_2726/IMG_2_2726.jpg""]","5","","","","","","2","","4","[""./rc_img/cop_condGroup_5_CommunitySafety_autoscaled.png"",""./rc_img/cop_condGroup_5_SafeStreets_autoscaled.png""]","5","",""
"sliderTrial","html-slider-response","20","106918","0.0-20.0","","656776a7904ae00d6b91d1dd","6568a6ddf7b6f86a69cda249","11","","","","","","","","","","","","2736","[""SV_PolicingMSA/NY_2726/IMG_11_2726.jpg"",""SV_PolicingMSA/NY_2726/IMG_14_2726.jpg"",""SV_PolicingMSA/NY_2726/IMG_3_2726.jpg"",""SV_PolicingMSA/NY_2726/IMG_1_2726.jpg"",""SV_PolicingMSA/NY_2726/IMG_10_2726.jpg"",""SV_PolicingMSA/NY_2726/IMG_12_2726.jpg"",""SV_PolicingMSA/NY_2726/IMG_7_2726.jpg"",""SV_PolicingMSA/NY_2726/IMG_2_2726.jpg""]","5","","","","","","2","","4","[""./rc_img/cop_condGroup_9_CommunitySafety_autoscaled.png"",""./rc_img/cop_condGroup_9_SafeStreets_autoscaled.png""]","5","",""
"sliderTrial","html-slider-response","21","109163","0.0-21.0","","656776a7904ae00d6b91d1dd","6568a6ddf7b6f86a69cda249","11","","","","","","","","","","","","2242","[""SV_PolicingMSA/NY_2726/IMG_11_2726.jpg"",""SV_PolicingMSA/NY_2726/IMG_14_2726.jpg"",""SV_PolicingMSA/NY_2726/IMG_3_2726.jpg"",""SV_PolicingMSA/NY_2726/IMG_1_2726.jpg"",""SV_PolicingMSA/NY_2726/IMG_10_2726.jpg"",""SV_PolicingMSA/NY_2726/IMG_12_2726.jpg"",""SV_PolicingMSA/NY_2726/IMG_7_2726.jpg"",""SV_PolicingMSA/NY_2726/IMG_2_2726.jpg""]","3","","","","","","2","","4","[""./rc_img/cop_condGroup_11_SafeStreets_autoscaled.png"",""./rc_img/cop_condGroup_11_CommunitySafety_autoscaled.png""]","5","",""
"sliderTrial","html-slider-response","22","111178","0.0-22.0","","656776a7904ae00d6b91d1dd","6568a6ddf7b6f86a69cda249","11","","","","","","","","","","","","2011","[""SV_PolicingMSA/NY_2726/IMG_11_2726.jpg"",""SV_PolicingMSA/NY_2726/IMG_14_2726.jpg"",""SV_PolicingMSA/NY_2726/IMG_3_2726.jpg"",""SV_PolicingMSA/NY_2726/IMG_1_2726.jpg"",""SV_PolicingMSA/NY_2726/IMG_10_2726.jpg"",""SV_PolicingMSA/NY_2726/IMG_12_2726.jpg"",""SV_PolicingMSA/NY_2726/IMG_7_2726.jpg"",""SV_PolicingMSA/NY_2726/IMG_2_2726.jpg""]","5","","","","","","2","","4","[""./rc_img/cop_condGroup_6_SafeStreets_autoscaled.png"",""./rc_img/cop_condGroup_6_CommunitySafety_autoscaled.png""]","3","",""
"before_SVSlide_prompt","html-button-response","23","112350","0.0-23.0","","656776a7904ae00d6b91d1dd","6568a6ddf7b6f86a69cda249","11","","","","","","","","","","","","1170","Click [Next] to see the next neighborhood!","0","","","","","","","","","","","",""
"street view slide show","image-button-response","24","113364","0.0-24.0","","656776a7904ae00d6b91d1dd","6568a6ddf7b6f86a69cda249","11","","","","","","","","","","","","null","stimulus/SV_PolicingMSA/NJ_1880/IMG_10_1880.jpg","null","","","","","","2","","","","","",""
"street view slide show","image-button-response","25","114379","0.0-25.0","","656776a7904ae00d6b91d1dd","6568a6ddf7b6f86a69cda249","11","","","","","","","","","","","","null","stimulus/SV_PolicingMSA/NJ_1880/IMG_12_1880.jpg","null","","","","","","2","","","","","",""
"street view slide show","image-button-response","26","115394","0.0-26.0","","656776a7904ae00d6b91d1dd","6568a6ddf7b6f86a69cda249","11","","","","","","","","","","","","null","stimulus/SV_PolicingMSA/NJ_1880/IMG_3_1880.jpg","null","","","","","","2","","","","","",""
"street view slide show","image-button-response","27","116409","0.0-27.0","","656776a7904ae00d6b91d1dd","6568a6ddf7b6f86a69cda249","11","","","","","","","","","","","","null","stimulus/SV_PolicingMSA/NJ_1880/IMG_2_1880.jpg","null","","","","","","2","","","","","",""
"street view slide show","image-button-response","28","117425","0.0-28.0","","656776a7904ae00d6b91d1dd","6568a6ddf7b6f86a69cda249","11","","","","","","","","","","","","null","stimulus/SV_PolicingMSA/NJ_1880/IMG_8_1880.jpg","null","","","","","","2","","","","","",""
"street view slide show","image-button-response","29","118439","0.0-29.0","","656776a7904ae00d6b91d1dd","6568a6ddf7b6f86a69cda249","11","","","","","","","","","","","","null","stimulus/SV_PolicingMSA/NJ_1880/IMG_13_1880.jpg","null","","","","","","2","","","","","",""
"street view slide show","image-button-response","30","119455","0.0-30.0","","656776a7904ae00d6b91d1dd","6568a6ddf7b6f86a69cda249","11","","","","","","","","","","","","null","stimulus/SV_PolicingMSA/NJ_1880/IMG_6_1880.jpg","null","","","","","","2","","","","","",""
"street view slide show","image-button-response","31","120471","0.0-31.0","","656776a7904ae00d6b91d1dd","6568a6ddf7b6f86a69cda249","11","","","","","","","","","","","","null","stimulus/SV_PolicingMSA/NJ_1880/IMG_11_1880.jpg","null","","","","","","2","","","","","",""
"dot matrix survey1","survey","32","135266","0.0-32.0","","656776a7904ae00d6b91d1dd","6568a6ddf7b6f86a69cda249","11","","","","","","","","","","","","14771","","{""P0_Q0"":null,""P0_Q1"":{""wealthy"":2,""safe"":2,""walkable"":3,""traditional"":1,""diverse"":2}}","","","","","","2","[]","","","","",""
"dot matrix survey2","survey","33","141299","0.0-33.0","","656776a7904ae00d6b91d1dd","6568a6ddf7b6f86a69cda249","11","","","","","","","","","","","","6019","","{""P0_Q0"":null,""P0_Q1"":{""violence"":2,""crime"":2,""drug"":2,""schools"":2,""opportunities"":2}}","","","","","","2","[]","","","","",""
"dot matrix survey3","survey","34","148979","0.0-34.0","","656776a7904ae00d6b91d1dd","6568a6ddf7b6f86a69cda249","11","","","","","","","","","","","","7664","","{""P0_Q0"":null,""P0_Q1"":{""movein"":1,""moveout"":2,""shopping"":1,""walk"":1,""school"":1,""park"":1}}","","","","","","2","[]","","","","",""
"sliderTrial","html-slider-response","35","153279","0.0-35.0","","656776a7904ae00d6b91d1dd","6568a6ddf7b6f86a69cda249","11","","","","","","","","","","","","4297","[""SV_PolicingMSA/NJ_1880/IMG_10_1880.jpg"",""SV_PolicingMSA/NJ_1880/IMG_12_1880.jpg"",""SV_PolicingMSA/NJ_1880/IMG_3_1880.jpg"",""SV_PolicingMSA/NJ_1880/IMG_2_1880.jpg"",""SV_PolicingMSA/NJ_1880/IMG_8_1880.jpg"",""SV_PolicingMSA/NJ_1880/IMG_13_1880.jpg"",""SV_PolicingMSA/NJ_1880/IMG_6_1880.jpg"",""SV_PolicingMSA/NJ_1880/IMG_11_1880.jpg""]","5","","","","","","2","","4","[""./rc_img/cop_condGroup_19_SafeStreets_autoscaled.png"",""./rc_img/cop_condGroup_19_CommunitySafety_autoscaled.png""]","3","",""
"sliderTrial","html-slider-response","36","155196","0.0-36.0","","656776a7904ae00d6b91d1dd","6568a6ddf7b6f86a69cda249","11","","","","","","","","","","","","1913","[""SV_PolicingMSA/NJ_1880/IMG_10_1880.jpg"",""SV_PolicingMSA/NJ_1880/IMG_12_1880.jpg"",""SV_PolicingMSA/NJ_1880/IMG_3_1880.jpg"",""SV_PolicingMSA/NJ_1880/IMG_2_1880.jpg"",""SV_PolicingMSA/NJ_1880/IMG_8_1880.jpg"",""SV_PolicingMSA/NJ_1880/IMG_13_1880.jpg"",""SV_PolicingMSA/NJ_1880/IMG_6_1880.jpg"",""SV_PolicingMSA/NJ_1880/IMG_11_1880.jpg""]","5","","","","","","2","","4","[""./rc_img/cop_condGroup_17_CommunitySafety_autoscaled.png"",""./rc_img/cop_condGroup_17_SafeStreets_autoscaled.png""]","5","",""
"sliderTrial","html-slider-response","37","156811","0.0-37.0","","656776a7904ae00d6b91d1dd","6568a6ddf7b6f86a69cda249","11","","","","","","","","","","","","1611","[""SV_PolicingMSA/NJ_1880/IMG_10_1880.jpg"",""SV_PolicingMSA/NJ_1880/IMG_12_1880.jpg"",""SV_PolicingMSA/NJ_1880/IMG_3_1880.jpg"",""SV_PolicingMSA/NJ_1880/IMG_2_1880.jpg"",""SV_PolicingMSA/NJ_1880/IMG_8_1880.jpg"",""SV_PolicingMSA/NJ_1880/IMG_13_1880.jpg"",""SV_PolicingMSA/NJ_1880/IMG_6_1880.jpg"",""SV_PolicingMSA/NJ_1880/IMG_11_1880.jpg""]","3","","","","","","2","","4","[""./rc_img/cop_condGroup_20_SafeStreets_autoscaled.png"",""./rc_img/cop_condGroup_20_CommunitySafety_autoscaled.png""]","5","",""
"sliderTrial","html-slider-response","38","158460","0.0-38.0","","656776a7904ae00d6b91d1dd","6568a6ddf7b6f86a69cda249","11","","","","","","","","","","","","1646","[""SV_PolicingMSA/NJ_1880/IMG_10_1880.jpg"",""SV_PolicingMSA/NJ_1880/IMG_12_1880.jpg"",""SV_PolicingMSA/NJ_1880/IMG_3_1880.jpg"",""SV_PolicingMSA/NJ_1880/IMG_2_1880.jpg"",""SV_PolicingMSA/NJ_1880/IMG_8_1880.jpg"",""SV_PolicingMSA/NJ_1880/IMG_13_1880.jpg"",""SV_PolicingMSA/NJ_1880/IMG_6_1880.jpg"",""SV_PolicingMSA/NJ_1880/IMG_11_1880.jpg""]","5","","","","","","2","","4","[""./rc_img/cop_condGroup_18_SafeStreets_autoscaled.png"",""./rc_img/cop_condGroup_18_CommunitySafety_autoscaled.png""]","3","",""
"sliderTrial","html-slider-response","39","160463","0.0-39.0","","656776a7904ae00d6b91d1dd","6568a6ddf7b6f86a69cda249","11","","","","","","","","","","","","2000","[""SV_PolicingMSA/NJ_1880/IMG_10_1880.jpg"",""SV_PolicingMSA/NJ_1880/IMG_12_1880.jpg"",""SV_PolicingMSA/NJ_1880/IMG_3_1880.jpg"",""SV_PolicingMSA/NJ_1880/IMG_2_1880.jpg"",""SV_PolicingMSA/NJ_1880/IMG_8_1880.jpg"",""SV_PolicingMSA/NJ_1880/IMG_13_1880.jpg"",""SV_PolicingMSA/NJ_1880/IMG_6_1880.jpg"",""SV_PolicingMSA/NJ_1880/IMG_11_1880.jpg""]","3","","","","","","2","","4","[""./rc_img/cop_condGroup_10_CommunitySafety_autoscaled.png"",""./rc_img/cop_condGroup_10_SafeStreets_autoscaled.png""]","3","",""
"before_SVSlide_prompt","html-button-response","40","161622","0.0-40.0","","656776a7904ae00d6b91d1dd","6568a6ddf7b6f86a69cda249","11","","","","","","","","","","","","1155","Click [Next] to see the next neighborhood!","0","","","","","","","","","","","",""
"street view slide show","image-button-response","41","162635","0.0-41.0","","656776a7904ae00d6b91d1dd","6568a6ddf7b6f86a69cda249","11","","","","","","","","","","","","null","stimulus/SV_PolicingMSA/NJ_1052/IMG_10_1052.jpg","null","","","","","","3","","","","","",""
"street view slide show","image-button-response","42","163651","0.0-42.0","","656776a7904ae00d6b91d1dd","6568a6ddf7b6f86a69cda249","11","","","","","","","","","","","","null","stimulus/SV_PolicingMSA/NJ_1052/IMG_13_1052.jpg","null","","","","","","3","","","","","",""
"street view slide show","image-button-response","43","164667","0.0-43.0","","656776a7904ae00d6b91d1dd","6568a6ddf7b6f86a69cda249","11","","","","","","","","","","","","null","stimulus/SV_PolicingMSA/NJ_1052/IMG_5_1052.jpg","null","","","","","","3","","","","","",""
"street view slide show","image-button-response","44","165680","0.0-44.0","","656776a7904ae00d6b91d1dd","6568a6ddf7b6f86a69cda249","11","","","","","","","","","","","","null","stimulus/SV_PolicingMSA/NJ_1052/IMG_11_1052.jpg","null","","","","","","3","","","","","",""
"street view slide show","image-button-response","45","166695","0.0-45.0","","656776a7904ae00d6b91d1dd","6568a6ddf7b6f86a69cda249","11","","","","","","","","","","","","null","stimulus/SV_PolicingMSA/NJ_1052/IMG_12_1052.jpg","null","","","","","","3","","","","","",""
"street view slide show","image-button-response","46","167710","0.0-46.0","","656776a7904ae00d6b91d1dd","6568a6ddf7b6f86a69cda249","11","","","","","","","","","","","","null","stimulus/SV_PolicingMSA/NJ_1052/IMG_4_1052.jpg","null","","","","","","3","","","","","",""
"street view slide show","image-button-response","47","168724","0.0-47.0","","656776a7904ae00d6b91d1dd","6568a6ddf7b6f86a69cda249","11","","","","","","","","","","","","null","stimulus/SV_PolicingMSA/NJ_1052/IMG_3_1052.jpg","null","","","","","","3","","","","","",""
"street view slide show","image-button-response","48","169739","0.0-48.0","","656776a7904ae00d6b91d1dd","6568a6ddf7b6f86a69cda249","11","","","","","","","","","","","","null","stimulus/SV_PolicingMSA/NJ_1052/IMG_0_1052.jpg","null","","","","","","3","","","","","",""
"dot matrix survey1","survey","49","177744","0.0-49.0","","656776a7904ae00d6b91d1dd","6568a6ddf7b6f86a69cda249","11","","","","","","","","","","","","7982","","{""P0_Q0"":null,""P0_Q1"":{""wealthy"":2,""safe"":2,""walkable"":2,""traditional"":2,""diverse"":2}}","","","","","","3","[]","","","","",""
"dot matrix survey2","survey","50","183893","0.0-50.0","","656776a7904ae00d6b91d1dd","6568a6ddf7b6f86a69cda249","11","","","","","","","","","","","","6135","","{""P0_Q0"":null,""P0_Q1"":{""violence"":1,""crime"":1,""drug"":1,""schools"":2,""opportunities"":2}}","","","","","","3","[]","","","","",""
"dot matrix survey3","survey","51","191604","0.0-51.0","","656776a7904ae00d6b91d1dd","6568a6ddf7b6f86a69cda249","11","","","","","","","","","","","","7699","","{""P0_Q0"":null,""P0_Q1"":{""movein"":2,""moveout"":1,""shopping"":2,""walk"":2,""school"":2,""park"":2}}","","","","","","3","[]","","","","",""
"sliderTrial","html-slider-response","52","194877","0.0-52.0","","656776a7904ae00d6b91d1dd","6568a6ddf7b6f86a69cda249","11","","","","","","","","","","","","3271","[""SV_PolicingMSA/NJ_1052/IMG_10_1052.jpg"",""SV_PolicingMSA/NJ_1052/IMG_13_1052.jpg"",""SV_PolicingMSA/NJ_1052/IMG_5_1052.jpg"",""SV_PolicingMSA/NJ_1052/IMG_11_1052.jpg"",""SV_PolicingMSA/NJ_1052/IMG_12_1052.jpg"",""SV_PolicingMSA/NJ_1052/IMG_4_1052.jpg"",""SV_PolicingMSA/NJ_1052/IMG_3_1052.jpg"",""SV_PolicingMSA/NJ_1052/IMG_0_1052.jpg""]","3","","","","","","3","","4","[""./rc_img/cop_condGroup_16_SafeStreets_autoscaled.png"",""./rc_img/cop_condGroup_16_CommunitySafety_autoscaled.png""]","5","",""
"sliderTrial","html-slider-response","53","196483","0.0-53.0","","656776a7904ae00d6b91d1dd","6568a6ddf7b6f86a69cda249","11","","","","","","","","","","","","1602","[""SV_PolicingMSA/NJ_1052/IMG_10_1052.jpg"",""SV_PolicingMSA/NJ_1052/IMG_13_1052.jpg"",""SV_PolicingMSA/NJ_1052/IMG_5_1052.jpg"",""SV_PolicingMSA/NJ_1052/IMG_11_1052.jpg"",""SV_PolicingMSA/NJ_1052/IMG_12_1052.jpg"",""SV_PolicingMSA/NJ_1052/IMG_4_1052.jpg"",""SV_PolicingMSA/NJ_1052/IMG_3_1052.jpg"",""SV_PolicingMSA/NJ_1052/IMG_0_1052.jpg""]","5","","","","","","3","","4","[""./rc_img/cop_condGroup_12_SafeStreets_autoscaled.png"",""./rc_img/cop_condGroup_12_CommunitySafety_autoscaled.png""]","3","",""
"sliderTrial","html-slider-response","54","197865","0.0-54.0","","656776a7904ae00d6b91d1dd","6568a6ddf7b6f86a69cda249","11","","","","","","","","","","","","1373","[""SV_PolicingMSA/NJ_1052/IMG_10_1052.jpg"",""SV_PolicingMSA/NJ_1052/IMG_13_1052.jpg"",""SV_PolicingMSA/NJ_1052/IMG_5_1052.jpg"",""SV_PolicingMSA/NJ_1052/IMG_11_1052.jpg"",""SV_PolicingMSA/NJ_1052/IMG_12_1052.jpg"",""SV_PolicingMSA/NJ_1052/IMG_4_1052.jpg"",""SV_PolicingMSA/NJ_1052/IMG_3_1052.jpg"",""SV_PolicingMSA/NJ_1052/IMG_0_1052.jpg""]","3","","","","","","3","","4","[""./rc_img/cop_condGroup_14_CommunitySafety_autoscaled.png"",""./rc_img/cop_condGroup_14_SafeStreets_autoscaled.png""]","3","",""
"sliderTrial","html-slider-response","55","200178","0.0-55.0","","656776a7904ae00d6b91d1dd","6568a6ddf7b6f86a69cda249","11","","","","","","","","","","","","2311","[""SV_PolicingMSA/NJ_1052/IMG_10_1052.jpg"",""SV_PolicingMSA/NJ_1052/IMG_13_1052.jpg"",""SV_PolicingMSA/NJ_1052/IMG_5_1052.jpg"",""SV_PolicingMSA/NJ_1052/IMG_11_1052.jpg"",""SV_PolicingMSA/NJ_1052/IMG_12_1052.jpg"",""SV_PolicingMSA/NJ_1052/IMG_4_1052.jpg"",""SV_PolicingMSA/NJ_1052/IMG_3_1052.jpg"",""SV_PolicingMSA/NJ_1052/IMG_0_1052.jpg""]","5","","","","","","3","","4","[""./rc_img/cop_condGroup_15_SafeStreets_autoscaled.png"",""./rc_img/cop_condGroup_15_CommunitySafety_autoscaled.png""]","3","",""
"sliderTrial","html-slider-response","56","202006","0.0-56.0","","656776a7904ae00d6b91d1dd","6568a6ddf7b6f86a69cda249","11","","","","","","","","","","","","1822","[""SV_PolicingMSA/NJ_1052/IMG_10_1052.jpg"",""SV_PolicingMSA/NJ_1052/IMG_13_1052.jpg"",""SV_PolicingMSA/NJ_1052/IMG_5_1052.jpg"",""SV_PolicingMSA/NJ_1052/IMG_11_1052.jpg"",""SV_PolicingMSA/NJ_1052/IMG_12_1052.jpg"",""SV_PolicingMSA/NJ_1052/IMG_4_1052.jpg"",""SV_PolicingMSA/NJ_1052/IMG_3_1052.jpg"",""SV_PolicingMSA/NJ_1052/IMG_0_1052.jpg""]","5","","","","","","3","","4","[""./rc_img/cop_condGroup_13_SafeStreets_autoscaled.png"",""./rc_img/cop_condGroup_13_CommunitySafety_autoscaled.png""]","3","",""
"before_SVSlide_prompt","html-button-response","57","203259","0.0-57.0","","656776a7904ae00d6b91d1dd","6568a6ddf7b6f86a69cda249","11","","","","","","","","","","","","1249","Click [Next] to see the next neighborhood!","0","","","","","","","","","","","",""
"street view slide show","image-button-response","58","204272","0.0-58.0","","656776a7904ae00d6b91d1dd","6568a6ddf7b6f86a69cda249","11","","","","","","","","","","","","null","stimulus/SV_PolicingMSA/NY_4752/IMG_2_4752.jpg","null","","","","","","5","","","","","",""
"street view slide show","image-button-response","59","205287","0.0-59.0","","656776a7904ae00d6b91d1dd","6568a6ddf7b6f86a69cda249","11","","","","","","","","","","","","null","stimulus/SV_PolicingMSA/NY_4752/IMG_7_4752.jpg","null","","","","","","5","","","","","",""
"street view slide show","image-button-response","60","206295","0.0-60.0","","656776a7904ae00d6b91d1dd","6568a6ddf7b6f86a69cda249","11","","","","","","","","","","","","null","stimulus/SV_PolicingMSA/NY_4752/IMG_12_4752.jpg","null","","","","","","5","","","","","",""
"street view slide show","image-button-response","61","207310","0.0-61.0","","656776a7904ae00d6b91d1dd","6568a6ddf7b6f86a69cda249","11","","","","","","","","","","","","null","stimulus/SV_PolicingMSA/NY_4752/IMG_4_4752.jpg","null","","","","","","5","","","","","",""
"street view slide show","image-button-response","62","208325","0.0-62.0","","656776a7904ae00d6b91d1dd","6568a6ddf7b6f86a69cda249","11","","","","","","","","","","","","null","stimulus/SV_PolicingMSA/NY_4752/IMG_9_4752.jpg","null","","","","","","5","","","","","",""
"street view slide show","image-button-response","63","209340","0.0-63.0","","656776a7904ae00d6b91d1dd","6568a6ddf7b6f86a69cda249","11","","","","","","","","","","","","null","stimulus/SV_PolicingMSA/NY_4752/IMG_6_4752.jpg","null","","","","","","5","","","","","",""
"street view slide show","image-button-response","64","210355","0.0-64.0","","656776a7904ae00d6b91d1dd","6568a6ddf7b6f86a69cda249","11","","","","","","","","","","","","null","stimulus/SV_PolicingMSA/NY_4752/IMG_3_4752.jpg","null","","","","","","5","","","","","",""
"street view slide show","image-button-response","65","211371","0.0-65.0","","656776a7904ae00d6b91d1dd","6568a6ddf7b6f86a69cda249","11","","","","","","","","","","","","null","stimulus/SV_PolicingMSA/NY_4752/IMG_0_4752.jpg","null","","","","","","5","","","","","",""
"dot matrix survey1","survey","66","222940","0.0-66.0","","656776a7904ae00d6b91d1dd","6568a6ddf7b6f86a69cda249","11","","","","","","","","","","","","11543","","{""P0_Q0"":null,""P0_Q1"":{""wealthy"":3,""safe"":2,""walkable"":3,""traditional"":2,""diverse"":3}}","","","","","","5","[]","","","","",""
"dot matrix survey2","survey","67","230120","0.0-67.0","","656776a7904ae00d6b91d1dd","6568a6ddf7b6f86a69cda249","11","","","","","","","","","","","","7165","","{""P0_Q0"":null,""P0_Q1"":{""violence"":2,""crime"":2,""drug"":2,""schools"":3,""opportunities"":3}}","","","","","","5","[]","","","","",""
"dot matrix survey3","survey","68","239175","0.0-68.0","","656776a7904ae00d6b91d1dd","6568a6ddf7b6f86a69cda249","11","","","","","","","","","","","","9042","","{""P0_Q0"":null,""P0_Q1"":{""movein"":3,""moveout"":1,""shopping"":3,""walk"":3,""park"":3,""school"":3}}","","","","","","5","[]","","","","",""
"sliderTrial","html-slider-response","69","242500","0.0-69.0","","656776a7904ae00d6b91d1dd","6568a6ddf7b6f86a69cda249","11","","","","","","","","","","","","3322","[""SV_PolicingMSA/NY_4752/IMG_2_4752.jpg"",""SV_PolicingMSA/NY_4752/IMG_7_4752.jpg"",""SV_PolicingMSA/NY_4752/IMG_12_4752.jpg"",""SV_PolicingMSA/NY_4752/IMG_4_4752.jpg"",""SV_PolicingMSA/NY_4752/IMG_9_4752.jpg"",""SV_PolicingMSA/NY_4752/IMG_6_4752.jpg"",""SV_PolicingMSA/NY_4752/IMG_3_4752.jpg"",""SV_PolicingMSA/NY_4752/IMG_0_4752.jpg""]","3","","","","","","5","","4","[""./rc_img/cop_condGroup_3_CommunitySafety_autoscaled.png"",""./rc_img/cop_condGroup_3_SafeStreets_autoscaled.png""]","3","",""
"sliderTrial","html-slider-response","70","244121","0.0-70.0","","656776a7904ae00d6b91d1dd","6568a6ddf7b6f86a69cda249","11","","","","","","","","","","","","1617","[""SV_PolicingMSA/NY_4752/IMG_2_4752.jpg"",""SV_PolicingMSA/NY_4752/IMG_7_4752.jpg"",""SV_PolicingMSA/NY_4752/IMG_12_4752.jpg"",""SV_PolicingMSA/NY_4752/IMG_4_4752.jpg"",""SV_PolicingMSA/NY_4752/IMG_9_4752.jpg"",""SV_PolicingMSA/NY_4752/IMG_6_4752.jpg"",""SV_PolicingMSA/NY_4752/IMG_3_4752.jpg"",""SV_PolicingMSA/NY_4752/IMG_0_4752.jpg""]","3","","","","","","5","","4","[""./rc_img/cop_condGroup_4_CommunitySafety_autoscaled.png"",""./rc_img/cop_condGroup_4_SafeStreets_autoscaled.png""]","3","",""
"sliderTrial","html-slider-response","71","246353","0.0-71.0","","656776a7904ae00d6b91d1dd","6568a6ddf7b6f86a69cda249","11","","","","","","","","","","","","2230","[""SV_PolicingMSA/NY_4752/IMG_2_4752.jpg"",""SV_PolicingMSA/NY_4752/IMG_7_4752.jpg"",""SV_PolicingMSA/NY_4752/IMG_12_4752.jpg"",""SV_PolicingMSA/NY_4752/IMG_4_4752.jpg"",""SV_PolicingMSA/NY_4752/IMG_9_4752.jpg"",""SV_PolicingMSA/NY_4752/IMG_6_4752.jpg"",""SV_PolicingMSA/NY_4752/IMG_3_4752.jpg"",""SV_PolicingMSA/NY_4752/IMG_0_4752.jpg""]","5","","","","","","5","","4","[""./rc_img/cop_condGroup_2_SafeStreets_autoscaled.png"",""./rc_img/cop_condGroup_2_CommunitySafety_autoscaled.png""]","3","",""
"sliderTrial","html-slider-response","72","248325","0.0-72.0","","656776a7904ae00d6b91d1dd","6568a6ddf7b6f86a69cda249","11","","","","","","","","","","","","1970","[""SV_PolicingMSA/NY_4752/IMG_2_4752.jpg"",""SV_PolicingMSA/NY_4752/IMG_7_4752.jpg"",""SV_PolicingMSA/NY_4752/IMG_12_4752.jpg"",""SV_PolicingMSA/NY_4752/IMG_4_4752.jpg"",""SV_PolicingMSA/NY_4752/IMG_9_4752.jpg"",""SV_PolicingMSA/NY_4752/IMG_6_4752.jpg"",""SV_PolicingMSA/NY_4752/IMG_3_4752.jpg"",""SV_PolicingMSA/NY_4752/IMG_0_4752.jpg""]","3","","","","","","5","","4","[""./rc_img/cop_condGroup_1_SafeStreets_autoscaled.png"",""./rc_img/cop_condGroup_1_CommunitySafety_autoscaled.png""]","5","",""
"sliderTrial","html-slider-response","73","249863","0.0-73.0","","656776a7904ae00d6b91d1dd","6568a6ddf7b6f86a69cda249","11","","","","","","","","","","","","1535","[""SV_PolicingMSA/NY_4752/IMG_2_4752.jpg"",""SV_PolicingMSA/NY_4752/IMG_7_4752.jpg"",""SV_PolicingMSA/NY_4752/IMG_12_4752.jpg"",""SV_PolicingMSA/NY_4752/IMG_4_4752.jpg"",""SV_PolicingMSA/NY_4752/IMG_9_4752.jpg"",""SV_PolicingMSA/NY_4752/IMG_6_4752.jpg"",""SV_PolicingMSA/NY_4752/IMG_3_4752.jpg"",""SV_PolicingMSA/NY_4752/IMG_0_4752.jpg""]","3","","","","","","5","","4","[""./rc_img/cop_condGroup_7_CommunitySafety_autoscaled.png"",""./rc_img/cop_condGroup_7_SafeStreets_autoscaled.png""]","3","",""
"half-way","html-button-response","74","257012","0.0-74.0","","656776a7904ae00d6b91d1dd","6568a6ddf7b6f86a69cda249","11","","","","","","","","","","","","7148","
    <h3>You are now half way through the study.</h3>
    <p>Please take a quick, 15-second break before you continue.</p>
    <img src='assets/img/countdown-15.gif'>
    <p>The study will automatically advance forward after the countdown is complete. <br> However, you may click ""Next"" to advance forward now if you wish.</p>
    ","0","","","","","","","","","","","",""
"before_SVSlide_prompt","html-button-response","75","258104","0.0-75.0","","656776a7904ae00d6b91d1dd","6568a6ddf7b6f86a69cda249","11","","","","","","","","","","","","1090","Click [Next] to see the next neighborhood!","0","","","","","","","","","","","",""
"street view slide show","image-button-response","76","259117","0.0-76.0","","656776a7904ae00d6b91d1dd","6568a6ddf7b6f86a69cda249","11","","","","","","","","","","","","null","stimulus/SV_PolicingMSA/NY_5249/IMG_1_5249.jpg","null","","","","","","1","","","","","",""
"street view slide show","image-button-response","77","260133","0.0-77.0","","656776a7904ae00d6b91d1dd","6568a6ddf7b6f86a69cda249","11","","","","","","","","","","","","null","stimulus/SV_PolicingMSA/NY_5249/IMG_7_5249.jpg","null","","","","","","1","","","","","",""
"street view slide show","image-button-response","78","261147","0.0-78.0","","656776a7904ae00d6b91d1dd","6568a6ddf7b6f86a69cda249","11","","","","","","","","","","","","null","stimulus/SV_PolicingMSA/NY_5249/IMG_8_5249.jpg","null","","","","","","1","","","","","",""
"street view slide show","image-button-response","79","262163","0.0-79.0","","656776a7904ae00d6b91d1dd","6568a6ddf7b6f86a69cda249","11","","","","","","","","","","","","null","stimulus/SV_PolicingMSA/NY_5249/IMG_11_5249.jpg","null","","","","","","1","","","","","",""
"street view slide show","image-button-response","80","263178","0.0-80.0","","656776a7904ae00d6b91d1dd","6568a6ddf7b6f86a69cda249","11","","","","","","","","","","","","null","stimulus/SV_PolicingMSA/NY_5249/IMG_10_5249.jpg","null","","","","","","1","","","","","",""
"street view slide show","image-button-response","81","264194","0.0-81.0","","656776a7904ae00d6b91d1dd","6568a6ddf7b6f86a69cda249","11","","","","","","","","","","","","null","stimulus/SV_PolicingMSA/NY_5249/IMG_0_5249.jpg","null","","","","","","1","","","","","",""
"street view slide show","image-button-response","82","265209","0.0-82.0","","656776a7904ae00d6b91d1dd","6568a6ddf7b6f86a69cda249","11","","","","","","","","","","","","null","stimulus/SV_PolicingMSA/NY_5249/IMG_4_5249.jpg","null","","","","","","1","","","","","",""
"street view slide show","image-button-response","83","266225","0.0-83.0","","656776a7904ae00d6b91d1dd","6568a6ddf7b6f86a69cda249","11","","","","","","","","","","","","null","stimulus/SV_PolicingMSA/NY_5249/IMG_9_5249.jpg","null","","","","","","1","","","","","",""
"dot matrix survey1","survey","84","272039","0.0-84.0","","656776a7904ae00d6b91d1dd","6568a6ddf7b6f86a69cda249","11","","","","","","","","","","","","5797","","{""P0_Q0"":null,""P0_Q1"":{""wealthy"":3,""safe"":3,""walkable"":3,""traditional"":3,""diverse"":3}}","","","","","","1","[]","","","","",""
"dot matrix survey2","survey","85","277279","0.0-85.0","","656776a7904ae00d6b91d1dd","6568a6ddf7b6f86a69cda249","11","","","","","","","","","","","","5222","","{""P0_Q0"":null,""P0_Q1"":{""violence"":2,""crime"":2,""drug"":2,""schools"":3,""opportunities"":3}}","","","","","","1","[]","","","","",""
"dot matrix survey3","survey","86","285355","0.0-86.0","","656776a7904ae00d6b91d1dd","6568a6ddf7b6f86a69cda249","11","","","","","","","","","","","","8064","","{""P0_Q0"":null,""P0_Q1"":{""movein"":3,""moveout"":1,""shopping"":3,""walk"":3,""park"":3,""school"":3}}","","","","","","1","[]","","","","",""
"sliderTrial","html-slider-response","87","288641","0.0-87.0","","656776a7904ae00d6b91d1dd","6568a6ddf7b6f86a69cda249","11","","","","","","","","","","","","3284","[""SV_PolicingMSA/NY_5249/IMG_1_5249.jpg"",""SV_PolicingMSA/NY_5249/IMG_7_5249.jpg"",""SV_PolicingMSA/NY_5249/IMG_8_5249.jpg"",""SV_PolicingMSA/NY_5249/IMG_11_5249.jpg"",""SV_PolicingMSA/NY_5249/IMG_10_5249.jpg"",""SV_PolicingMSA/NY_5249/IMG_0_5249.jpg"",""SV_PolicingMSA/NY_5249/IMG_4_5249.jpg"",""SV_PolicingMSA/NY_5249/IMG_9_5249.jpg""]","3","","","","","","1","","4","[""./rc_img/cop_condGroup_16_SafeStreets_autoscaled.png"",""./rc_img/cop_condGroup_16_CommunitySafety_autoscaled.png""]","5","",""
"sliderTrial_attention","html-slider-response","88","298652","0.0-88.0","","656776a7904ae00d6b91d1dd","6568a6ddf7b6f86a69cda249","11","","","","","","","","","","","","null","[""SV_PolicingMSA/NY_5249/IMG_1_5249.jpg"",""SV_PolicingMSA/NY_5249/IMG_7_5249.jpg"",""SV_PolicingMSA/NY_5249/IMG_8_5249.jpg"",""SV_PolicingMSA/NY_5249/IMG_11_5249.jpg"",""SV_PolicingMSA/NY_5249/IMG_10_5249.jpg"",""SV_PolicingMSA/NY_5249/IMG_0_5249.jpg"",""SV_PolicingMSA/NY_5249/IMG_4_5249.jpg"",""SV_PolicingMSA/NY_5249/IMG_9_5249.jpg""]","null","","","","","","1","","4","[""./assets/img/attnchk.png"",""./assets/img/attnchk.png""]","","true",""
"sliderTrial","html-slider-response","89","304288","0.0-89.0","","656776a7904ae00d6b91d1dd","6568a6ddf7b6f86a69cda249","11","","","","","","","","","","","","5633","[""SV_PolicingMSA/NY_5249/IMG_1_5249.jpg"",""SV_PolicingMSA/NY_5249/IMG_7_5249.jpg"",""SV_PolicingMSA/NY_5249/IMG_8_5249.jpg"",""SV_PolicingMSA/NY_5249/IMG_11_5249.jpg"",""SV_PolicingMSA/NY_5249/IMG_10_5249.jpg"",""SV_PolicingMSA/NY_5249/IMG_0_5249.jpg"",""SV_PolicingMSA/NY_5249/IMG_4_5249.jpg"",""SV_PolicingMSA/NY_5249/IMG_9_5249.jpg""]","3","","","","","","1","","4","[""./rc_img/cop_condGroup_12_SafeStreets_autoscaled.png"",""./rc_img/cop_condGroup_12_CommunitySafety_autoscaled.png""]","5","",""
"sliderTrial","html-slider-response","90","307440","0.0-90.0","","656776a7904ae00d6b91d1dd","6568a6ddf7b6f86a69cda249","11","","","","","","","","","","","","3147","[""SV_PolicingMSA/NY_5249/IMG_1_5249.jpg"",""SV_PolicingMSA/NY_5249/IMG_7_5249.jpg"",""SV_PolicingMSA/NY_5249/IMG_8_5249.jpg"",""SV_PolicingMSA/NY_5249/IMG_11_5249.jpg"",""SV_PolicingMSA/NY_5249/IMG_10_5249.jpg"",""SV_PolicingMSA/NY_5249/IMG_0_5249.jpg"",""SV_PolicingMSA/NY_5249/IMG_4_5249.jpg"",""SV_PolicingMSA/NY_5249/IMG_9_5249.jpg""]","3","","","","","","1","","4","[""./rc_img/cop_condGroup_14_CommunitySafety_autoscaled.png"",""./rc_img/cop_condGroup_14_SafeStreets_autoscaled.png""]","3","",""
"sliderTrial","html-slider-response","91","309388","0.0-91.0","","656776a7904ae00d6b91d1dd","6568a6ddf7b6f86a69cda249","11","","","","","","","","","","","","1945","[""SV_PolicingMSA/NY_5249/IMG_1_5249.jpg"",""SV_PolicingMSA/NY_5249/IMG_7_5249.jpg"",""SV_PolicingMSA/NY_5249/IMG_8_5249.jpg"",""SV_PolicingMSA/NY_5249/IMG_11_5249.jpg"",""SV_PolicingMSA/NY_5249/IMG_10_5249.jpg"",""SV_PolicingMSA/NY_5249/IMG_0_5249.jpg"",""SV_PolicingMSA/NY_5249/IMG_4_5249.jpg"",""SV_PolicingMSA/NY_5249/IMG_9_5249.jpg""]","3","","","","","","1","","4","[""./rc_img/cop_condGroup_15_SafeStreets_autoscaled.png"",""./rc_img/cop_condGroup_15_CommunitySafety_autoscaled.png""]","5","",""
"sliderTrial","html-slider-response","92","311229","0.0-92.0","","656776a7904ae00d6b91d1dd","6568a6ddf7b6f86a69cda249","11","","","","","","","","","","","","1839","[""SV_PolicingMSA/NY_5249/IMG_1_5249.jpg"",""SV_PolicingMSA/NY_5249/IMG_7_5249.jpg"",""SV_PolicingMSA/NY_5249/IMG_8_5249.jpg"",""SV_PolicingMSA/NY_5249/IMG_11_5249.jpg"",""SV_PolicingMSA/NY_5249/IMG_10_5249.jpg"",""SV_PolicingMSA/NY_5249/IMG_0_5249.jpg"",""SV_PolicingMSA/NY_5249/IMG_4_5249.jpg"",""SV_PolicingMSA/NY_5249/IMG_9_5249.jpg""]","5","","","","","","1","","4","[""./rc_img/cop_condGroup_13_SafeStreets_autoscaled.png"",""./rc_img/cop_condGroup_13_CommunitySafety_autoscaled.png""]","3","",""
"before_SVSlide_prompt","html-button-response","93","312551","0.0-93.0","","656776a7904ae00d6b91d1dd","6568a6ddf7b6f86a69cda249","11","","","","","","","","","","","","1321","Click [Next] to see the next neighborhood!","0","","","","","","","","","","","",""
"street view slide show","image-button-response","94","313562","0.0-94.0","","656776a7904ae00d6b91d1dd","6568a6ddf7b6f86a69cda249","11","","","","","","","","","","","","null","stimulus/SV_PolicingMSA/NY_5291/IMG_14_5291.jpg","null","","","","","","4","","","","","",""
"street view slide show","image-button-response","95","314577","0.0-95.0","","656776a7904ae00d6b91d1dd","6568a6ddf7b6f86a69cda249","11","","","","","","","","","","","","null","stimulus/SV_PolicingMSA/NY_5291/IMG_6_5291.jpg","null","","","","","","4","","","","","",""
"street view slide show","image-button-response","96","315589","0.0-96.0","","656776a7904ae00d6b91d1dd","6568a6ddf7b6f86a69cda249","11","","","","","","","","","","","","null","stimulus/SV_PolicingMSA/NY_5291/IMG_3_5291.jpg","null","","","","","","4","","","","","",""
"street view slide show","image-button-response","97","316604","0.0-97.0","","656776a7904ae00d6b91d1dd","6568a6ddf7b6f86a69cda249","11","","","","","","","","","","","","null","stimulus/SV_PolicingMSA/NY_5291/IMG_5_5291.jpg","null","","","","","","4","","","","","",""
"street view slide show","image-button-response","98","317613","0.0-98.0","","656776a7904ae00d6b91d1dd","6568a6ddf7b6f86a69cda249","11","","","","","","","","","","","","null","stimulus/SV_PolicingMSA/NY_5291/IMG_8_5291.jpg","null","","","","","","4","","","","","",""
"street view slide show","image-button-response","99","318627","0.0-99.0","","656776a7904ae00d6b91d1dd","6568a6ddf7b6f86a69cda249","11","","","","","","","","","","","","null","stimulus/SV_PolicingMSA/NY_5291/IMG_9_5291.jpg","null","","","","","","4","","","","","",""
"street view slide show","image-button-response","100","319641","0.0-100.0","","656776a7904ae00d6b91d1dd","6568a6ddf7b6f86a69cda249","11","","","","","","","","","","","","null","stimulus/SV_PolicingMSA/NY_5291/IMG_4_5291.jpg","null","","","","","","4","","","","","",""
"street view slide show","image-button-response","101","320656","0.0-101.0","","656776a7904ae00d6b91d1dd","6568a6ddf7b6f86a69cda249","11","","","","","","","","","","","","null","stimulus/SV_PolicingMSA/NY_5291/IMG_2_5291.jpg","null","","","","","","4","","","","","",""
"dot matrix survey1","survey","102","325215","0.0-102.0","","656776a7904ae00d6b91d1dd","6568a6ddf7b6f86a69cda249","11","","","","","","","","","","","","4542","","{""P0_Q0"":null,""P0_Q1"":{""wealthy"":3,""safe"":3,""walkable"":3,""traditional"":3,""diverse"":3}}","","","","","","4","[]","","","","",""
"dot matrix survey2","survey","103","331371","0.0-103.0","","656776a7904ae00d6b91d1dd","6568a6ddf7b6f86a69cda249","11","","","","","","","","","","","","6138","","{""P0_Q0"":null,""P0_Q1"":{""violence"":1,""crime"":1,""drug"":1,""schools"":3,""opportunities"":3}}","","","","","","4","[]","","","","",""
"dot matrix survey3","survey","104","339300","0.0-104.0","","656776a7904ae00d6b91d1dd","6568a6ddf7b6f86a69cda249","11","","","","","","","","","","","","7916","","{""P0_Q0"":null,""P0_Q1"":{""movein"":3,""moveout"":1,""shopping"":3,""walk"":3,""park"":3,""school"":3}}","","","","","","4","[]","","","","",""
"sliderTrial","html-slider-response","105","340906","0.0-105.0","","656776a7904ae00d6b91d1dd","6568a6ddf7b6f86a69cda249","11","","","","","","","","","","","","1603","[""SV_PolicingMSA/NY_5291/IMG_14_5291.jpg"",""SV_PolicingMSA/NY_5291/IMG_6_5291.jpg"",""SV_PolicingMSA/NY_5291/IMG_3_5291.jpg"",""SV_PolicingMSA/NY_5291/IMG_5_5291.jpg"",""SV_PolicingMSA/NY_5291/IMG_8_5291.jpg"",""SV_PolicingMSA/NY_5291/IMG_9_5291.jpg"",""SV_PolicingMSA/NY_5291/IMG_4_5291.jpg"",""SV_PolicingMSA/NY_5291/IMG_2_5291.jpg""]","3","","","","","","4","","4","[""./rc_img/cop_condGroup_8_CommunitySafety_autoscaled.png"",""./rc_img/cop_condGroup_8_SafeStreets_autoscaled.png""]","3","",""
"sliderTrial","html-slider-response","106","342341","0.0-106.0","","656776a7904ae00d6b91d1dd","6568a6ddf7b6f86a69cda249","11","","","","","","","","","","","","1433","[""SV_PolicingMSA/NY_5291/IMG_14_5291.jpg"",""SV_PolicingMSA/NY_5291/IMG_6_5291.jpg"",""SV_PolicingMSA/NY_5291/IMG_3_5291.jpg"",""SV_PolicingMSA/NY_5291/IMG_5_5291.jpg"",""SV_PolicingMSA/NY_5291/IMG_8_5291.jpg"",""SV_PolicingMSA/NY_5291/IMG_9_5291.jpg"",""SV_PolicingMSA/NY_5291/IMG_4_5291.jpg"",""SV_PolicingMSA/NY_5291/IMG_2_5291.jpg""]","3","","","","","","4","","4","[""./rc_img/cop_condGroup_5_CommunitySafety_autoscaled.png"",""./rc_img/cop_condGroup_5_SafeStreets_autoscaled.png""]","3","",""
"sliderTrial","html-slider-response","107","344125","0.0-107.0","","656776a7904ae00d6b91d1dd","6568a6ddf7b6f86a69cda249","11","","","","","","","","","","","","1782","[""SV_PolicingMSA/NY_5291/IMG_14_5291.jpg"",""SV_PolicingMSA/NY_5291/IMG_6_5291.jpg"",""SV_PolicingMSA/NY_5291/IMG_3_5291.jpg"",""SV_PolicingMSA/NY_5291/IMG_5_5291.jpg"",""SV_PolicingMSA/NY_5291/IMG_8_5291.jpg"",""SV_PolicingMSA/NY_5291/IMG_9_5291.jpg"",""SV_PolicingMSA/NY_5291/IMG_4_5291.jpg"",""SV_PolicingMSA/NY_5291/IMG_2_5291.jpg""]","3","","","","","","4","","4","[""./rc_img/cop_condGroup_9_CommunitySafety_autoscaled.png"",""./rc_img/cop_condGroup_9_SafeStreets_autoscaled.png""]","3","",""
"sliderTrial","html-slider-response","108","345876","0.0-108.0","","656776a7904ae00d6b91d1dd","6568a6ddf7b6f86a69cda249","11","","","","","","","","","","","","1747","[""SV_PolicingMSA/NY_5291/IMG_14_5291.jpg"",""SV_PolicingMSA/NY_5291/IMG_6_5291.jpg"",""SV_PolicingMSA/NY_5291/IMG_3_5291.jpg"",""SV_PolicingMSA/NY_5291/IMG_5_5291.jpg"",""SV_PolicingMSA/NY_5291/IMG_8_5291.jpg"",""SV_PolicingMSA/NY_5291/IMG_9_5291.jpg"",""SV_PolicingMSA/NY_5291/IMG_4_5291.jpg"",""SV_PolicingMSA/NY_5291/IMG_2_5291.jpg""]","5","","","","","","4","","4","[""./rc_img/cop_condGroup_11_SafeStreets_autoscaled.png"",""./rc_img/cop_condGroup_11_CommunitySafety_autoscaled.png""]","3","",""
"sliderTrial","html-slider-response","109","347860","0.0-109.0","","656776a7904ae00d6b91d1dd","6568a6ddf7b6f86a69cda249","11","","","","","","","","","","","","1983","[""SV_PolicingMSA/NY_5291/IMG_14_5291.jpg"",""SV_PolicingMSA/NY_5291/IMG_6_5291.jpg"",""SV_PolicingMSA/NY_5291/IMG_3_5291.jpg"",""SV_PolicingMSA/NY_5291/IMG_5_5291.jpg"",""SV_PolicingMSA/NY_5291/IMG_8_5291.jpg"",""SV_PolicingMSA/NY_5291/IMG_9_5291.jpg"",""SV_PolicingMSA/NY_5291/IMG_4_5291.jpg"",""SV_PolicingMSA/NY_5291/IMG_2_5291.jpg""]","5","","","","","","4","","4","[""./rc_img/cop_condGroup_6_SafeStreets_autoscaled.png"",""./rc_img/cop_condGroup_6_CommunitySafety_autoscaled.png""]","3","",""
"before_SVSlide_prompt","html-button-response","110","349000","0.0-110.0","","656776a7904ae00d6b91d1dd","6568a6ddf7b6f86a69cda249","11","","","","","","","","","","","","1139","Click [Next] to see the next neighborhood!","0","","","","","","","","","","","",""
"street view slide show","image-button-response","111","350013","0.0-111.0","","656776a7904ae00d6b91d1dd","6568a6ddf7b6f86a69cda249","11","","","","","","","","","","","","null","stimulus/SV_PolicingMSA/NJ_979/IMG_2_979.jpg","null","","","","","","0","","","","","",""
"street view slide show","image-button-response","112","351027","0.0-112.0","","656776a7904ae00d6b91d1dd","6568a6ddf7b6f86a69cda249","11","","","","","","","","","","","","null","stimulus/SV_PolicingMSA/NJ_979/IMG_1_979.jpg","null","","","","","","0","","","","","",""
"street view slide show","image-button-response","113","352041","0.0-113.0","","656776a7904ae00d6b91d1dd","6568a6ddf7b6f86a69cda249","11","","","","","","","","","","","","null","stimulus/SV_PolicingMSA/NJ_979/IMG_3_979.jpg","null","","","","","","0","","","","","",""
"street view slide show","image-button-response","114","353055","0.0-114.0","","656776a7904ae00d6b91d1dd","6568a6ddf7b6f86a69cda249","11","","","","","","","","","","","","null","stimulus/SV_PolicingMSA/NJ_979/IMG_10_979.jpg","null","","","","","","0","","","","","",""
"street view slide show","image-button-response","115","354070","0.0-115.0","","656776a7904ae00d6b91d1dd","6568a6ddf7b6f86a69cda249","11","","","","","","","","","","","","null","stimulus/SV_PolicingMSA/NJ_979/IMG_8_979.jpg","null","","","","","","0","","","","","",""
"street view slide show","image-button-response","116","355085","0.0-116.0","","656776a7904ae00d6b91d1dd","6568a6ddf7b6f86a69cda249","11","","","","","","","","","","","","null","stimulus/SV_PolicingMSA/NJ_979/IMG_13_979.jpg","null","","","","","","0","","","","","",""
"street view slide show","image-button-response","117","356098","0.0-117.0","","656776a7904ae00d6b91d1dd","6568a6ddf7b6f86a69cda249","11","","","","","","","","","","","","null","stimulus/SV_PolicingMSA/NJ_979/IMG_7_979.jpg","null","","","","","","0","","","","","",""
"street view slide show","image-button-response","118","357113","0.0-118.0","","656776a7904ae00d6b91d1dd","6568a6ddf7b6f86a69cda249","11","","","","","","","","","","","","null","stimulus/SV_PolicingMSA/NJ_979/IMG_12_979.jpg","null","","","","","","0","","","","","",""
"dot matrix survey1","survey","119","364484","0.0-119.0","","656776a7904ae00d6b91d1dd","6568a6ddf7b6f86a69cda249","11","","","","","","","","","","","","7355","","{""P0_Q0"":null,""P0_Q1"":{""wealthy"":2,""safe"":2,""walkable"":2,""traditional"":2,""diverse"":2}}","","","","","","0","[]","","","","",""
"dot matrix survey2","survey","120","369008","0.0-120.0","","656776a7904ae00d6b91d1dd","6568a6ddf7b6f86a69cda249","11","","","","","","","","","","","","4505","","{""P0_Q0"":null,""P0_Q1"":{""violence"":2,""crime"":2,""drug"":2,""schools"":2,""opportunities"":2}}","","","","","","0","[]","","","","",""
"dot matrix survey3","survey","121","378985","0.0-121.0","","656776a7904ae00d6b91d1dd","6568a6ddf7b6f86a69cda249","11","","","","","","","","","","","","9964","","{""P0_Q0"":null,""P0_Q1"":{""movein"":2,""moveout"":1,""shopping"":2,""walk"":2,""park"":2,""school"":2}}","","","","","","0","[]","","","","",""
"sliderTrial","html-slider-response","122","382569","0.0-122.0","","656776a7904ae00d6b91d1dd","6568a6ddf7b6f86a69cda249","11","","","","","","","","","","","","3574","[""SV_PolicingMSA/NJ_979/IMG_2_979.jpg"",""SV_PolicingMSA/NJ_979/IMG_1_979.jpg"",""SV_PolicingMSA/NJ_979/IMG_3_979.jpg"",""SV_PolicingMSA/NJ_979/IMG_10_979.jpg"",""SV_PolicingMSA/NJ_979/IMG_8_979.jpg"",""SV_PolicingMSA/NJ_979/IMG_13_979.jpg"",""SV_PolicingMSA/NJ_979/IMG_7_979.jpg"",""SV_PolicingMSA/NJ_979/IMG_12_979.jpg""]","5","","","","","","0","","4","[""./rc_img/cop_condGroup_19_SafeStreets_autoscaled.png"",""./rc_img/cop_condGroup_19_CommunitySafety_autoscaled.png""]","3","",""
"sliderTrial","html-slider-response","123","384643","0.0-123.0","","656776a7904ae00d6b91d1dd","6568a6ddf7b6f86a69cda249","11","","","","","","","","","","","","2071","[""SV_PolicingMSA/NJ_979/IMG_2_979.jpg"",""SV_PolicingMSA/NJ_979/IMG_1_979.jpg"",""SV_PolicingMSA/NJ_979/IMG_3_979.jpg"",""SV_PolicingMSA/NJ_979/IMG_10_979.jpg"",""SV_PolicingMSA/NJ_979/IMG_8_979.jpg"",""SV_PolicingMSA/NJ_979/IMG_13_979.jpg"",""SV_PolicingMSA/NJ_979/IMG_7_979.jpg"",""SV_PolicingMSA/NJ_979/IMG_12_979.jpg""]","3","","","","","","0","","4","[""./rc_img/cop_condGroup_17_CommunitySafety_autoscaled.png"",""./rc_img/cop_condGroup_17_SafeStreets_autoscaled.png""]","3","",""
"sliderTrial","html-slider-response","124","386622","0.0-124.0","","656776a7904ae00d6b91d1dd","6568a6ddf7b6f86a69cda249","11","","","","","","","","","","","","1977","[""SV_PolicingMSA/NJ_979/IMG_2_979.jpg"",""SV_PolicingMSA/NJ_979/IMG_1_979.jpg"",""SV_PolicingMSA/NJ_979/IMG_3_979.jpg"",""SV_PolicingMSA/NJ_979/IMG_10_979.jpg"",""SV_PolicingMSA/NJ_979/IMG_8_979.jpg"",""SV_PolicingMSA/NJ_979/IMG_13_979.jpg"",""SV_PolicingMSA/NJ_979/IMG_7_979.jpg"",""SV_PolicingMSA/NJ_979/IMG_12_979.jpg""]","5","","","","","","0","","4","[""./rc_img/cop_condGroup_20_SafeStreets_autoscaled.png"",""./rc_img/cop_condGroup_20_CommunitySafety_autoscaled.png""]","3","",""
"sliderTrial","html-slider-response","125","389250","0.0-125.0","","656776a7904ae00d6b91d1dd","6568a6ddf7b6f86a69cda249","11","","","","","","","","","","","","2618","[""SV_PolicingMSA/NJ_979/IMG_2_979.jpg"",""SV_PolicingMSA/NJ_979/IMG_1_979.jpg"",""SV_PolicingMSA/NJ_979/IMG_3_979.jpg"",""SV_PolicingMSA/NJ_979/IMG_10_979.jpg"",""SV_PolicingMSA/NJ_979/IMG_8_979.jpg"",""SV_PolicingMSA/NJ_979/IMG_13_979.jpg"",""SV_PolicingMSA/NJ_979/IMG_7_979.jpg"",""SV_PolicingMSA/NJ_979/IMG_12_979.jpg""]","5","","","","","","0","","4","[""./rc_img/cop_condGroup_18_SafeStreets_autoscaled.png"",""./rc_img/cop_condGroup_18_CommunitySafety_autoscaled.png""]","3","",""
"sliderTrial_attention","html-slider-response","126","399255","0.0-126.0","","656776a7904ae00d6b91d1dd","6568a6ddf7b6f86a69cda249","11","","","","","","","","","","","","null","[""SV_PolicingMSA/NJ_979/IMG_2_979.jpg"",""SV_PolicingMSA/NJ_979/IMG_1_979.jpg"",""SV_PolicingMSA/NJ_979/IMG_3_979.jpg"",""SV_PolicingMSA/NJ_979/IMG_10_979.jpg"",""SV_PolicingMSA/NJ_979/IMG_8_979.jpg"",""SV_PolicingMSA/NJ_979/IMG_13_979.jpg"",""SV_PolicingMSA/NJ_979/IMG_7_979.jpg"",""SV_PolicingMSA/NJ_979/IMG_12_979.jpg""]","null","","","","","","0","","4","[""./assets/img/attnchk.png"",""./assets/img/attnchk.png""]","","true",""
"sliderTrial","html-slider-response","127","405087","0.0-127.0","","656776a7904ae00d6b91d1dd","6568a6ddf7b6f86a69cda249","11","","","","","","","","","","","","5829","[""SV_PolicingMSA/NJ_979/IMG_2_979.jpg"",""SV_PolicingMSA/NJ_979/IMG_1_979.jpg"",""SV_PolicingMSA/NJ_979/IMG_3_979.jpg"",""SV_PolicingMSA/NJ_979/IMG_10_979.jpg"",""SV_PolicingMSA/NJ_979/IMG_8_979.jpg"",""SV_PolicingMSA/NJ_979/IMG_13_979.jpg"",""SV_PolicingMSA/NJ_979/IMG_7_979.jpg"",""SV_PolicingMSA/NJ_979/IMG_12_979.jpg""]","3","","","","","","0","","4","[""./rc_img/cop_condGroup_10_CommunitySafety_autoscaled.png"",""./rc_img/cop_condGroup_10_SafeStreets_autoscaled.png""]","3","",""
"before_SVSlide_prompt","html-button-response","128","406234","0.0-128.0","","656776a7904ae00d6b91d1dd","6568a6ddf7b6f86a69cda249","11","","","","","","","","","","","","1143","Click [Next] to see the next neighborhood!","0","","","","","","","","","","","",""
"street view slide show","image-button-response","129","407246","0.0-129.0","","656776a7904ae00d6b91d1dd","6568a6ddf7b6f86a69cda249","11","","","","","","","","","","","","null","stimulus/SV_PolicingMSA/NY_2731/IMG_2_2731.jpg","null","","","","","","3","","","","","",""
"street view slide show","image-button-response","130","408270","0.0-130.0","","656776a7904ae00d6b91d1dd","6568a6ddf7b6f86a69cda249","11","","","","","","","","","","","","null","stimulus/SV_PolicingMSA/NY_2731/IMG_9_2731.jpg","null","","","","","","3","","","","","",""
"street view slide show","image-button-response","131","409285","0.0-131.0","","656776a7904ae00d6b91d1dd","6568a6ddf7b6f86a69cda249","11","","","","","","","","","","","","null","stimulus/SV_PolicingMSA/NY_2731/IMG_3_2731.jpg","null","","","","","","3","","","","","",""
"street view slide show","image-button-response","132","410300","0.0-132.0","","656776a7904ae00d6b91d1dd","6568a6ddf7b6f86a69cda249","11","","","","","","","","","","","","null","stimulus/SV_PolicingMSA/NY_2731/IMG_11_2731.jpg","null","","","","","","3","","","","","",""
"street view slide show","image-button-response","133","411314","0.0-133.0","","656776a7904ae00d6b91d1dd","6568a6ddf7b6f86a69cda249","11","","","","","","","","","","","","null","stimulus/SV_PolicingMSA/NY_2731/IMG_5_2731.jpg","null","","","","","","3","","","","","",""
"street view slide show","image-button-response","134","412328","0.0-134.0","","656776a7904ae00d6b91d1dd","6568a6ddf7b6f86a69cda249","11","","","","","","","","","","","","null","stimulus/SV_PolicingMSA/NY_2731/IMG_8_2731.jpg","null","","","","","","3","","","","","",""
"street view slide show","image-button-response","135","413342","0.0-135.0","","656776a7904ae00d6b91d1dd","6568a6ddf7b6f86a69cda249","11","","","","","","","","","","","","null","stimulus/SV_PolicingMSA/NY_2731/IMG_12_2731.jpg","null","","","","","","3","","","","","",""
"street view slide show","image-button-response","136","414357","0.0-136.0","","656776a7904ae00d6b91d1dd","6568a6ddf7b6f86a69cda249","11","","","","","","","","","","","","null","stimulus/SV_PolicingMSA/NY_2731/IMG_10_2731.jpg","null","","","","","","3","","","","","",""
"dot matrix survey1","survey","137","418871","0.0-137.0","","656776a7904ae00d6b91d1dd","6568a6ddf7b6f86a69cda249","11","","","","","","","","","","","","4492","","{""P0_Q0"":null,""P0_Q1"":{""wealthy"":3,""safe"":3,""walkable"":3,""traditional"":3,""diverse"":3}}","","","","","","3","[]","","","","",""
"dot matrix survey2","survey","138","427288","0.0-138.0","","656776a7904ae00d6b91d1dd","6568a6ddf7b6f86a69cda249","11","","","","","","","","","","","","8405","","{""P0_Q0"":null,""P0_Q1"":{""violence"":1,""crime"":1,""drug"":1,""schools"":3,""opportunities"":3}}","","","","","","3","[]","","","","",""
"dot matrix survey3","survey","139","438921","0.0-139.0","","656776a7904ae00d6b91d1dd","6568a6ddf7b6f86a69cda249","11","","","","","","","","","","","","11622","","{""P0_Q0"":null,""P0_Q1"":{""movein"":3,""moveout"":1,""shopping"":3,""walk"":2,""park"":2,""school"":3}}","","","","","","3","[]","","","","",""
"sliderTrial","html-slider-response","140","440965","0.0-140.0","","656776a7904ae00d6b91d1dd","6568a6ddf7b6f86a69cda249","11","","","","","","","","","","","","2043","[""SV_PolicingMSA/NY_2731/IMG_2_2731.jpg"",""SV_PolicingMSA/NY_2731/IMG_9_2731.jpg"",""SV_PolicingMSA/NY_2731/IMG_3_2731.jpg"",""SV_PolicingMSA/NY_2731/IMG_11_2731.jpg"",""SV_PolicingMSA/NY_2731/IMG_5_2731.jpg"",""SV_PolicingMSA/NY_2731/IMG_8_2731.jpg"",""SV_PolicingMSA/NY_2731/IMG_12_2731.jpg"",""SV_PolicingMSA/NY_2731/IMG_10_2731.jpg""]","3","","","","","","3","","4","[""./rc_img/cop_condGroup_3_CommunitySafety_autoscaled.png"",""./rc_img/cop_condGroup_3_SafeStreets_autoscaled.png""]","3","",""
"sliderTrial","html-slider-response","141","443475","0.0-141.0","","656776a7904ae00d6b91d1dd","6568a6ddf7b6f86a69cda249","11","","","","","","","","","","","","2508","[""SV_PolicingMSA/NY_2731/IMG_2_2731.jpg"",""SV_PolicingMSA/NY_2731/IMG_9_2731.jpg"",""SV_PolicingMSA/NY_2731/IMG_3_2731.jpg"",""SV_PolicingMSA/NY_2731/IMG_11_2731.jpg"",""SV_PolicingMSA/NY_2731/IMG_5_2731.jpg"",""SV_PolicingMSA/NY_2731/IMG_8_2731.jpg"",""SV_PolicingMSA/NY_2731/IMG_12_2731.jpg"",""SV_PolicingMSA/NY_2731/IMG_10_2731.jpg""]","3","","","","","","3","","4","[""./rc_img/cop_condGroup_4_CommunitySafety_autoscaled.png"",""./rc_img/cop_condGroup_4_SafeStreets_autoscaled.png""]","3","",""
"sliderTrial","html-slider-response","142","445598","0.0-142.0","","656776a7904ae00d6b91d1dd","6568a6ddf7b6f86a69cda249","11","","","","","","","","","","","","2120","[""SV_PolicingMSA/NY_2731/IMG_2_2731.jpg"",""SV_PolicingMSA/NY_2731/IMG_9_2731.jpg"",""SV_PolicingMSA/NY_2731/IMG_3_2731.jpg"",""SV_PolicingMSA/NY_2731/IMG_11_2731.jpg"",""SV_PolicingMSA/NY_2731/IMG_5_2731.jpg"",""SV_PolicingMSA/NY_2731/IMG_8_2731.jpg"",""SV_PolicingMSA/NY_2731/IMG_12_2731.jpg"",""SV_PolicingMSA/NY_2731/IMG_10_2731.jpg""]","5","","","","","","3","","4","[""./rc_img/cop_condGroup_2_SafeStreets_autoscaled.png"",""./rc_img/cop_condGroup_2_CommunitySafety_autoscaled.png""]","3","",""
"sliderTrial","html-slider-response","143","447818","0.0-143.0","","656776a7904ae00d6b91d1dd","6568a6ddf7b6f86a69cda249","11","","","","","","","","","","","","2215","[""SV_PolicingMSA/NY_2731/IMG_2_2731.jpg"",""SV_PolicingMSA/NY_2731/IMG_9_2731.jpg"",""SV_PolicingMSA/NY_2731/IMG_3_2731.jpg"",""SV_PolicingMSA/NY_2731/IMG_11_2731.jpg"",""SV_PolicingMSA/NY_2731/IMG_5_2731.jpg"",""SV_PolicingMSA/NY_2731/IMG_8_2731.jpg"",""SV_PolicingMSA/NY_2731/IMG_12_2731.jpg"",""SV_PolicingMSA/NY_2731/IMG_10_2731.jpg""]","5","","","","","","3","","4","[""./rc_img/cop_condGroup_1_SafeStreets_autoscaled.png"",""./rc_img/cop_condGroup_1_CommunitySafety_autoscaled.png""]","3","",""
"sliderTrial","html-slider-response","144","450069","0.0-144.0","","656776a7904ae00d6b91d1dd","6568a6ddf7b6f86a69cda249","11","","","","","","","","","","","","2249","[""SV_PolicingMSA/NY_2731/IMG_2_2731.jpg"",""SV_PolicingMSA/NY_2731/IMG_9_2731.jpg"",""SV_PolicingMSA/NY_2731/IMG_3_2731.jpg"",""SV_PolicingMSA/NY_2731/IMG_11_2731.jpg"",""SV_PolicingMSA/NY_2731/IMG_5_2731.jpg"",""SV_PolicingMSA/NY_2731/IMG_8_2731.jpg"",""SV_PolicingMSA/NY_2731/IMG_12_2731.jpg"",""SV_PolicingMSA/NY_2731/IMG_10_2731.jpg""]","3","","","","","","3","","4","[""./rc_img/cop_condGroup_7_CommunitySafety_autoscaled.png"",""./rc_img/cop_condGroup_7_SafeStreets_autoscaled.png""]","3","",""
"demographics","survey-html-form","145","464880","0.0-145.0","","656776a7904ae00d6b91d1dd","6568a6ddf7b6f86a69cda249","11","","","","","","","","","","","","14806","","{""age"":""21"",""sex"":""female"",""gender"":""woman"",""gender-self-describe"":"""",""zipcode"":""30040""}","","","","","","","","","","","",""
"demographics-list","survey","146","494765","0.0-146.0","","656776a7904ae00d6b91d1dd","6568a6ddf7b6f86a69cda249","11","","","","","","","","","","","","29826","","{""P0_Q0"":null,""race-ethnicity"":[""White or of European ancestry""],""education"":""Some college"",""P1_Q0"":null,""ideology"":""Moderate"",""P2_Q0"":null,""num-moves"":1,""P3_Q0"":null,""social-ladder"":8}","","","","","","","[]","","","","",""
"end-survey","survey-text","147","502054","0.0-147.0","","656776a7904ae00d6b91d1dd","6568a6ddf7b6f86a69cda249","11","","","","","","","","","","","","7283","","{""Q0"":""""}","","","","","","","","","","","","2"
"end-survey","html-button-response","148","506244","0.0-148.0","","656776a7904ae00d6b91d1dd","6568a6ddf7b6f86a69cda249","11","","","","","","","","","","","","4189","
    You've reached the end of the survey. <br><br> 
    <b>Do not close or refresh this window.</b><br>
    On the next page, you will be automatically redirected to Prolific. <br><br>

    <div class=""alert alert-warning""><b>
    </div>
","0","","","","","","","","","","","",""
