"task","trial_type","trial_index","time_elapsed","internal_node_id","subject_id","study_id","session_id","section","width","height","webaudio","browser","browser_version","mobile","os","fullscreen","vsync_rate","webcam","microphone","rt","stimulus","response","success","timeout","failed_images","failed_audio","failed_video","block","accuracy","slider_start","choices","standardized_response","correct","num_attention_checks_correct"
"pavlovia-init","pavlovia","0","2799","0.0-0.0","","656776a7904ae00d6b91d1dd","6568ac6dbf6ee8b94a46066e","4","","","","","","","","","","","","","","","","","","","","","","","","","",""
"browser-check","browser-check","1","3788","0.0-1.0","","656776a7904ae00d6b91d1dd","6568ac6dbf6ee8b94a46066e","4","1920","955","true","firefox","120.0.0","false","Windows 10","true","60.91","false","true","","","","","","","","","","","","","","",""
"consent","html-button-response","2","129063","0.0-2.0","","656776a7904ae00d6b91d1dd","6568ac6dbf6ee8b94a46066e","4","","","","","","","","","","","","125273","
        <div style=""font-size: 80%; max-width:700px"">
            <h2>CONSENT FORM</h2>
        
            <div style=""text-align: left"">
            <h4>DESCRIPTION</h4>
            <p>
            You will complete a short task where you give your impressions of various neighborhoods and assign individuals to those spaces, and answer some questions about your thoughts and opinions.<br>
            The University of Michigan Institutional Review Board Health Sciences and Behavioral Sciences has determined that this study is exempt from IRB oversight.
            </p>

            <h4>TIME INVOLVEMENT</h4>
            <p>Your participation will take approximately 15 minutes. You will receive $3.15 upon completion of the study.</p>
        
            <h4>RISKS AND BENEFITS</h4>
            <p>
            The risks associated with this study are minimal. The benefits which may reasonably be expected to result from this study are none. We cannot and do not guarantee or promise that you will receive any benefits from this study.
            </p>
          
            <h4>SUBJECT'S RIGHTS</h4>
            <p>
            If you have read this form and have decided to participate in this project, please understand your participation is voluntary and you have the right to withdraw your consent or discontinue participation at any time without penalty or loss of benefits to which you are otherwise entitled. The alternative is not to participate. You have the right to refuse to answer particular questions. Your individual privacy will be maintained in all published and written data resulting from the study.
            </p>

            <h4>HUMAN SUBJECT APPROVAL</h4>
            <p>
            This study is exempt from ongoing IRB review.
            </p>

            <h4>CONTACT INFORMATION</h4>
            If you have any questions, concerns or complaints about this research, its procedures, risks and benefits, contact the Protocol Director, Nicholas Camp, npcamp@umich.edu, (443) 851-6783. <br>

            If you have questions about your rights as a research participant, or wish to obtain information, ask questions or discuss any concerns about this study with someone other than the researcher(s), please contact the following:<br><br>
            University of Michigan<br>
            Health Sciences and Behavioral Sciences Institutional Review Board (IRB-HSBS)<br>
            2800 Plymouth Road<br>
            Building 520, Room 1169Ann Arbor, MI 48109-2800<br>
            Telephone: 734-936-0933 or toll free (866) 936-0933<br>
            Fax: 734-936-1852<br>
            E-mail: irbhsbs@umich.edu<br><br>

            You can also contact the University of Michigan Compliance Hotline at 1-866-990-0111. You may also print this consent form to keep.
            <br><br>
            <div class=""alert alert-warning""><b>
            Do you consent to participate in this study? If you consent to participate in this study, please click “Accept and Continue”. If you select ""Decline and Exit"", you will be exited from the survey. <br>
            </b></div>
            </div>
        </div>
    ","1","","","","","","","","","","","",""
"","preload","3","140901","0.0-3.0","","656776a7904ae00d6b91d1dd","6568ac6dbf6ee8b94a46066e","4","","","","","","","","","","","","","","","true","false","[]","[]","[]","","","","","","",""
"instructions","html-button-response","4","202127","0.0-4.0","","656776a7904ae00d6b91d1dd","6568ac6dbf6ee8b94a46066e","4","","","","","","","","","","","","61225","
        <div class=""text-container"">
        <h1>Welcome to the study!</h1>
        
        <div class=""text-left"">
            <p>
                In this study, we are interested in what people can tell about spaces from Google Street View images. <br> Google Street View takes pictures of streets used for Google Earth and Google Maps. <br>You’ll see Google Street View images of different places and answer some questions about each one.<br>
            </p>
        </div>
        <img src = ""assets/img/example.png"" width = 500px, height = auto>
        <br>
    <br>
    ","0","","","","","","","","","","","",""
"instructions","html-button-response","5","211566","0.0-5.0","","656776a7904ae00d6b91d1dd","6568ac6dbf6ee8b94a46066e","4","","","","","","","","","","","","9439","
    <div class=""text-container"">
        <div class=""text-center"">
            <p>Please remember that your answers are completely anonymous.<br>Go with your gut response- there are no right or wrong answers!</p>
        </div>
    <br>
","0","","","","","","","","","","","",""
"before_SVSlide_prompt","html-button-response","6","216087","0.0-6.0","","656776a7904ae00d6b91d1dd","6568ac6dbf6ee8b94a46066e","4","","","","","","","","","","","","4519","Click [Next] to see the next neighborhood!","0","","","","","","","","","","","",""
"street view slide show","image-button-response","7","217098","0.0-7.0","","656776a7904ae00d6b91d1dd","6568ac6dbf6ee8b94a46066e","4","","","","","","","","","","","","null","stimulus/SV_PolicingMSA/CO_368/IMG_4_368.jpg","null","","","","","","1","","","","","",""
"street view slide show","image-button-response","8","218116","0.0-8.0","","656776a7904ae00d6b91d1dd","6568ac6dbf6ee8b94a46066e","4","","","","","","","","","","","","null","stimulus/SV_PolicingMSA/CO_368/IMG_7_368.jpg","null","","","","","","1","","","","","",""
"street view slide show","image-button-response","9","219136","0.0-9.0","","656776a7904ae00d6b91d1dd","6568ac6dbf6ee8b94a46066e","4","","","","","","","","","","","","null","stimulus/SV_PolicingMSA/CO_368/IMG_6_368.jpg","null","","","","","","1","","","","","",""
"street view slide show","image-button-response","10","220163","0.0-10.0","","656776a7904ae00d6b91d1dd","6568ac6dbf6ee8b94a46066e","4","","","","","","","","","","","","null","stimulus/SV_PolicingMSA/CO_368/IMG_1_368.jpg","null","","","","","","1","","","","","",""
"street view slide show","image-button-response","11","221181","0.0-11.0","","656776a7904ae00d6b91d1dd","6568ac6dbf6ee8b94a46066e","4","","","","","","","","","","","","null","stimulus/SV_PolicingMSA/CO_368/IMG_10_368.jpg","null","","","","","","1","","","","","",""
"street view slide show","image-button-response","12","222200","0.0-12.0","","656776a7904ae00d6b91d1dd","6568ac6dbf6ee8b94a46066e","4","","","","","","","","","","","","null","stimulus/SV_PolicingMSA/CO_368/IMG_9_368.jpg","null","","","","","","1","","","","","",""
"street view slide show","image-button-response","13","223219","0.0-13.0","","656776a7904ae00d6b91d1dd","6568ac6dbf6ee8b94a46066e","4","","","","","","","","","","","","null","stimulus/SV_PolicingMSA/CO_368/IMG_2_368.jpg","null","","","","","","1","","","","","",""
"street view slide show","image-button-response","14","224238","0.0-14.0","","656776a7904ae00d6b91d1dd","6568ac6dbf6ee8b94a46066e","4","","","","","","","","","","","","null","stimulus/SV_PolicingMSA/CO_368/IMG_11_368.jpg","null","","","","","","1","","","","","",""
"dot matrix survey1","survey","15","299383","0.0-15.0","","656776a7904ae00d6b91d1dd","6568ac6dbf6ee8b94a46066e","4","","","","","","","","","","","","75111","","{""P0_Q0"":null,""P0_Q1"":{""wealthy"":4,""safe"":4,""walkable"":3,""traditional"":3,""diverse"":3}}","","","","","","1","[]","","","","",""
"dot matrix survey2","survey","16","335238","0.0-16.0","","656776a7904ae00d6b91d1dd","6568ac6dbf6ee8b94a46066e","4","","","","","","","","","","","","35843","","{""P0_Q0"":null,""P0_Q1"":{""violence"":0,""crime"":0,""drug"":0,""schools"":2,""opportunities"":2}}","","","","","","1","[]","","","","",""
"dot matrix survey3","survey","17","378629","0.0-17.0","","656776a7904ae00d6b91d1dd","6568ac6dbf6ee8b94a46066e","4","","","","","","","","","","","","43383","","{""P0_Q0"":null,""P0_Q1"":{""movein"":4,""moveout"":0,""shopping"":3,""walk"":3,""park"":3,""school"":3}}","","","","","","1","[]","","","","",""
"sliderTrial","html-slider-response","18","432214","0.0-18.0","","656776a7904ae00d6b91d1dd","6568ac6dbf6ee8b94a46066e","4","","","","","","","","","","","","53584","[""SV_PolicingMSA/CO_368/IMG_4_368.jpg"",""SV_PolicingMSA/CO_368/IMG_7_368.jpg"",""SV_PolicingMSA/CO_368/IMG_6_368.jpg"",""SV_PolicingMSA/CO_368/IMG_1_368.jpg"",""SV_PolicingMSA/CO_368/IMG_10_368.jpg"",""SV_PolicingMSA/CO_368/IMG_9_368.jpg"",""SV_PolicingMSA/CO_368/IMG_2_368.jpg"",""SV_PolicingMSA/CO_368/IMG_11_368.jpg""]","7","","","","","","1","","4","[""./rc_img/cop_condGroup_6_SafeStreets_autoscaled.png"",""./rc_img/cop_condGroup_6_CommunitySafety_autoscaled.png""]","1","",""
"sliderTrial","html-slider-response","19","443078","0.0-19.0","","656776a7904ae00d6b91d1dd","6568ac6dbf6ee8b94a46066e","4","","","","","","","","","","","","10862","[""SV_PolicingMSA/CO_368/IMG_4_368.jpg"",""SV_PolicingMSA/CO_368/IMG_7_368.jpg"",""SV_PolicingMSA/CO_368/IMG_6_368.jpg"",""SV_PolicingMSA/CO_368/IMG_1_368.jpg"",""SV_PolicingMSA/CO_368/IMG_10_368.jpg"",""SV_PolicingMSA/CO_368/IMG_9_368.jpg"",""SV_PolicingMSA/CO_368/IMG_2_368.jpg"",""SV_PolicingMSA/CO_368/IMG_11_368.jpg""]","1","","","","","","1","","4","[""./rc_img/cop_condGroup_17_CommunitySafety_autoscaled.png"",""./rc_img/cop_condGroup_17_SafeStreets_autoscaled.png""]","1","",""
"sliderTrial","html-slider-response","20","453998","0.0-20.0","","656776a7904ae00d6b91d1dd","6568ac6dbf6ee8b94a46066e","4","","","","","","","","","","","","10920","[""SV_PolicingMSA/CO_368/IMG_4_368.jpg"",""SV_PolicingMSA/CO_368/IMG_7_368.jpg"",""SV_PolicingMSA/CO_368/IMG_6_368.jpg"",""SV_PolicingMSA/CO_368/IMG_1_368.jpg"",""SV_PolicingMSA/CO_368/IMG_10_368.jpg"",""SV_PolicingMSA/CO_368/IMG_9_368.jpg"",""SV_PolicingMSA/CO_368/IMG_2_368.jpg"",""SV_PolicingMSA/CO_368/IMG_11_368.jpg""]","7","","","","","","1","","4","[""./rc_img/cop_condGroup_9_SafeStreets_autoscaled.png"",""./rc_img/cop_condGroup_9_CommunitySafety_autoscaled.png""]","1","",""
"sliderTrial","html-slider-response","21","464862","0.0-21.0","","656776a7904ae00d6b91d1dd","6568ac6dbf6ee8b94a46066e","4","","","","","","","","","","","","10862","[""SV_PolicingMSA/CO_368/IMG_4_368.jpg"",""SV_PolicingMSA/CO_368/IMG_7_368.jpg"",""SV_PolicingMSA/CO_368/IMG_6_368.jpg"",""SV_PolicingMSA/CO_368/IMG_1_368.jpg"",""SV_PolicingMSA/CO_368/IMG_10_368.jpg"",""SV_PolicingMSA/CO_368/IMG_9_368.jpg"",""SV_PolicingMSA/CO_368/IMG_2_368.jpg"",""SV_PolicingMSA/CO_368/IMG_11_368.jpg""]","1","","","","","","1","","4","[""./rc_img/cop_condGroup_7_CommunitySafety_autoscaled.png"",""./rc_img/cop_condGroup_7_SafeStreets_autoscaled.png""]","1","",""
"sliderTrial_attention","html-slider-response","22","474874","0.0-22.0","","656776a7904ae00d6b91d1dd","6568ac6dbf6ee8b94a46066e","4","","","","","","","","","","","","null","[""SV_PolicingMSA/CO_368/IMG_4_368.jpg"",""SV_PolicingMSA/CO_368/IMG_7_368.jpg"",""SV_PolicingMSA/CO_368/IMG_6_368.jpg"",""SV_PolicingMSA/CO_368/IMG_1_368.jpg"",""SV_PolicingMSA/CO_368/IMG_10_368.jpg"",""SV_PolicingMSA/CO_368/IMG_9_368.jpg"",""SV_PolicingMSA/CO_368/IMG_2_368.jpg"",""SV_PolicingMSA/CO_368/IMG_11_368.jpg""]","null","","","","","","1","","4","[""./assets/img/attnchk.png"",""./assets/img/attnchk.png""]","","true",""
"sliderTrial","html-slider-response","23","529094","0.0-23.0","","656776a7904ae00d6b91d1dd","6568ac6dbf6ee8b94a46066e","4","","","","","","","","","","","","54217","[""SV_PolicingMSA/CO_368/IMG_4_368.jpg"",""SV_PolicingMSA/CO_368/IMG_7_368.jpg"",""SV_PolicingMSA/CO_368/IMG_6_368.jpg"",""SV_PolicingMSA/CO_368/IMG_1_368.jpg"",""SV_PolicingMSA/CO_368/IMG_10_368.jpg"",""SV_PolicingMSA/CO_368/IMG_9_368.jpg"",""SV_PolicingMSA/CO_368/IMG_2_368.jpg"",""SV_PolicingMSA/CO_368/IMG_11_368.jpg""]","7","","","","","","1","","4","[""./rc_img/cop_condGroup_8_SafeStreets_autoscaled.png"",""./rc_img/cop_condGroup_8_CommunitySafety_autoscaled.png""]","1","",""
"before_SVSlide_prompt","html-button-response","24","531430","0.0-24.0","","656776a7904ae00d6b91d1dd","6568ac6dbf6ee8b94a46066e","4","","","","","","","","","","","","2335","Click [Next] to see the next neighborhood!","0","","","","","","","","","","","",""
"street view slide show","image-button-response","25","532448","0.0-25.0","","656776a7904ae00d6b91d1dd","6568ac6dbf6ee8b94a46066e","4","","","","","","","","","","","","null","stimulus/SV_PolicingMSA/CO_252/IMG_14_252.jpg","null","","","","","","0","","","","","",""
"street view slide show","image-button-response","26","533473","0.0-26.0","","656776a7904ae00d6b91d1dd","6568ac6dbf6ee8b94a46066e","4","","","","","","","","","","","","null","stimulus/SV_PolicingMSA/CO_252/IMG_3_252.jpg","null","","","","","","0","","","","","",""
"street view slide show","image-button-response","27","534493","0.0-27.0","","656776a7904ae00d6b91d1dd","6568ac6dbf6ee8b94a46066e","4","","","","","","","","","","","","null","stimulus/SV_PolicingMSA/CO_252/IMG_11_252.jpg","null","","","","","","0","","","","","",""
"street view slide show","image-button-response","28","535509","0.0-28.0","","656776a7904ae00d6b91d1dd","6568ac6dbf6ee8b94a46066e","4","","","","","","","","","","","","null","stimulus/SV_PolicingMSA/CO_252/IMG_6_252.jpg","null","","","","","","0","","","","","",""
"street view slide show","image-button-response","29","536529","0.0-29.0","","656776a7904ae00d6b91d1dd","6568ac6dbf6ee8b94a46066e","4","","","","","","","","","","","","null","stimulus/SV_PolicingMSA/CO_252/IMG_0_252.jpg","null","","","","","","0","","","","","",""
"street view slide show","image-button-response","30","537549","0.0-30.0","","656776a7904ae00d6b91d1dd","6568ac6dbf6ee8b94a46066e","4","","","","","","","","","","","","null","stimulus/SV_PolicingMSA/CO_252/IMG_8_252.jpg","null","","","","","","0","","","","","",""
"street view slide show","image-button-response","31","538567","0.0-31.0","","656776a7904ae00d6b91d1dd","6568ac6dbf6ee8b94a46066e","4","","","","","","","","","","","","null","stimulus/SV_PolicingMSA/CO_252/IMG_7_252.jpg","null","","","","","","0","","","","","",""
"street view slide show","image-button-response","32","539593","0.0-32.0","","656776a7904ae00d6b91d1dd","6568ac6dbf6ee8b94a46066e","4","","","","","","","","","","","","null","stimulus/SV_PolicingMSA/CO_252/IMG_12_252.jpg","null","","","","","","0","","","","","",""
"dot matrix survey1","survey","33","547660","0.0-33.0","","656776a7904ae00d6b91d1dd","6568ac6dbf6ee8b94a46066e","4","","","","","","","","","","","","8054","","{""P0_Q0"":null,""P0_Q1"":{""wealthy"":4,""safe"":4,""walkable"":4,""traditional"":4,""diverse"":4}}","","","","","","0","[]","","","","",""
"dot matrix survey2","survey","34","559436","0.0-34.0","","656776a7904ae00d6b91d1dd","6568ac6dbf6ee8b94a46066e","4","","","","","","","","","","","","11770","","{""P0_Q0"":null,""P0_Q1"":{""violence"":0,""crime"":0,""drug"":0,""schools"":4,""opportunities"":4}}","","","","","","0","[]","","","","",""
"dot matrix survey3","survey","35","575037","0.0-35.0","","656776a7904ae00d6b91d1dd","6568ac6dbf6ee8b94a46066e","4","","","","","","","","","","","","15593","","{""P0_Q0"":null,""P0_Q1"":{""movein"":4,""moveout"":0,""shopping"":4,""walk"":4,""park"":4,""school"":4}}","","","","","","0","[]","","","","",""
"sliderTrial","html-slider-response","36","584446","0.0-36.0","","656776a7904ae00d6b91d1dd","6568ac6dbf6ee8b94a46066e","4","","","","","","","","","","","","9410","[""SV_PolicingMSA/CO_252/IMG_14_252.jpg"",""SV_PolicingMSA/CO_252/IMG_3_252.jpg"",""SV_PolicingMSA/CO_252/IMG_11_252.jpg"",""SV_PolicingMSA/CO_252/IMG_6_252.jpg"",""SV_PolicingMSA/CO_252/IMG_0_252.jpg"",""SV_PolicingMSA/CO_252/IMG_8_252.jpg"",""SV_PolicingMSA/CO_252/IMG_7_252.jpg"",""SV_PolicingMSA/CO_252/IMG_12_252.jpg""]","7","","","","","","0","","4","[""./rc_img/cop_condGroup_5_SafeStreets_autoscaled.png"",""./rc_img/cop_condGroup_5_CommunitySafety_autoscaled.png""]","1","",""
"sliderTrial","html-slider-response","37","591933","0.0-37.0","","656776a7904ae00d6b91d1dd","6568ac6dbf6ee8b94a46066e","4","","","","","","","","","","","","7487","[""SV_PolicingMSA/CO_252/IMG_14_252.jpg"",""SV_PolicingMSA/CO_252/IMG_3_252.jpg"",""SV_PolicingMSA/CO_252/IMG_11_252.jpg"",""SV_PolicingMSA/CO_252/IMG_6_252.jpg"",""SV_PolicingMSA/CO_252/IMG_0_252.jpg"",""SV_PolicingMSA/CO_252/IMG_8_252.jpg"",""SV_PolicingMSA/CO_252/IMG_7_252.jpg"",""SV_PolicingMSA/CO_252/IMG_12_252.jpg""]","1","","","","","","0","","4","[""./rc_img/cop_condGroup_1_CommunitySafety_autoscaled.png"",""./rc_img/cop_condGroup_1_SafeStreets_autoscaled.png""]","1","",""
"sliderTrial","html-slider-response","38","595990","0.0-38.0","","656776a7904ae00d6b91d1dd","6568ac6dbf6ee8b94a46066e","4","","","","","","","","","","","","4056","[""SV_PolicingMSA/CO_252/IMG_14_252.jpg"",""SV_PolicingMSA/CO_252/IMG_3_252.jpg"",""SV_PolicingMSA/CO_252/IMG_11_252.jpg"",""SV_PolicingMSA/CO_252/IMG_6_252.jpg"",""SV_PolicingMSA/CO_252/IMG_0_252.jpg"",""SV_PolicingMSA/CO_252/IMG_8_252.jpg"",""SV_PolicingMSA/CO_252/IMG_7_252.jpg"",""SV_PolicingMSA/CO_252/IMG_12_252.jpg""]","7","","","","","","0","","4","[""./rc_img/cop_condGroup_4_SafeStreets_autoscaled.png"",""./rc_img/cop_condGroup_4_CommunitySafety_autoscaled.png""]","1","",""
"sliderTrial_attention","html-slider-response","39","606029","0.0-39.0","","656776a7904ae00d6b91d1dd","6568ac6dbf6ee8b94a46066e","4","","","","","","","","","","","","null","[""SV_PolicingMSA/CO_252/IMG_14_252.jpg"",""SV_PolicingMSA/CO_252/IMG_3_252.jpg"",""SV_PolicingMSA/CO_252/IMG_11_252.jpg"",""SV_PolicingMSA/CO_252/IMG_6_252.jpg"",""SV_PolicingMSA/CO_252/IMG_0_252.jpg"",""SV_PolicingMSA/CO_252/IMG_8_252.jpg"",""SV_PolicingMSA/CO_252/IMG_7_252.jpg"",""SV_PolicingMSA/CO_252/IMG_12_252.jpg""]","null","","","","","","0","","4","[""./assets/img/attnchk.png"",""./assets/img/attnchk.png""]","","true",""
"sliderTrial","html-slider-response","40","622126","0.0-40.0","","656776a7904ae00d6b91d1dd","6568ac6dbf6ee8b94a46066e","4","","","","","","","","","","","","16096","[""SV_PolicingMSA/CO_252/IMG_14_252.jpg"",""SV_PolicingMSA/CO_252/IMG_3_252.jpg"",""SV_PolicingMSA/CO_252/IMG_11_252.jpg"",""SV_PolicingMSA/CO_252/IMG_6_252.jpg"",""SV_PolicingMSA/CO_252/IMG_0_252.jpg"",""SV_PolicingMSA/CO_252/IMG_8_252.jpg"",""SV_PolicingMSA/CO_252/IMG_7_252.jpg"",""SV_PolicingMSA/CO_252/IMG_12_252.jpg""]","7","","","","","","0","","4","[""./rc_img/cop_condGroup_3_SafeStreets_autoscaled.png"",""./rc_img/cop_condGroup_3_CommunitySafety_autoscaled.png""]","1","",""
"sliderTrial","html-slider-response","41","625309","0.0-41.0","","656776a7904ae00d6b91d1dd","6568ac6dbf6ee8b94a46066e","4","","","","","","","","","","","","3183","[""SV_PolicingMSA/CO_252/IMG_14_252.jpg"",""SV_PolicingMSA/CO_252/IMG_3_252.jpg"",""SV_PolicingMSA/CO_252/IMG_11_252.jpg"",""SV_PolicingMSA/CO_252/IMG_6_252.jpg"",""SV_PolicingMSA/CO_252/IMG_0_252.jpg"",""SV_PolicingMSA/CO_252/IMG_8_252.jpg"",""SV_PolicingMSA/CO_252/IMG_7_252.jpg"",""SV_PolicingMSA/CO_252/IMG_12_252.jpg""]","1","","","","","","0","","4","[""./rc_img/cop_condGroup_2_CommunitySafety_autoscaled.png"",""./rc_img/cop_condGroup_2_SafeStreets_autoscaled.png""]","1","",""
"before_SVSlide_prompt","html-button-response","42","626966","0.0-42.0","","656776a7904ae00d6b91d1dd","6568ac6dbf6ee8b94a46066e","4","","","","","","","","","","","","1654","Click [Next] to see the next neighborhood!","0","","","","","","","","","","","",""
"street view slide show","image-button-response","43","627974","0.0-43.0","","656776a7904ae00d6b91d1dd","6568ac6dbf6ee8b94a46066e","4","","","","","","","","","","","","null","stimulus/SV_PolicingMSA/CO_649/IMG_11_649.jpg","null","","","","","","2","","","","","",""
"street view slide show","image-button-response","44","629000","0.0-44.0","","656776a7904ae00d6b91d1dd","6568ac6dbf6ee8b94a46066e","4","","","","","","","","","","","","null","stimulus/SV_PolicingMSA/CO_649/IMG_6_649.jpg","null","","","","","","2","","","","","",""
"street view slide show","image-button-response","45","630019","0.0-45.0","","656776a7904ae00d6b91d1dd","6568ac6dbf6ee8b94a46066e","4","","","","","","","","","","","","null","stimulus/SV_PolicingMSA/CO_649/IMG_14_649.jpg","null","","","","","","2","","","","","",""
"street view slide show","image-button-response","46","631037","0.0-46.0","","656776a7904ae00d6b91d1dd","6568ac6dbf6ee8b94a46066e","4","","","","","","","","","","","","null","stimulus/SV_PolicingMSA/CO_649/IMG_9_649.jpg","null","","","","","","2","","","","","",""
"street view slide show","image-button-response","47","632056","0.0-47.0","","656776a7904ae00d6b91d1dd","6568ac6dbf6ee8b94a46066e","4","","","","","","","","","","","","null","stimulus/SV_PolicingMSA/CO_649/IMG_12_649.jpg","null","","","","","","2","","","","","",""
"street view slide show","image-button-response","48","633076","0.0-48.0","","656776a7904ae00d6b91d1dd","6568ac6dbf6ee8b94a46066e","4","","","","","","","","","","","","null","stimulus/SV_PolicingMSA/CO_649/IMG_3_649.jpg","null","","","","","","2","","","","","",""
"street view slide show","image-button-response","49","634094","0.0-49.0","","656776a7904ae00d6b91d1dd","6568ac6dbf6ee8b94a46066e","4","","","","","","","","","","","","null","stimulus/SV_PolicingMSA/CO_649/IMG_4_649.jpg","null","","","","","","2","","","","","",""
"street view slide show","image-button-response","50","635182","0.0-50.0","","656776a7904ae00d6b91d1dd","6568ac6dbf6ee8b94a46066e","4","","","","","","","","","","","","null","stimulus/SV_PolicingMSA/CO_649/IMG_8_649.jpg","null","","","","","","2","","","","","",""
"dot matrix survey1","survey","51","643603","0.0-51.0","","656776a7904ae00d6b91d1dd","6568ac6dbf6ee8b94a46066e","4","","","","","","","","","","","","8410","","{""P0_Q0"":null,""P0_Q1"":{""wealthy"":4,""safe"":4,""walkable"":4,""traditional"":4,""diverse"":3}}","","","","","","2","[]","","","","",""
"dot matrix survey2","survey","52","656900","0.0-52.0","","656776a7904ae00d6b91d1dd","6568ac6dbf6ee8b94a46066e","4","","","","","","","","","","","","13290","","{""P0_Q0"":null,""P0_Q1"":{""violence"":0,""crime"":0,""drug"":0,""schools"":4,""opportunities"":4}}","","","","","","2","[]","","","","",""
"dot matrix survey3","survey","53","672011","0.0-53.0","","656776a7904ae00d6b91d1dd","6568ac6dbf6ee8b94a46066e","4","","","","","","","","","","","","15106","","{""P0_Q0"":null,""P0_Q1"":{""movein"":4,""moveout"":0,""shopping"":4,""walk"":4,""park"":4,""school"":4}}","","","","","","2","[]","","","","",""
"sliderTrial","html-slider-response","54","681886","0.0-54.0","","656776a7904ae00d6b91d1dd","6568ac6dbf6ee8b94a46066e","4","","","","","","","","","","","","9873","[""SV_PolicingMSA/CO_649/IMG_11_649.jpg"",""SV_PolicingMSA/CO_649/IMG_6_649.jpg"",""SV_PolicingMSA/CO_649/IMG_14_649.jpg"",""SV_PolicingMSA/CO_649/IMG_9_649.jpg"",""SV_PolicingMSA/CO_649/IMG_12_649.jpg"",""SV_PolicingMSA/CO_649/IMG_3_649.jpg"",""SV_PolicingMSA/CO_649/IMG_4_649.jpg"",""SV_PolicingMSA/CO_649/IMG_8_649.jpg""]","1","","","","","","2","","4","[""./rc_img/cop_condGroup_12_CommunitySafety_autoscaled.png"",""./rc_img/cop_condGroup_12_SafeStreets_autoscaled.png""]","1","",""
"sliderTrial","html-slider-response","55","689382","0.0-55.0","","656776a7904ae00d6b91d1dd","6568ac6dbf6ee8b94a46066e","4","","","","","","","","","","","","7495","[""SV_PolicingMSA/CO_649/IMG_11_649.jpg"",""SV_PolicingMSA/CO_649/IMG_6_649.jpg"",""SV_PolicingMSA/CO_649/IMG_14_649.jpg"",""SV_PolicingMSA/CO_649/IMG_9_649.jpg"",""SV_PolicingMSA/CO_649/IMG_12_649.jpg"",""SV_PolicingMSA/CO_649/IMG_3_649.jpg"",""SV_PolicingMSA/CO_649/IMG_4_649.jpg"",""SV_PolicingMSA/CO_649/IMG_8_649.jpg""]","1","","","","","","2","","4","[""./rc_img/cop_condGroup_14_CommunitySafety_autoscaled.png"",""./rc_img/cop_condGroup_14_SafeStreets_autoscaled.png""]","1","",""
"sliderTrial","html-slider-response","56","696078","0.0-56.0","","656776a7904ae00d6b91d1dd","6568ac6dbf6ee8b94a46066e","4","","","","","","","","","","","","6695","[""SV_PolicingMSA/CO_649/IMG_11_649.jpg"",""SV_PolicingMSA/CO_649/IMG_6_649.jpg"",""SV_PolicingMSA/CO_649/IMG_14_649.jpg"",""SV_PolicingMSA/CO_649/IMG_9_649.jpg"",""SV_PolicingMSA/CO_649/IMG_12_649.jpg"",""SV_PolicingMSA/CO_649/IMG_3_649.jpg"",""SV_PolicingMSA/CO_649/IMG_4_649.jpg"",""SV_PolicingMSA/CO_649/IMG_8_649.jpg""]","7","","","","","","2","","4","[""./rc_img/cop_condGroup_15_SafeStreets_autoscaled.png"",""./rc_img/cop_condGroup_15_CommunitySafety_autoscaled.png""]","1","",""
"sliderTrial","html-slider-response","57","700654","0.0-57.0","","656776a7904ae00d6b91d1dd","6568ac6dbf6ee8b94a46066e","4","","","","","","","","","","","","4576","[""SV_PolicingMSA/CO_649/IMG_11_649.jpg"",""SV_PolicingMSA/CO_649/IMG_6_649.jpg"",""SV_PolicingMSA/CO_649/IMG_14_649.jpg"",""SV_PolicingMSA/CO_649/IMG_9_649.jpg"",""SV_PolicingMSA/CO_649/IMG_12_649.jpg"",""SV_PolicingMSA/CO_649/IMG_3_649.jpg"",""SV_PolicingMSA/CO_649/IMG_4_649.jpg"",""SV_PolicingMSA/CO_649/IMG_8_649.jpg""]","7","","","","","","2","","4","[""./rc_img/cop_condGroup_16_SafeStreets_autoscaled.png"",""./rc_img/cop_condGroup_16_CommunitySafety_autoscaled.png""]","1","",""
"sliderTrial","html-slider-response","58","708533","0.0-58.0","","656776a7904ae00d6b91d1dd","6568ac6dbf6ee8b94a46066e","4","","","","","","","","","","","","7878","[""SV_PolicingMSA/CO_649/IMG_11_649.jpg"",""SV_PolicingMSA/CO_649/IMG_6_649.jpg"",""SV_PolicingMSA/CO_649/IMG_14_649.jpg"",""SV_PolicingMSA/CO_649/IMG_9_649.jpg"",""SV_PolicingMSA/CO_649/IMG_12_649.jpg"",""SV_PolicingMSA/CO_649/IMG_3_649.jpg"",""SV_PolicingMSA/CO_649/IMG_4_649.jpg"",""SV_PolicingMSA/CO_649/IMG_8_649.jpg""]","1","","","","","","2","","4","[""./rc_img/cop_condGroup_10_CommunitySafety_autoscaled.png"",""./rc_img/cop_condGroup_10_SafeStreets_autoscaled.png""]","1","",""
"before_SVSlide_prompt","html-button-response","59","710390","0.0-59.0","","656776a7904ae00d6b91d1dd","6568ac6dbf6ee8b94a46066e","4","","","","","","","","","","","","1855","Click [Next] to see the next neighborhood!","0","","","","","","","","","","","",""
"street view slide show","image-button-response","60","711430","0.0-60.0","","656776a7904ae00d6b91d1dd","6568ac6dbf6ee8b94a46066e","4","","","","","","","","","","","","null","stimulus/SV_PolicingMSA/CO_543/IMG_10_543.jpg","null","","","","","","2","","","","","",""
"street view slide show","image-button-response","61","712448","0.0-61.0","","656776a7904ae00d6b91d1dd","6568ac6dbf6ee8b94a46066e","4","","","","","","","","","","","","null","stimulus/SV_PolicingMSA/CO_543/IMG_6_543.jpg","null","","","","","","2","","","","","",""
"street view slide show","image-button-response","62","713467","0.0-62.0","","656776a7904ae00d6b91d1dd","6568ac6dbf6ee8b94a46066e","4","","","","","","","","","","","","null","stimulus/SV_PolicingMSA/CO_543/IMG_14_543.jpg","null","","","","","","2","","","","","",""
"street view slide show","image-button-response","63","714492","0.0-63.0","","656776a7904ae00d6b91d1dd","6568ac6dbf6ee8b94a46066e","4","","","","","","","","","","","","null","stimulus/SV_PolicingMSA/CO_543/IMG_0_543.jpg","null","","","","","","2","","","","","",""
"street view slide show","image-button-response","64","715511","0.0-64.0","","656776a7904ae00d6b91d1dd","6568ac6dbf6ee8b94a46066e","4","","","","","","","","","","","","null","stimulus/SV_PolicingMSA/CO_543/IMG_5_543.jpg","null","","","","","","2","","","","","",""
"street view slide show","image-button-response","65","716530","0.0-65.0","","656776a7904ae00d6b91d1dd","6568ac6dbf6ee8b94a46066e","4","","","","","","","","","","","","null","stimulus/SV_PolicingMSA/CO_543/IMG_9_543.jpg","null","","","","","","2","","","","","",""
"street view slide show","image-button-response","66","717549","0.0-66.0","","656776a7904ae00d6b91d1dd","6568ac6dbf6ee8b94a46066e","4","","","","","","","","","","","","null","stimulus/SV_PolicingMSA/CO_543/IMG_1_543.jpg","null","","","","","","2","","","","","",""
"street view slide show","image-button-response","67","718569","0.0-67.0","","656776a7904ae00d6b91d1dd","6568ac6dbf6ee8b94a46066e","4","","","","","","","","","","","","null","stimulus/SV_PolicingMSA/CO_543/IMG_13_543.jpg","null","","","","","","2","","","","","",""
"dot matrix survey1","survey","68","726219","0.0-68.0","","656776a7904ae00d6b91d1dd","6568ac6dbf6ee8b94a46066e","4","","","","","","","","","","","","7640","","{""P0_Q0"":null,""P0_Q1"":{""wealthy"":4,""safe"":4,""walkable"":4,""traditional"":4,""diverse"":4}}","","","","","","2","[]","","","","",""
"dot matrix survey2","survey","69","747179","0.0-69.0","","656776a7904ae00d6b91d1dd","6568ac6dbf6ee8b94a46066e","4","","","","","","","","","","","","20953","","{""P0_Q0"":null,""P0_Q1"":{""violence"":0,""crime"":0,""drug"":1,""schools"":3,""opportunities"":4}}","","","","","","2","[]","","","","",""
"dot matrix survey3","survey","70","767283","0.0-70.0","","656776a7904ae00d6b91d1dd","6568ac6dbf6ee8b94a46066e","4","","","","","","","","","","","","20098","","{""P0_Q0"":null,""P0_Q1"":{""movein"":4,""moveout"":0,""shopping"":4,""walk"":3,""park"":4,""school"":3}}","","","","","","2","[]","","","","",""
"sliderTrial","html-slider-response","71","774982","0.0-71.0","","656776a7904ae00d6b91d1dd","6568ac6dbf6ee8b94a46066e","4","","","","","","","","","","","","7697","[""SV_PolicingMSA/CO_543/IMG_10_543.jpg"",""SV_PolicingMSA/CO_543/IMG_6_543.jpg"",""SV_PolicingMSA/CO_543/IMG_14_543.jpg"",""SV_PolicingMSA/CO_543/IMG_0_543.jpg"",""SV_PolicingMSA/CO_543/IMG_5_543.jpg"",""SV_PolicingMSA/CO_543/IMG_9_543.jpg"",""SV_PolicingMSA/CO_543/IMG_1_543.jpg"",""SV_PolicingMSA/CO_543/IMG_13_543.jpg""]","6","","","","","","2","","4","[""./rc_img/cop_condGroup_5_SafeStreets_autoscaled.png"",""./rc_img/cop_condGroup_5_CommunitySafety_autoscaled.png""]","2","",""
"sliderTrial","html-slider-response","72","779325","0.0-72.0","","656776a7904ae00d6b91d1dd","6568ac6dbf6ee8b94a46066e","4","","","","","","","","","","","","4342","[""SV_PolicingMSA/CO_543/IMG_10_543.jpg"",""SV_PolicingMSA/CO_543/IMG_6_543.jpg"",""SV_PolicingMSA/CO_543/IMG_14_543.jpg"",""SV_PolicingMSA/CO_543/IMG_0_543.jpg"",""SV_PolicingMSA/CO_543/IMG_5_543.jpg"",""SV_PolicingMSA/CO_543/IMG_9_543.jpg"",""SV_PolicingMSA/CO_543/IMG_1_543.jpg"",""SV_PolicingMSA/CO_543/IMG_13_543.jpg""]","2","","","","","","2","","4","[""./rc_img/cop_condGroup_1_CommunitySafety_autoscaled.png"",""./rc_img/cop_condGroup_1_SafeStreets_autoscaled.png""]","2","",""
"sliderTrial","html-slider-response","73","783829","0.0-73.0","","656776a7904ae00d6b91d1dd","6568ac6dbf6ee8b94a46066e","4","","","","","","","","","","","","4502","[""SV_PolicingMSA/CO_543/IMG_10_543.jpg"",""SV_PolicingMSA/CO_543/IMG_6_543.jpg"",""SV_PolicingMSA/CO_543/IMG_14_543.jpg"",""SV_PolicingMSA/CO_543/IMG_0_543.jpg"",""SV_PolicingMSA/CO_543/IMG_5_543.jpg"",""SV_PolicingMSA/CO_543/IMG_9_543.jpg"",""SV_PolicingMSA/CO_543/IMG_1_543.jpg"",""SV_PolicingMSA/CO_543/IMG_13_543.jpg""]","6","","","","","","2","","4","[""./rc_img/cop_condGroup_4_SafeStreets_autoscaled.png"",""./rc_img/cop_condGroup_4_CommunitySafety_autoscaled.png""]","2","",""
"sliderTrial","html-slider-response","74","787950","0.0-74.0","","656776a7904ae00d6b91d1dd","6568ac6dbf6ee8b94a46066e","4","","","","","","","","","","","","4120","[""SV_PolicingMSA/CO_543/IMG_10_543.jpg"",""SV_PolicingMSA/CO_543/IMG_6_543.jpg"",""SV_PolicingMSA/CO_543/IMG_14_543.jpg"",""SV_PolicingMSA/CO_543/IMG_0_543.jpg"",""SV_PolicingMSA/CO_543/IMG_5_543.jpg"",""SV_PolicingMSA/CO_543/IMG_9_543.jpg"",""SV_PolicingMSA/CO_543/IMG_1_543.jpg"",""SV_PolicingMSA/CO_543/IMG_13_543.jpg""]","6","","","","","","2","","4","[""./rc_img/cop_condGroup_3_SafeStreets_autoscaled.png"",""./rc_img/cop_condGroup_3_CommunitySafety_autoscaled.png""]","2","",""
"sliderTrial","html-slider-response","75","793398","0.0-75.0","","656776a7904ae00d6b91d1dd","6568ac6dbf6ee8b94a46066e","4","","","","","","","","","","","","5447","[""SV_PolicingMSA/CO_543/IMG_10_543.jpg"",""SV_PolicingMSA/CO_543/IMG_6_543.jpg"",""SV_PolicingMSA/CO_543/IMG_14_543.jpg"",""SV_PolicingMSA/CO_543/IMG_0_543.jpg"",""SV_PolicingMSA/CO_543/IMG_5_543.jpg"",""SV_PolicingMSA/CO_543/IMG_9_543.jpg"",""SV_PolicingMSA/CO_543/IMG_1_543.jpg"",""SV_PolicingMSA/CO_543/IMG_13_543.jpg""]","2","","","","","","2","","4","[""./rc_img/cop_condGroup_2_CommunitySafety_autoscaled.png"",""./rc_img/cop_condGroup_2_SafeStreets_autoscaled.png""]","2","",""
"half-way","html-button-response","76","809776","0.0-76.0","","656776a7904ae00d6b91d1dd","6568ac6dbf6ee8b94a46066e","4","","","","","","","","","","","","null","
    <h3>You are now half way through the study.</h3>
    <p>Please take a quick, 15-second break before you continue.</p>
    <img src='assets/img/countdown-15.gif'>
    <p>The study will automatically advance forward after the countdown is complete. <br> However, you may click ""Next"" to advance forward now if you wish.</p>
    ","null","","","","","","","","","","","",""
"before_SVSlide_prompt","html-button-response","77","812493","0.0-77.0","","656776a7904ae00d6b91d1dd","6568ac6dbf6ee8b94a46066e","4","","","","","","","","","","","","2718","Click [Next] to see the next neighborhood!","0","","","","","","","","","","","",""
"street view slide show","image-button-response","78","813504","0.0-78.0","","656776a7904ae00d6b91d1dd","6568ac6dbf6ee8b94a46066e","4","","","","","","","","","","","","null","stimulus/SV_PolicingMSA/CO_1325/IMG_13_1325.jpg","null","","","","","","3","","","","","",""
"street view slide show","image-button-response","79","814523","0.0-79.0","","656776a7904ae00d6b91d1dd","6568ac6dbf6ee8b94a46066e","4","","","","","","","","","","","","null","stimulus/SV_PolicingMSA/CO_1325/IMG_5_1325.jpg","null","","","","","","3","","","","","",""
"street view slide show","image-button-response","80","815543","0.0-80.0","","656776a7904ae00d6b91d1dd","6568ac6dbf6ee8b94a46066e","4","","","","","","","","","","","","null","stimulus/SV_PolicingMSA/CO_1325/IMG_3_1325.jpg","null","","","","","","3","","","","","",""
"street view slide show","image-button-response","81","816562","0.0-81.0","","656776a7904ae00d6b91d1dd","6568ac6dbf6ee8b94a46066e","4","","","","","","","","","","","","null","stimulus/SV_PolicingMSA/CO_1325/IMG_9_1325.jpg","null","","","","","","3","","","","","",""
"street view slide show","image-button-response","82","817586","0.0-82.0","","656776a7904ae00d6b91d1dd","6568ac6dbf6ee8b94a46066e","4","","","","","","","","","","","","null","stimulus/SV_PolicingMSA/CO_1325/IMG_14_1325.jpg","null","","","","","","3","","","","","",""
"street view slide show","image-button-response","83","818637","0.0-83.0","","656776a7904ae00d6b91d1dd","6568ac6dbf6ee8b94a46066e","4","","","","","","","","","","","","null","stimulus/SV_PolicingMSA/CO_1325/IMG_11_1325.jpg","null","","","","","","3","","","","","",""
"street view slide show","image-button-response","84","819656","0.0-84.0","","656776a7904ae00d6b91d1dd","6568ac6dbf6ee8b94a46066e","4","","","","","","","","","","","","null","stimulus/SV_PolicingMSA/CO_1325/IMG_1_1325.jpg","null","","","","","","3","","","","","",""
"street view slide show","image-button-response","85","820674","0.0-85.0","","656776a7904ae00d6b91d1dd","6568ac6dbf6ee8b94a46066e","4","","","","","","","","","","","","null","stimulus/SV_PolicingMSA/CO_1325/IMG_8_1325.jpg","null","","","","","","3","","","","","",""
"dot matrix survey1","survey","86","836854","0.0-86.0","","656776a7904ae00d6b91d1dd","6568ac6dbf6ee8b94a46066e","4","","","","","","","","","","","","16155","","{""P0_Q0"":null,""P0_Q1"":{""wealthy"":3,""safe"":4,""walkable"":4,""traditional"":4,""diverse"":3}}","","","","","","3","[]","","","","",""
"dot matrix survey2","survey","87","861621","0.0-87.0","","656776a7904ae00d6b91d1dd","6568ac6dbf6ee8b94a46066e","4","","","","","","","","","","","","24758","","{""P0_Q0"":null,""P0_Q1"":{""violence"":0,""crime"":0,""drug"":0,""schools"":3,""opportunities"":4}}","","","","","","3","[]","","","","",""
"dot matrix survey3","survey","88","883829","0.0-88.0","","656776a7904ae00d6b91d1dd","6568ac6dbf6ee8b94a46066e","4","","","","","","","","","","","","22201","","{""P0_Q0"":null,""P0_Q1"":{""movein"":3,""moveout"":0,""shopping"":4,""walk"":2,""park"":2,""school"":2}}","","","","","","3","[]","","","","",""
"sliderTrial","html-slider-response","89","891525","0.0-89.0","","656776a7904ae00d6b91d1dd","6568ac6dbf6ee8b94a46066e","4","","","","","","","","","","","","7694","[""SV_PolicingMSA/CO_1325/IMG_13_1325.jpg"",""SV_PolicingMSA/CO_1325/IMG_5_1325.jpg"",""SV_PolicingMSA/CO_1325/IMG_3_1325.jpg"",""SV_PolicingMSA/CO_1325/IMG_9_1325.jpg"",""SV_PolicingMSA/CO_1325/IMG_14_1325.jpg"",""SV_PolicingMSA/CO_1325/IMG_11_1325.jpg"",""SV_PolicingMSA/CO_1325/IMG_1_1325.jpg"",""SV_PolicingMSA/CO_1325/IMG_8_1325.jpg""]","6","","","","","","3","","4","[""./rc_img/cop_condGroup_6_SafeStreets_autoscaled.png"",""./rc_img/cop_condGroup_6_CommunitySafety_autoscaled.png""]","2","",""
"sliderTrial","html-slider-response","90","895181","0.0-90.0","","656776a7904ae00d6b91d1dd","6568ac6dbf6ee8b94a46066e","4","","","","","","","","","","","","3655","[""SV_PolicingMSA/CO_1325/IMG_13_1325.jpg"",""SV_PolicingMSA/CO_1325/IMG_5_1325.jpg"",""SV_PolicingMSA/CO_1325/IMG_3_1325.jpg"",""SV_PolicingMSA/CO_1325/IMG_9_1325.jpg"",""SV_PolicingMSA/CO_1325/IMG_14_1325.jpg"",""SV_PolicingMSA/CO_1325/IMG_11_1325.jpg"",""SV_PolicingMSA/CO_1325/IMG_1_1325.jpg"",""SV_PolicingMSA/CO_1325/IMG_8_1325.jpg""]","2","","","","","","3","","4","[""./rc_img/cop_condGroup_17_CommunitySafety_autoscaled.png"",""./rc_img/cop_condGroup_17_SafeStreets_autoscaled.png""]","2","",""
"sliderTrial","html-slider-response","91","898109","0.0-91.0","","656776a7904ae00d6b91d1dd","6568ac6dbf6ee8b94a46066e","4","","","","","","","","","","","","2927","[""SV_PolicingMSA/CO_1325/IMG_13_1325.jpg"",""SV_PolicingMSA/CO_1325/IMG_5_1325.jpg"",""SV_PolicingMSA/CO_1325/IMG_3_1325.jpg"",""SV_PolicingMSA/CO_1325/IMG_9_1325.jpg"",""SV_PolicingMSA/CO_1325/IMG_14_1325.jpg"",""SV_PolicingMSA/CO_1325/IMG_11_1325.jpg"",""SV_PolicingMSA/CO_1325/IMG_1_1325.jpg"",""SV_PolicingMSA/CO_1325/IMG_8_1325.jpg""]","6","","","","","","3","","4","[""./rc_img/cop_condGroup_9_SafeStreets_autoscaled.png"",""./rc_img/cop_condGroup_9_CommunitySafety_autoscaled.png""]","2","",""
"sliderTrial","html-slider-response","92","901502","0.0-92.0","","656776a7904ae00d6b91d1dd","6568ac6dbf6ee8b94a46066e","4","","","","","","","","","","","","3390","[""SV_PolicingMSA/CO_1325/IMG_13_1325.jpg"",""SV_PolicingMSA/CO_1325/IMG_5_1325.jpg"",""SV_PolicingMSA/CO_1325/IMG_3_1325.jpg"",""SV_PolicingMSA/CO_1325/IMG_9_1325.jpg"",""SV_PolicingMSA/CO_1325/IMG_14_1325.jpg"",""SV_PolicingMSA/CO_1325/IMG_11_1325.jpg"",""SV_PolicingMSA/CO_1325/IMG_1_1325.jpg"",""SV_PolicingMSA/CO_1325/IMG_8_1325.jpg""]","2","","","","","","3","","4","[""./rc_img/cop_condGroup_7_CommunitySafety_autoscaled.png"",""./rc_img/cop_condGroup_7_SafeStreets_autoscaled.png""]","2","",""
"sliderTrial","html-slider-response","93","905254","0.0-93.0","","656776a7904ae00d6b91d1dd","6568ac6dbf6ee8b94a46066e","4","","","","","","","","","","","","3751","[""SV_PolicingMSA/CO_1325/IMG_13_1325.jpg"",""SV_PolicingMSA/CO_1325/IMG_5_1325.jpg"",""SV_PolicingMSA/CO_1325/IMG_3_1325.jpg"",""SV_PolicingMSA/CO_1325/IMG_9_1325.jpg"",""SV_PolicingMSA/CO_1325/IMG_14_1325.jpg"",""SV_PolicingMSA/CO_1325/IMG_11_1325.jpg"",""SV_PolicingMSA/CO_1325/IMG_1_1325.jpg"",""SV_PolicingMSA/CO_1325/IMG_8_1325.jpg""]","6","","","","","","3","","4","[""./rc_img/cop_condGroup_8_SafeStreets_autoscaled.png"",""./rc_img/cop_condGroup_8_CommunitySafety_autoscaled.png""]","2","",""
"before_SVSlide_prompt","html-button-response","94","906942","0.0-94.0","","656776a7904ae00d6b91d1dd","6568ac6dbf6ee8b94a46066e","4","","","","","","","","","","","","1687","Click [Next] to see the next neighborhood!","0","","","","","","","","","","","",""
"street view slide show","image-button-response","95","907950","0.0-95.0","","656776a7904ae00d6b91d1dd","6568ac6dbf6ee8b94a46066e","4","","","","","","","","","","","","null","stimulus/SV_PolicingMSA/CO_572/IMG_3_572.jpg","null","","","","","","5","","","","","",""
"street view slide show","image-button-response","96","908976","0.0-96.0","","656776a7904ae00d6b91d1dd","6568ac6dbf6ee8b94a46066e","4","","","","","","","","","","","","null","stimulus/SV_PolicingMSA/CO_572/IMG_8_572.jpg","null","","","","","","5","","","","","",""
"street view slide show","image-button-response","97","909995","0.0-97.0","","656776a7904ae00d6b91d1dd","6568ac6dbf6ee8b94a46066e","4","","","","","","","","","","","","null","stimulus/SV_PolicingMSA/CO_572/IMG_14_572.jpg","null","","","","","","5","","","","","",""
"street view slide show","image-button-response","98","911014","0.0-98.0","","656776a7904ae00d6b91d1dd","6568ac6dbf6ee8b94a46066e","4","","","","","","","","","","","","null","stimulus/SV_PolicingMSA/CO_572/IMG_4_572.jpg","null","","","","","","5","","","","","",""
"street view slide show","image-button-response","99","912034","0.0-99.0","","656776a7904ae00d6b91d1dd","6568ac6dbf6ee8b94a46066e","4","","","","","","","","","","","","null","stimulus/SV_PolicingMSA/CO_572/IMG_11_572.jpg","null","","","","","","5","","","","","",""
"street view slide show","image-button-response","100","913053","0.0-100.0","","656776a7904ae00d6b91d1dd","6568ac6dbf6ee8b94a46066e","4","","","","","","","","","","","","null","stimulus/SV_PolicingMSA/CO_572/IMG_5_572.jpg","null","","","","","","5","","","","","",""
"street view slide show","image-button-response","101","914071","0.0-101.0","","656776a7904ae00d6b91d1dd","6568ac6dbf6ee8b94a46066e","4","","","","","","","","","","","","null","stimulus/SV_PolicingMSA/CO_572/IMG_1_572.jpg","null","","","","","","5","","","","","",""
"street view slide show","image-button-response","102","915096","0.0-102.0","","656776a7904ae00d6b91d1dd","6568ac6dbf6ee8b94a46066e","4","","","","","","","","","","","","null","stimulus/SV_PolicingMSA/CO_572/IMG_2_572.jpg","null","","","","","","5","","","","","",""
"dot matrix survey1","survey","103","948162","0.0-103.0","","656776a7904ae00d6b91d1dd","6568ac6dbf6ee8b94a46066e","4","","","","","","","","","","","","33045","","{""P0_Q0"":null,""P0_Q1"":{""wealthy"":4,""safe"":3,""walkable"":4,""traditional"":3,""diverse"":3}}","","","","","","5","[]","","","","",""
"dot matrix survey2","survey","104","992244","0.0-104.0","","656776a7904ae00d6b91d1dd","6568ac6dbf6ee8b94a46066e","4","","","","","","","","","","","","44066","","{""P0_Q0"":null,""P0_Q1"":{""violence"":0,""drug"":0,""crime"":0,""schools"":3,""opportunities"":4}}","","","","","","5","[]","","","","",""
"dot matrix survey3","survey","105","1030601","0.0-105.0","","656776a7904ae00d6b91d1dd","6568ac6dbf6ee8b94a46066e","4","","","","","","","","","","","","38347","","{""P0_Q0"":null,""P0_Q1"":{""movein"":4,""moveout"":0,""shopping"":3,""walk"":3,""park"":3,""school"":3}}","","","","","","5","[]","","","","",""
"sliderTrial","html-slider-response","106","1044229","0.0-106.0","","656776a7904ae00d6b91d1dd","6568ac6dbf6ee8b94a46066e","4","","","","","","","","","","","","13626","[""SV_PolicingMSA/CO_572/IMG_3_572.jpg"",""SV_PolicingMSA/CO_572/IMG_8_572.jpg"",""SV_PolicingMSA/CO_572/IMG_14_572.jpg"",""SV_PolicingMSA/CO_572/IMG_4_572.jpg"",""SV_PolicingMSA/CO_572/IMG_11_572.jpg"",""SV_PolicingMSA/CO_572/IMG_5_572.jpg"",""SV_PolicingMSA/CO_572/IMG_1_572.jpg"",""SV_PolicingMSA/CO_572/IMG_2_572.jpg""]","1","","","","","","5","","4","[""./rc_img/cop_condGroup_19_CommunitySafety_autoscaled.png"",""./rc_img/cop_condGroup_19_SafeStreets_autoscaled.png""]","1","",""
"sliderTrial","html-slider-response","107","1048598","0.0-107.0","","656776a7904ae00d6b91d1dd","6568ac6dbf6ee8b94a46066e","4","","","","","","","","","","","","4367","[""SV_PolicingMSA/CO_572/IMG_3_572.jpg"",""SV_PolicingMSA/CO_572/IMG_8_572.jpg"",""SV_PolicingMSA/CO_572/IMG_14_572.jpg"",""SV_PolicingMSA/CO_572/IMG_4_572.jpg"",""SV_PolicingMSA/CO_572/IMG_11_572.jpg"",""SV_PolicingMSA/CO_572/IMG_5_572.jpg"",""SV_PolicingMSA/CO_572/IMG_1_572.jpg"",""SV_PolicingMSA/CO_572/IMG_2_572.jpg""]","1","","","","","","5","","4","[""./rc_img/cop_condGroup_20_CommunitySafety_autoscaled.png"",""./rc_img/cop_condGroup_20_SafeStreets_autoscaled.png""]","1","",""
"sliderTrial","html-slider-response","108","1051838","0.0-108.0","","656776a7904ae00d6b91d1dd","6568ac6dbf6ee8b94a46066e","4","","","","","","","","","","","","3239","[""SV_PolicingMSA/CO_572/IMG_3_572.jpg"",""SV_PolicingMSA/CO_572/IMG_8_572.jpg"",""SV_PolicingMSA/CO_572/IMG_14_572.jpg"",""SV_PolicingMSA/CO_572/IMG_4_572.jpg"",""SV_PolicingMSA/CO_572/IMG_11_572.jpg"",""SV_PolicingMSA/CO_572/IMG_5_572.jpg"",""SV_PolicingMSA/CO_572/IMG_1_572.jpg"",""SV_PolicingMSA/CO_572/IMG_2_572.jpg""]","1","","","","","","5","","4","[""./rc_img/cop_condGroup_11_CommunitySafety_autoscaled.png"",""./rc_img/cop_condGroup_11_SafeStreets_autoscaled.png""]","1","",""
"sliderTrial","html-slider-response","109","1055357","0.0-109.0","","656776a7904ae00d6b91d1dd","6568ac6dbf6ee8b94a46066e","4","","","","","","","","","","","","3519","[""SV_PolicingMSA/CO_572/IMG_3_572.jpg"",""SV_PolicingMSA/CO_572/IMG_8_572.jpg"",""SV_PolicingMSA/CO_572/IMG_14_572.jpg"",""SV_PolicingMSA/CO_572/IMG_4_572.jpg"",""SV_PolicingMSA/CO_572/IMG_11_572.jpg"",""SV_PolicingMSA/CO_572/IMG_5_572.jpg"",""SV_PolicingMSA/CO_572/IMG_1_572.jpg"",""SV_PolicingMSA/CO_572/IMG_2_572.jpg""]","1","","","","","","5","","4","[""./rc_img/cop_condGroup_13_CommunitySafety_autoscaled.png"",""./rc_img/cop_condGroup_13_SafeStreets_autoscaled.png""]","1","",""
"sliderTrial","html-slider-response","110","1060965","0.0-110.0","","656776a7904ae00d6b91d1dd","6568ac6dbf6ee8b94a46066e","4","","","","","","","","","","","","5607","[""SV_PolicingMSA/CO_572/IMG_3_572.jpg"",""SV_PolicingMSA/CO_572/IMG_8_572.jpg"",""SV_PolicingMSA/CO_572/IMG_14_572.jpg"",""SV_PolicingMSA/CO_572/IMG_4_572.jpg"",""SV_PolicingMSA/CO_572/IMG_11_572.jpg"",""SV_PolicingMSA/CO_572/IMG_5_572.jpg"",""SV_PolicingMSA/CO_572/IMG_1_572.jpg"",""SV_PolicingMSA/CO_572/IMG_2_572.jpg""]","7","","","","","","5","","4","[""./rc_img/cop_condGroup_18_SafeStreets_autoscaled.png"",""./rc_img/cop_condGroup_18_CommunitySafety_autoscaled.png""]","1","",""
"before_SVSlide_prompt","html-button-response","111","1062597","0.0-111.0","","656776a7904ae00d6b91d1dd","6568ac6dbf6ee8b94a46066e","4","","","","","","","","","","","","1631","Click [Next] to see the next neighborhood!","0","","","","","","","","","","","",""
"street view slide show","image-button-response","112","1063602","0.0-112.0","","656776a7904ae00d6b91d1dd","6568ac6dbf6ee8b94a46066e","4","","","","","","","","","","","","null","stimulus/SV_PolicingMSA/CO_1308/IMG_4_1308.jpg","null","","","","","","3","","","","","",""
"street view slide show","image-button-response","113","1064737","0.0-113.0","","656776a7904ae00d6b91d1dd","6568ac6dbf6ee8b94a46066e","4","","","","","","","","","","","","null","stimulus/SV_PolicingMSA/CO_1308/IMG_3_1308.jpg","null","","","","","","3","","","","","",""
"street view slide show","image-button-response","114","1065755","0.0-114.0","","656776a7904ae00d6b91d1dd","6568ac6dbf6ee8b94a46066e","4","","","","","","","","","","","","null","stimulus/SV_PolicingMSA/CO_1308/IMG_8_1308.jpg","null","","","","","","3","","","","","",""
"street view slide show","image-button-response","115","1066781","0.0-115.0","","656776a7904ae00d6b91d1dd","6568ac6dbf6ee8b94a46066e","4","","","","","","","","","","","","null","stimulus/SV_PolicingMSA/CO_1308/IMG_14_1308.jpg","null","","","","","","3","","","","","",""
"street view slide show","image-button-response","116","1067799","0.0-116.0","","656776a7904ae00d6b91d1dd","6568ac6dbf6ee8b94a46066e","4","","","","","","","","","","","","null","stimulus/SV_PolicingMSA/CO_1308/IMG_0_1308.jpg","null","","","","","","3","","","","","",""
"street view slide show","image-button-response","117","1068820","0.0-117.0","","656776a7904ae00d6b91d1dd","6568ac6dbf6ee8b94a46066e","4","","","","","","","","","","","","null","stimulus/SV_PolicingMSA/CO_1308/IMG_2_1308.jpg","null","","","","","","3","","","","","",""
"street view slide show","image-button-response","118","1069838","0.0-118.0","","656776a7904ae00d6b91d1dd","6568ac6dbf6ee8b94a46066e","4","","","","","","","","","","","","null","stimulus/SV_PolicingMSA/CO_1308/IMG_13_1308.jpg","null","","","","","","3","","","","","",""
"street view slide show","image-button-response","119","1070856","0.0-119.0","","656776a7904ae00d6b91d1dd","6568ac6dbf6ee8b94a46066e","4","","","","","","","","","","","","null","stimulus/SV_PolicingMSA/CO_1308/IMG_11_1308.jpg","null","","","","","","3","","","","","",""
"dot matrix survey1","survey","120","1078329","0.0-120.0","","656776a7904ae00d6b91d1dd","6568ac6dbf6ee8b94a46066e","4","","","","","","","","","","","","7449","","{""P0_Q0"":null,""P0_Q1"":{""wealthy"":4,""safe"":4,""walkable"":4,""traditional"":4,""diverse"":3}}","","","","","","3","[]","","","","",""
"dot matrix survey2","survey","121","1086796","0.0-121.0","","656776a7904ae00d6b91d1dd","6568ac6dbf6ee8b94a46066e","4","","","","","","","","","","","","8451","","{""P0_Q0"":null,""P0_Q1"":{""violence"":0,""crime"":0,""drug"":0,""schools"":4,""opportunities"":4}}","","","","","","3","[]","","","","",""
"dot matrix survey3","survey","122","1095940","0.0-122.0","","656776a7904ae00d6b91d1dd","6568ac6dbf6ee8b94a46066e","4","","","","","","","","","","","","9136","","{""P0_Q0"":null,""P0_Q1"":{""movein"":4,""moveout"":0,""shopping"":4,""walk"":4,""park"":4,""school"":4}}","","","","","","3","[]","","","","",""
"sliderTrial","html-slider-response","123","1102646","0.0-123.0","","656776a7904ae00d6b91d1dd","6568ac6dbf6ee8b94a46066e","4","","","","","","","","","","","","6704","[""SV_PolicingMSA/CO_1308/IMG_4_1308.jpg"",""SV_PolicingMSA/CO_1308/IMG_3_1308.jpg"",""SV_PolicingMSA/CO_1308/IMG_8_1308.jpg"",""SV_PolicingMSA/CO_1308/IMG_14_1308.jpg"",""SV_PolicingMSA/CO_1308/IMG_0_1308.jpg"",""SV_PolicingMSA/CO_1308/IMG_2_1308.jpg"",""SV_PolicingMSA/CO_1308/IMG_13_1308.jpg"",""SV_PolicingMSA/CO_1308/IMG_11_1308.jpg""]","1","","","","","","3","","4","[""./rc_img/cop_condGroup_19_CommunitySafety_autoscaled.png"",""./rc_img/cop_condGroup_19_SafeStreets_autoscaled.png""]","1","",""
"sliderTrial","html-slider-response","124","1107765","0.0-124.0","","656776a7904ae00d6b91d1dd","6568ac6dbf6ee8b94a46066e","4","","","","","","","","","","","","5118","[""SV_PolicingMSA/CO_1308/IMG_4_1308.jpg"",""SV_PolicingMSA/CO_1308/IMG_3_1308.jpg"",""SV_PolicingMSA/CO_1308/IMG_8_1308.jpg"",""SV_PolicingMSA/CO_1308/IMG_14_1308.jpg"",""SV_PolicingMSA/CO_1308/IMG_0_1308.jpg"",""SV_PolicingMSA/CO_1308/IMG_2_1308.jpg"",""SV_PolicingMSA/CO_1308/IMG_13_1308.jpg"",""SV_PolicingMSA/CO_1308/IMG_11_1308.jpg""]","1","","","","","","3","","4","[""./rc_img/cop_condGroup_20_CommunitySafety_autoscaled.png"",""./rc_img/cop_condGroup_20_SafeStreets_autoscaled.png""]","1","",""
"sliderTrial","html-slider-response","125","1112630","0.0-125.0","","656776a7904ae00d6b91d1dd","6568ac6dbf6ee8b94a46066e","4","","","","","","","","","","","","4863","[""SV_PolicingMSA/CO_1308/IMG_4_1308.jpg"",""SV_PolicingMSA/CO_1308/IMG_3_1308.jpg"",""SV_PolicingMSA/CO_1308/IMG_8_1308.jpg"",""SV_PolicingMSA/CO_1308/IMG_14_1308.jpg"",""SV_PolicingMSA/CO_1308/IMG_0_1308.jpg"",""SV_PolicingMSA/CO_1308/IMG_2_1308.jpg"",""SV_PolicingMSA/CO_1308/IMG_13_1308.jpg"",""SV_PolicingMSA/CO_1308/IMG_11_1308.jpg""]","1","","","","","","3","","4","[""./rc_img/cop_condGroup_11_CommunitySafety_autoscaled.png"",""./rc_img/cop_condGroup_11_SafeStreets_autoscaled.png""]","1","",""
"sliderTrial","html-slider-response","126","1118021","0.0-126.0","","656776a7904ae00d6b91d1dd","6568ac6dbf6ee8b94a46066e","4","","","","","","","","","","","","5391","[""SV_PolicingMSA/CO_1308/IMG_4_1308.jpg"",""SV_PolicingMSA/CO_1308/IMG_3_1308.jpg"",""SV_PolicingMSA/CO_1308/IMG_8_1308.jpg"",""SV_PolicingMSA/CO_1308/IMG_14_1308.jpg"",""SV_PolicingMSA/CO_1308/IMG_0_1308.jpg"",""SV_PolicingMSA/CO_1308/IMG_2_1308.jpg"",""SV_PolicingMSA/CO_1308/IMG_13_1308.jpg"",""SV_PolicingMSA/CO_1308/IMG_11_1308.jpg""]","1","","","","","","3","","4","[""./rc_img/cop_condGroup_13_CommunitySafety_autoscaled.png"",""./rc_img/cop_condGroup_13_SafeStreets_autoscaled.png""]","1","",""
"sliderTrial","html-slider-response","127","1125021","0.0-127.0","","656776a7904ae00d6b91d1dd","6568ac6dbf6ee8b94a46066e","4","","","","","","","","","","","","6997","[""SV_PolicingMSA/CO_1308/IMG_4_1308.jpg"",""SV_PolicingMSA/CO_1308/IMG_3_1308.jpg"",""SV_PolicingMSA/CO_1308/IMG_8_1308.jpg"",""SV_PolicingMSA/CO_1308/IMG_14_1308.jpg"",""SV_PolicingMSA/CO_1308/IMG_0_1308.jpg"",""SV_PolicingMSA/CO_1308/IMG_2_1308.jpg"",""SV_PolicingMSA/CO_1308/IMG_13_1308.jpg"",""SV_PolicingMSA/CO_1308/IMG_11_1308.jpg""]","7","","","","","","3","","4","[""./rc_img/cop_condGroup_18_SafeStreets_autoscaled.png"",""./rc_img/cop_condGroup_18_CommunitySafety_autoscaled.png""]","1","",""
"before_SVSlide_prompt","html-button-response","128","1126742","0.0-128.0","","656776a7904ae00d6b91d1dd","6568ac6dbf6ee8b94a46066e","4","","","","","","","","","","","","1720","Click [Next] to see the next neighborhood!","0","","","","","","","","","","","",""
"street view slide show","image-button-response","129","1127765","0.0-129.0","","656776a7904ae00d6b91d1dd","6568ac6dbf6ee8b94a46066e","4","","","","","","","","","","","","null","stimulus/SV_PolicingMSA/CO_674/IMG_8_674.jpg","null","","","","","","4","","","","","",""
"street view slide show","image-button-response","130","1128784","0.0-130.0","","656776a7904ae00d6b91d1dd","6568ac6dbf6ee8b94a46066e","4","","","","","","","","","","","","null","stimulus/SV_PolicingMSA/CO_674/IMG_4_674.jpg","null","","","","","","4","","","","","",""
"street view slide show","image-button-response","131","1129803","0.0-131.0","","656776a7904ae00d6b91d1dd","6568ac6dbf6ee8b94a46066e","4","","","","","","","","","","","","null","stimulus/SV_PolicingMSA/CO_674/IMG_13_674.jpg","null","","","","","","4","","","","","",""
"street view slide show","image-button-response","132","1130822","0.0-132.0","","656776a7904ae00d6b91d1dd","6568ac6dbf6ee8b94a46066e","4","","","","","","","","","","","","null","stimulus/SV_PolicingMSA/CO_674/IMG_7_674.jpg","null","","","","","","4","","","","","",""
"street view slide show","image-button-response","133","1131841","0.0-133.0","","656776a7904ae00d6b91d1dd","6568ac6dbf6ee8b94a46066e","4","","","","","","","","","","","","null","stimulus/SV_PolicingMSA/CO_674/IMG_0_674.jpg","null","","","","","","4","","","","","",""
"street view slide show","image-button-response","134","1132860","0.0-134.0","","656776a7904ae00d6b91d1dd","6568ac6dbf6ee8b94a46066e","4","","","","","","","","","","","","null","stimulus/SV_PolicingMSA/CO_674/IMG_2_674.jpg","null","","","","","","4","","","","","",""
"street view slide show","image-button-response","135","1133885","0.0-135.0","","656776a7904ae00d6b91d1dd","6568ac6dbf6ee8b94a46066e","4","","","","","","","","","","","","null","stimulus/SV_PolicingMSA/CO_674/IMG_10_674.jpg","null","","","","","","4","","","","","",""
"street view slide show","image-button-response","136","1134906","0.0-136.0","","656776a7904ae00d6b91d1dd","6568ac6dbf6ee8b94a46066e","4","","","","","","","","","","","","null","stimulus/SV_PolicingMSA/CO_674/IMG_14_674.jpg","null","","","","","","4","","","","","",""
"dot matrix survey1","survey","137","1171513","0.0-137.0","","656776a7904ae00d6b91d1dd","6568ac6dbf6ee8b94a46066e","4","","","","","","","","","","","","36581","","{""P0_Q0"":null,""P0_Q1"":{""wealthy"":2,""safe"":2,""walkable"":4,""traditional"":3,""diverse"":2}}","","","","","","4","[]","","","","",""
"dot matrix survey2","survey","138","1203564","0.0-138.0","","656776a7904ae00d6b91d1dd","6568ac6dbf6ee8b94a46066e","4","","","","","","","","","","","","32034","","{""P0_Q0"":null,""P0_Q1"":{""violence"":2,""crime"":2,""drug"":2,""schools"":1,""opportunities"":1}}","","","","","","4","[]","","","","",""
"dot matrix survey3","survey","139","1231436","0.0-139.0","","656776a7904ae00d6b91d1dd","6568ac6dbf6ee8b94a46066e","4","","","","","","","","","","","","27854","","{""P0_Q0"":null,""P0_Q1"":{""movein"":1,""moveout"":2,""shopping"":1,""walk"":1,""park"":1,""school"":1}}","","","","","","4","[]","","","","",""
"sliderTrial","html-slider-response","140","1238757","0.0-140.0","","656776a7904ae00d6b91d1dd","6568ac6dbf6ee8b94a46066e","4","","","","","","","","","","","","7319","[""SV_PolicingMSA/CO_674/IMG_8_674.jpg"",""SV_PolicingMSA/CO_674/IMG_4_674.jpg"",""SV_PolicingMSA/CO_674/IMG_13_674.jpg"",""SV_PolicingMSA/CO_674/IMG_7_674.jpg"",""SV_PolicingMSA/CO_674/IMG_0_674.jpg"",""SV_PolicingMSA/CO_674/IMG_2_674.jpg"",""SV_PolicingMSA/CO_674/IMG_10_674.jpg"",""SV_PolicingMSA/CO_674/IMG_14_674.jpg""]","7","","","","","","4","","4","[""./rc_img/cop_condGroup_12_CommunitySafety_autoscaled.png"",""./rc_img/cop_condGroup_12_SafeStreets_autoscaled.png""]","7","",""
"sliderTrial","html-slider-response","141","1244973","0.0-141.0","","656776a7904ae00d6b91d1dd","6568ac6dbf6ee8b94a46066e","4","","","","","","","","","","","","6214","[""SV_PolicingMSA/CO_674/IMG_8_674.jpg"",""SV_PolicingMSA/CO_674/IMG_4_674.jpg"",""SV_PolicingMSA/CO_674/IMG_13_674.jpg"",""SV_PolicingMSA/CO_674/IMG_7_674.jpg"",""SV_PolicingMSA/CO_674/IMG_0_674.jpg"",""SV_PolicingMSA/CO_674/IMG_2_674.jpg"",""SV_PolicingMSA/CO_674/IMG_10_674.jpg"",""SV_PolicingMSA/CO_674/IMG_14_674.jpg""]","7","","","","","","4","","4","[""./rc_img/cop_condGroup_14_CommunitySafety_autoscaled.png"",""./rc_img/cop_condGroup_14_SafeStreets_autoscaled.png""]","7","",""
"sliderTrial","html-slider-response","142","1250933","0.0-142.0","","656776a7904ae00d6b91d1dd","6568ac6dbf6ee8b94a46066e","4","","","","","","","","","","","","5959","[""SV_PolicingMSA/CO_674/IMG_8_674.jpg"",""SV_PolicingMSA/CO_674/IMG_4_674.jpg"",""SV_PolicingMSA/CO_674/IMG_13_674.jpg"",""SV_PolicingMSA/CO_674/IMG_7_674.jpg"",""SV_PolicingMSA/CO_674/IMG_0_674.jpg"",""SV_PolicingMSA/CO_674/IMG_2_674.jpg"",""SV_PolicingMSA/CO_674/IMG_10_674.jpg"",""SV_PolicingMSA/CO_674/IMG_14_674.jpg""]","1","","","","","","4","","4","[""./rc_img/cop_condGroup_15_SafeStreets_autoscaled.png"",""./rc_img/cop_condGroup_15_CommunitySafety_autoscaled.png""]","7","",""
"sliderTrial","html-slider-response","143","1254925","0.0-143.0","","656776a7904ae00d6b91d1dd","6568ac6dbf6ee8b94a46066e","4","","","","","","","","","","","","3991","[""SV_PolicingMSA/CO_674/IMG_8_674.jpg"",""SV_PolicingMSA/CO_674/IMG_4_674.jpg"",""SV_PolicingMSA/CO_674/IMG_13_674.jpg"",""SV_PolicingMSA/CO_674/IMG_7_674.jpg"",""SV_PolicingMSA/CO_674/IMG_0_674.jpg"",""SV_PolicingMSA/CO_674/IMG_2_674.jpg"",""SV_PolicingMSA/CO_674/IMG_10_674.jpg"",""SV_PolicingMSA/CO_674/IMG_14_674.jpg""]","1","","","","","","4","","4","[""./rc_img/cop_condGroup_16_SafeStreets_autoscaled.png"",""./rc_img/cop_condGroup_16_CommunitySafety_autoscaled.png""]","7","",""
"sliderTrial","html-slider-response","144","1258837","0.0-144.0","","656776a7904ae00d6b91d1dd","6568ac6dbf6ee8b94a46066e","4","","","","","","","","","","","","3911","[""SV_PolicingMSA/CO_674/IMG_8_674.jpg"",""SV_PolicingMSA/CO_674/IMG_4_674.jpg"",""SV_PolicingMSA/CO_674/IMG_13_674.jpg"",""SV_PolicingMSA/CO_674/IMG_7_674.jpg"",""SV_PolicingMSA/CO_674/IMG_0_674.jpg"",""SV_PolicingMSA/CO_674/IMG_2_674.jpg"",""SV_PolicingMSA/CO_674/IMG_10_674.jpg"",""SV_PolicingMSA/CO_674/IMG_14_674.jpg""]","7","","","","","","4","","4","[""./rc_img/cop_condGroup_10_CommunitySafety_autoscaled.png"",""./rc_img/cop_condGroup_10_SafeStreets_autoscaled.png""]","7","",""
"demographics","survey-html-form","145","1310625","0.0-145.0","","656776a7904ae00d6b91d1dd","6568ac6dbf6ee8b94a46066e","4","","","","","","","","","","","","51786","","{""age"":""45"",""sex"":""male"",""gender"":""man"",""gender-self-describe"":"""",""zipcode"":""35824""}","","","","","","","","","","","",""
"demographics-list","survey","146","1413572","0.0-146.0","","656776a7904ae00d6b91d1dd","6568ac6dbf6ee8b94a46066e","4","","","","","","","","","","","","102913","","{""P0_Q0"":null,""race-ethnicity"":[""White or of European ancestry""],""education"":""Bachelor’s degree"",""P1_Q0"":null,""ideology"":""Very Conservative"",""P2_Q0"":null,""num-moves"":1,""P3_Q0"":null,""social-ladder"":8}","","","","","","","[]","","","","",""
"end-survey","survey-text","147","1452262","0.0-147.0","","656776a7904ae00d6b91d1dd","6568ac6dbf6ee8b94a46066e","4","","","","","","","","","","","","38685","","{""Q0"":""I really enjoyed the study.""}","","","","","","","","","","","","2"
"end-survey","html-button-response","148","1462501","0.0-148.0","","656776a7904ae00d6b91d1dd","6568ac6dbf6ee8b94a46066e","4","","","","","","","","","","","","10237","
    You've reached the end of the survey. <br><br> 
    <b>Do not close or refresh this window.</b><br>
    On the next page, you will be automatically redirected to Prolific. <br><br>

    <div class=""alert alert-warning""><b>
    </div>
","0","","","","","","","","","","","",""
