"task","trial_type","trial_index","time_elapsed","internal_node_id","subject_id","study_id","session_id","section","width","height","webaudio","browser","browser_version","mobile","os","fullscreen","vsync_rate","webcam","microphone","rt","stimulus","response","success","timeout","failed_images","failed_audio","failed_video","block","accuracy","slider_start","choices","standardized_response","correct","num_attention_checks_correct"
"pavlovia-init","pavlovia","0","1018","0.0-0.0","","","","14","","","","","","","","","","","","","","","","","","","","","","","","","",""
"browser-check","browser-check","1","2014","0.0-1.0","","","","14","1600","842","true","chrome","119.0.0","false","Mac OS","true","60.51","true","true","","","","","","","","","","","","","","",""
"consent","html-button-response","2","5530","0.0-2.0","","","","14","","","","","","","","","","","","3515","
        <div style=""font-size: 80%; max-width:700px"">
            <h2>CONSENT FORM</h2>
        
            <div style=""text-align: left"">
            <h4>DESCRIPTION</h4>
            <p>
            You will complete a short task where you give your impressions of various neighborhoods and assign individuals to those spaces, and answer some questions about your thoughts and opinions.<br>
            The University of Michigan Institutional Review Board Health Sciences and Behavioral Sciences has determined that this study is exempt from IRB oversight.
            </p>

            <h4>TIME INVOLVEMENT</h4>
            <p>Your participation will take approximately 15 minutes. You will receive $3.15 upon completion of the study.</p>
        
            <h4>RISKS AND BENEFITS</h4>
            <p>
            The risks associated with this study are minimal. The benefits which may reasonably be expected to result from this study are none. We cannot and do not guarantee or promise that you will receive any benefits from this study.
            </p>
          
            <h4>SUBJECT'S RIGHTS</h4>
            <p>
            If you have read this form and have decided to participate in this project, please understand your participation is voluntary and you have the right to withdraw your consent or discontinue participation at any time without penalty or loss of benefits to which you are otherwise entitled. The alternative is not to participate. You have the right to refuse to answer particular questions. Your individual privacy will be maintained in all published and written data resulting from the study.
            </p>

            <h4>HUMAN SUBJECT APPROVAL</h4>
            <p>
            This study is exempt from ongoing IRB review.
            </p>

            <h4>CONTACT INFORMATION</h4>
            If you have any questions, concerns or complaints about this research, its procedures, risks and benefits, contact the Protocol Director, Nicholas Camp, npcamp@umich.edu, (443) 851-6783. <br>

            If you have questions about your rights as a research participant, or wish to obtain information, ask questions or discuss any concerns about this study with someone other than the researcher(s), please contact the following:<br><br>
            University of Michigan<br>
            Health Sciences and Behavioral Sciences Institutional Review Board (IRB-HSBS)<br>
            2800 Plymouth Road<br>
            Building 520, Room 1169Ann Arbor, MI 48109-2800<br>
            Telephone: 734-936-0933 or toll free (866) 936-0933<br>
            Fax: 734-936-1852<br>
            E-mail: irbhsbs@umich.edu<br><br>

            You can also contact the University of Michigan Compliance Hotline at 1-866-990-0111. You may also print this consent form to keep.
            <br><br>
            <div class=""alert alert-warning""><b>
            Do you consent to participate in this study? If you consent to participate in this study, please click “Accept and Continue”. If you select ""Decline and Exit"", you will be exited from the survey. <br>
            </b></div>
            </div>
        </div>
    ","1","","","","","","","","","","","",""
"","preload","3","8017","0.0-3.0","","","","14","","","","","","","","","","","","","","","true","false","[]","[]","[]","","","","","","",""
"instructions","html-button-response","4","9195","0.0-4.0","","","","14","","","","","","","","","","","","1177","
        <div class=""text-container"">
        <h1>Welcome to the study!</h1>
        
        <div class=""text-left"">
            <p>
                In this study, we are interested in what people can tell about spaces from Google Street View images. <br> Google Street View takes pictures of streets used for Google Earth and Google Maps. <br>You’ll see Google Street View images of different places and answer some questions about each one.<br>
            </p>
        </div>
        <img src = ""assets/img/example.png"" width = 500px, height = auto>
        <br>
    <br>
    ","0","","","","","","","","","","","",""
"instructions","html-button-response","5","10395","0.0-5.0","","","","14","","","","","","","","","","","","1200","
    <div class=""text-container"">
        <div class=""text-center"">
            <p>Please remember that your answers are completely anonymous.<br>Go with your gut response- there are no right or wrong answers!</p>
        </div>
    <br>
","0","","","","","","","","","","","",""
"before_SVSlide_prompt","html-button-response","6","11264","0.0-6.0","","","","14","","","","","","","","","","","","868","Click [Next] to see the next neighborhood!","0","","","","","","","","","","","",""
"street view slide show","image-button-response","7","12287","0.0-7.0","","","","14","","","","","","","","","","","","null","stimulus/SV_PolicingMSA/GA_2659/IMG_13_2659.jpg","null","","","","","","5","","","","","",""
"street view slide show","image-button-response","8","13292","0.0-8.0","","","","14","","","","","","","","","","","","null","stimulus/SV_PolicingMSA/GA_2659/IMG_1_2659.jpg","null","","","","","","5","","","","","",""
"street view slide show","image-button-response","9","14297","0.0-9.0","","","","14","","","","","","","","","","","","null","stimulus/SV_PolicingMSA/GA_2659/IMG_11_2659.jpg","null","","","","","","5","","","","","",""
"street view slide show","image-button-response","10","15302","0.0-10.0","","","","14","","","","","","","","","","","","null","stimulus/SV_PolicingMSA/GA_2659/IMG_5_2659.jpg","null","","","","","","5","","","","","",""
"street view slide show","image-button-response","11","16306","0.0-11.0","","","","14","","","","","","","","","","","","null","stimulus/SV_PolicingMSA/GA_2659/IMG_2_2659.jpg","null","","","","","","5","","","","","",""
"street view slide show","image-button-response","12","17313","0.0-12.0","","","","14","","","","","","","","","","","","null","stimulus/SV_PolicingMSA/GA_2659/IMG_14_2659.jpg","null","","","","","","5","","","","","",""
"street view slide show","image-button-response","13","18319","0.0-13.0","","","","14","","","","","","","","","","","","null","stimulus/SV_PolicingMSA/GA_2659/IMG_7_2659.jpg","null","","","","","","5","","","","","",""
"street view slide show","image-button-response","14","19326","0.0-14.0","","","","14","","","","","","","","","","","","null","stimulus/SV_PolicingMSA/GA_2659/IMG_8_2659.jpg","null","","","","","","5","","","","","",""
"dot matrix survey1","survey","15","21306","0.0-15.0","","","","14","","","","","","","","","","","","1926","","{""P0_Q0"":null,""P0_Q1"":null}","","","","","","5","[]","","","","",""
"dot matrix survey2","survey","16","21997","0.0-16.0","","","","14","","","","","","","","","","","","683","","{""P0_Q0"":null,""P0_Q1"":null}","","","","","","5","[]","","","","",""
"dot matrix survey3","survey","17","23632","0.0-17.0","","","","14","","","","","","","","","","","","1627","","{""P0_Q0"":null,""P0_Q1"":null}","","","","","","5","[]","","","","",""
"sliderTrial","html-slider-response","18","26509","0.0-18.0","","","","14","","","","","","","","","","","","2876","[""SV_PolicingMSA/GA_2659/IMG_13_2659.jpg"",""SV_PolicingMSA/GA_2659/IMG_1_2659.jpg"",""SV_PolicingMSA/GA_2659/IMG_11_2659.jpg"",""SV_PolicingMSA/GA_2659/IMG_5_2659.jpg"",""SV_PolicingMSA/GA_2659/IMG_2_2659.jpg"",""SV_PolicingMSA/GA_2659/IMG_14_2659.jpg"",""SV_PolicingMSA/GA_2659/IMG_7_2659.jpg"",""SV_PolicingMSA/GA_2659/IMG_8_2659.jpg""]","4","","","","","","5","","4","[""./rc_img/cop_condGroup_8_CommunitySafety_autoscaled.png"",""./rc_img/cop_condGroup_8_SafeStreets_autoscaled.png""]","4","",""
"sliderTrial","html-slider-response","19","27591","0.0-19.0","","","","14","","","","","","","","","","","","1080","[""SV_PolicingMSA/GA_2659/IMG_13_2659.jpg"",""SV_PolicingMSA/GA_2659/IMG_1_2659.jpg"",""SV_PolicingMSA/GA_2659/IMG_11_2659.jpg"",""SV_PolicingMSA/GA_2659/IMG_5_2659.jpg"",""SV_PolicingMSA/GA_2659/IMG_2_2659.jpg"",""SV_PolicingMSA/GA_2659/IMG_14_2659.jpg"",""SV_PolicingMSA/GA_2659/IMG_7_2659.jpg"",""SV_PolicingMSA/GA_2659/IMG_8_2659.jpg""]","4","","","","","","5","","4","[""./rc_img/cop_condGroup_10_SafeStreets_autoscaled.png"",""./rc_img/cop_condGroup_10_CommunitySafety_autoscaled.png""]","4","",""
"sliderTrial","html-slider-response","20","28642","0.0-20.0","","","","14","","","","","","","","","","","","1048","[""SV_PolicingMSA/GA_2659/IMG_13_2659.jpg"",""SV_PolicingMSA/GA_2659/IMG_1_2659.jpg"",""SV_PolicingMSA/GA_2659/IMG_11_2659.jpg"",""SV_PolicingMSA/GA_2659/IMG_5_2659.jpg"",""SV_PolicingMSA/GA_2659/IMG_2_2659.jpg"",""SV_PolicingMSA/GA_2659/IMG_14_2659.jpg"",""SV_PolicingMSA/GA_2659/IMG_7_2659.jpg"",""SV_PolicingMSA/GA_2659/IMG_8_2659.jpg""]","4","","","","","","5","","4","[""./rc_img/cop_condGroup_19_CommunitySafety_autoscaled.png"",""./rc_img/cop_condGroup_19_SafeStreets_autoscaled.png""]","4","",""
"sliderTrial","html-slider-response","21","29593","0.0-21.0","","","","14","","","","","","","","","","","","948","[""SV_PolicingMSA/GA_2659/IMG_13_2659.jpg"",""SV_PolicingMSA/GA_2659/IMG_1_2659.jpg"",""SV_PolicingMSA/GA_2659/IMG_11_2659.jpg"",""SV_PolicingMSA/GA_2659/IMG_5_2659.jpg"",""SV_PolicingMSA/GA_2659/IMG_2_2659.jpg"",""SV_PolicingMSA/GA_2659/IMG_14_2659.jpg"",""SV_PolicingMSA/GA_2659/IMG_7_2659.jpg"",""SV_PolicingMSA/GA_2659/IMG_8_2659.jpg""]","4","","","","","","5","","4","[""./rc_img/cop_condGroup_11_CommunitySafety_autoscaled.png"",""./rc_img/cop_condGroup_11_SafeStreets_autoscaled.png""]","4","",""
"sliderTrial","html-slider-response","22","30359","0.0-22.0","","","","14","","","","","","","","","","","","764","[""SV_PolicingMSA/GA_2659/IMG_13_2659.jpg"",""SV_PolicingMSA/GA_2659/IMG_1_2659.jpg"",""SV_PolicingMSA/GA_2659/IMG_11_2659.jpg"",""SV_PolicingMSA/GA_2659/IMG_5_2659.jpg"",""SV_PolicingMSA/GA_2659/IMG_2_2659.jpg"",""SV_PolicingMSA/GA_2659/IMG_14_2659.jpg"",""SV_PolicingMSA/GA_2659/IMG_7_2659.jpg"",""SV_PolicingMSA/GA_2659/IMG_8_2659.jpg""]","4","","","","","","5","","4","[""./rc_img/cop_condGroup_20_SafeStreets_autoscaled.png"",""./rc_img/cop_condGroup_20_CommunitySafety_autoscaled.png""]","4","",""
"before_SVSlide_prompt","html-button-response","23","31692","0.0-23.0","","","","14","","","","","","","","","","","","1331","Click [Next] to see the next neighborhood!","0","","","","","","","","","","","",""
"street view slide show","image-button-response","24","32698","0.0-24.0","","","","14","","","","","","","","","","","","null","stimulus/SV_PolicingMSA/GA_1094/IMG_3_1094.jpg","null","","","","","","2","","","","","",""
"street view slide show","image-button-response","25","33702","0.0-25.0","","","","14","","","","","","","","","","","","null","stimulus/SV_PolicingMSA/GA_1094/IMG_11_1094.jpg","null","","","","","","2","","","","","",""
"street view slide show","image-button-response","26","34710","0.0-26.0","","","","14","","","","","","","","","","","","null","stimulus/SV_PolicingMSA/GA_1094/IMG_4_1094.jpg","null","","","","","","2","","","","","",""
"street view slide show","image-button-response","27","35716","0.0-27.0","","","","14","","","","","","","","","","","","null","stimulus/SV_PolicingMSA/GA_1094/IMG_9_1094.jpg","null","","","","","","2","","","","","",""
"street view slide show","image-button-response","28","36719","0.0-28.0","","","","14","","","","","","","","","","","","null","stimulus/SV_PolicingMSA/GA_1094/IMG_12_1094.jpg","null","","","","","","2","","","","","",""
"street view slide show","image-button-response","29","37724","0.0-29.0","","","","14","","","","","","","","","","","","null","stimulus/SV_PolicingMSA/GA_1094/IMG_8_1094.jpg","null","","","","","","2","","","","","",""
"street view slide show","image-button-response","30","38731","0.0-30.0","","","","14","","","","","","","","","","","","null","stimulus/SV_PolicingMSA/GA_1094/IMG_13_1094.jpg","null","","","","","","2","","","","","",""
"street view slide show","image-button-response","31","39737","0.0-31.0","","","","14","","","","","","","","","","","","null","stimulus/SV_PolicingMSA/GA_1094/IMG_7_1094.jpg","null","","","","","","2","","","","","",""
"dot matrix survey1","survey","32","41505","0.0-32.0","","","","14","","","","","","","","","","","","1754","","{""P0_Q0"":null,""P0_Q1"":null}","","","","","","2","[]","","","","",""
"dot matrix survey2","survey","33","42254","0.0-33.0","","","","14","","","","","","","","","","","","739","","{""P0_Q0"":null,""P0_Q1"":null}","","","","","","2","[]","","","","",""
"dot matrix survey3","survey","34","43584","0.0-34.0","","","","14","","","","","","","","","","","","1321","","{""P0_Q0"":null,""P0_Q1"":null}","","","","","","2","[]","","","","",""
"sliderTrial","html-slider-response","35","45353","0.0-35.0","","","","14","","","","","","","","","","","","1767","[""SV_PolicingMSA/GA_1094/IMG_3_1094.jpg"",""SV_PolicingMSA/GA_1094/IMG_11_1094.jpg"",""SV_PolicingMSA/GA_1094/IMG_4_1094.jpg"",""SV_PolicingMSA/GA_1094/IMG_9_1094.jpg"",""SV_PolicingMSA/GA_1094/IMG_12_1094.jpg"",""SV_PolicingMSA/GA_1094/IMG_8_1094.jpg"",""SV_PolicingMSA/GA_1094/IMG_13_1094.jpg"",""SV_PolicingMSA/GA_1094/IMG_7_1094.jpg""]","4","","","","","","2","","4","[""./rc_img/cop_condGroup_14_SafeStreets_autoscaled.png"",""./rc_img/cop_condGroup_14_CommunitySafety_autoscaled.png""]","4","",""
"sliderTrial","html-slider-response","36","45904","0.0-36.0","","","","14","","","","","","","","","","","","549","[""SV_PolicingMSA/GA_1094/IMG_3_1094.jpg"",""SV_PolicingMSA/GA_1094/IMG_11_1094.jpg"",""SV_PolicingMSA/GA_1094/IMG_4_1094.jpg"",""SV_PolicingMSA/GA_1094/IMG_9_1094.jpg"",""SV_PolicingMSA/GA_1094/IMG_12_1094.jpg"",""SV_PolicingMSA/GA_1094/IMG_8_1094.jpg"",""SV_PolicingMSA/GA_1094/IMG_13_1094.jpg"",""SV_PolicingMSA/GA_1094/IMG_7_1094.jpg""]","4","","","","","","2","","4","[""./rc_img/cop_condGroup_5_CommunitySafety_autoscaled.png"",""./rc_img/cop_condGroup_5_SafeStreets_autoscaled.png""]","4","",""
"sliderTrial","html-slider-response","37","46172","0.0-37.0","","","","14","","","","","","","","","","","","266","[""SV_PolicingMSA/GA_1094/IMG_3_1094.jpg"",""SV_PolicingMSA/GA_1094/IMG_11_1094.jpg"",""SV_PolicingMSA/GA_1094/IMG_4_1094.jpg"",""SV_PolicingMSA/GA_1094/IMG_9_1094.jpg"",""SV_PolicingMSA/GA_1094/IMG_12_1094.jpg"",""SV_PolicingMSA/GA_1094/IMG_8_1094.jpg"",""SV_PolicingMSA/GA_1094/IMG_13_1094.jpg"",""SV_PolicingMSA/GA_1094/IMG_7_1094.jpg""]","4","","","","","","2","","4","[""./rc_img/cop_condGroup_1_SafeStreets_autoscaled.png"",""./rc_img/cop_condGroup_1_CommunitySafety_autoscaled.png""]","4","",""
"sliderTrial","html-slider-response","38","46492","0.0-38.0","","","","14","","","","","","","","","","","","318","[""SV_PolicingMSA/GA_1094/IMG_3_1094.jpg"",""SV_PolicingMSA/GA_1094/IMG_11_1094.jpg"",""SV_PolicingMSA/GA_1094/IMG_4_1094.jpg"",""SV_PolicingMSA/GA_1094/IMG_9_1094.jpg"",""SV_PolicingMSA/GA_1094/IMG_12_1094.jpg"",""SV_PolicingMSA/GA_1094/IMG_8_1094.jpg"",""SV_PolicingMSA/GA_1094/IMG_13_1094.jpg"",""SV_PolicingMSA/GA_1094/IMG_7_1094.jpg""]","4","","","","","","2","","4","[""./rc_img/cop_condGroup_4_CommunitySafety_autoscaled.png"",""./rc_img/cop_condGroup_4_SafeStreets_autoscaled.png""]","4","",""
"sliderTrial","html-slider-response","39","46873","0.0-39.0","","","","14","","","","","","","","","","","","378","[""SV_PolicingMSA/GA_1094/IMG_3_1094.jpg"",""SV_PolicingMSA/GA_1094/IMG_11_1094.jpg"",""SV_PolicingMSA/GA_1094/IMG_4_1094.jpg"",""SV_PolicingMSA/GA_1094/IMG_9_1094.jpg"",""SV_PolicingMSA/GA_1094/IMG_12_1094.jpg"",""SV_PolicingMSA/GA_1094/IMG_8_1094.jpg"",""SV_PolicingMSA/GA_1094/IMG_13_1094.jpg"",""SV_PolicingMSA/GA_1094/IMG_7_1094.jpg""]","4","","","","","","2","","4","[""./rc_img/cop_condGroup_2_SafeStreets_autoscaled.png"",""./rc_img/cop_condGroup_2_CommunitySafety_autoscaled.png""]","4","",""
"before_SVSlide_prompt","html-button-response","40","48203","0.0-40.0","","","","14","","","","","","","","","","","","1330","Click [Next] to see the next neighborhood!","0","","","","","","","","","","","",""
"street view slide show","image-button-response","41","49209","0.0-41.0","","","","14","","","","","","","","","","","","null","stimulus/SV_PolicingMSA/GA_1832/IMG_10_1832.jpg","null","","","","","","2","","","","","",""
"street view slide show","image-button-response","42","50213","0.0-42.0","","","","14","","","","","","","","","","","","null","stimulus/SV_PolicingMSA/GA_1832/IMG_9_1832.jpg","null","","","","","","2","","","","","",""
"street view slide show","image-button-response","43","51219","0.0-43.0","","","","14","","","","","","","","","","","","null","stimulus/SV_PolicingMSA/GA_1832/IMG_1_1832.jpg","null","","","","","","2","","","","","",""
"street view slide show","image-button-response","44","52222","0.0-44.0","","","","14","","","","","","","","","","","","null","stimulus/SV_PolicingMSA/GA_1832/IMG_8_1832.jpg","null","","","","","","2","","","","","",""
"street view slide show","image-button-response","45","53228","0.0-45.0","","","","14","","","","","","","","","","","","null","stimulus/SV_PolicingMSA/GA_1832/IMG_11_1832.jpg","null","","","","","","2","","","","","",""
"street view slide show","image-button-response","46","54233","0.0-46.0","","","","14","","","","","","","","","","","","null","stimulus/SV_PolicingMSA/GA_1832/IMG_2_1832.jpg","null","","","","","","2","","","","","",""
"street view slide show","image-button-response","47","55238","0.0-47.0","","","","14","","","","","","","","","","","","null","stimulus/SV_PolicingMSA/GA_1832/IMG_12_1832.jpg","null","","","","","","2","","","","","",""
"street view slide show","image-button-response","48","56244","0.0-48.0","","","","14","","","","","","","","","","","","null","stimulus/SV_PolicingMSA/GA_1832/IMG_7_1832.jpg","null","","","","","","2","","","","","",""
"dot matrix survey1","survey","49","58100","0.0-49.0","","","","14","","","","","","","","","","","","1839","","{""P0_Q0"":null,""P0_Q1"":null}","","","","","","2","[]","","","","",""
"dot matrix survey2","survey","50","58679","0.0-50.0","","","","14","","","","","","","","","","","","572","","{""P0_Q0"":null,""P0_Q1"":null}","","","","","","2","[]","","","","",""
"dot matrix survey3","survey","51","59923","0.0-51.0","","","","14","","","","","","","","","","","","1236","","{""P0_Q0"":null,""P0_Q1"":null}","","","","","","2","[]","","","","",""
"sliderTrial","html-slider-response","52","61802","0.0-52.0","","","","14","","","","","","","","","","","","1877","[""SV_PolicingMSA/GA_1832/IMG_10_1832.jpg"",""SV_PolicingMSA/GA_1832/IMG_9_1832.jpg"",""SV_PolicingMSA/GA_1832/IMG_1_1832.jpg"",""SV_PolicingMSA/GA_1832/IMG_8_1832.jpg"",""SV_PolicingMSA/GA_1832/IMG_11_1832.jpg"",""SV_PolicingMSA/GA_1832/IMG_2_1832.jpg"",""SV_PolicingMSA/GA_1832/IMG_12_1832.jpg"",""SV_PolicingMSA/GA_1832/IMG_7_1832.jpg""]","4","","","","","","2","","4","[""./rc_img/cop_condGroup_7_CommunitySafety_autoscaled.png"",""./rc_img/cop_condGroup_7_SafeStreets_autoscaled.png""]","4","",""
"sliderTrial","html-slider-response","53","62488","0.0-53.0","","","","14","","","","","","","","","","","","684","[""SV_PolicingMSA/GA_1832/IMG_10_1832.jpg"",""SV_PolicingMSA/GA_1832/IMG_9_1832.jpg"",""SV_PolicingMSA/GA_1832/IMG_1_1832.jpg"",""SV_PolicingMSA/GA_1832/IMG_8_1832.jpg"",""SV_PolicingMSA/GA_1832/IMG_11_1832.jpg"",""SV_PolicingMSA/GA_1832/IMG_2_1832.jpg"",""SV_PolicingMSA/GA_1832/IMG_12_1832.jpg"",""SV_PolicingMSA/GA_1832/IMG_7_1832.jpg""]","4","","","","","","2","","4","[""./rc_img/cop_condGroup_13_CommunitySafety_autoscaled.png"",""./rc_img/cop_condGroup_13_SafeStreets_autoscaled.png""]","4","",""
"sliderTrial","html-slider-response","54","62834","0.0-54.0","","","","14","","","","","","","","","","","","343","[""SV_PolicingMSA/GA_1832/IMG_10_1832.jpg"",""SV_PolicingMSA/GA_1832/IMG_9_1832.jpg"",""SV_PolicingMSA/GA_1832/IMG_1_1832.jpg"",""SV_PolicingMSA/GA_1832/IMG_8_1832.jpg"",""SV_PolicingMSA/GA_1832/IMG_11_1832.jpg"",""SV_PolicingMSA/GA_1832/IMG_2_1832.jpg"",""SV_PolicingMSA/GA_1832/IMG_12_1832.jpg"",""SV_PolicingMSA/GA_1832/IMG_7_1832.jpg""]","4","","","","","","2","","4","[""./rc_img/cop_condGroup_18_CommunitySafety_autoscaled.png"",""./rc_img/cop_condGroup_18_SafeStreets_autoscaled.png""]","4","",""
"sliderTrial","html-slider-response","55","63052","0.0-55.0","","","","14","","","","","","","","","","","","217","[""SV_PolicingMSA/GA_1832/IMG_10_1832.jpg"",""SV_PolicingMSA/GA_1832/IMG_9_1832.jpg"",""SV_PolicingMSA/GA_1832/IMG_1_1832.jpg"",""SV_PolicingMSA/GA_1832/IMG_8_1832.jpg"",""SV_PolicingMSA/GA_1832/IMG_11_1832.jpg"",""SV_PolicingMSA/GA_1832/IMG_2_1832.jpg"",""SV_PolicingMSA/GA_1832/IMG_12_1832.jpg"",""SV_PolicingMSA/GA_1832/IMG_7_1832.jpg""]","4","","","","","","2","","4","[""./rc_img/cop_condGroup_16_SafeStreets_autoscaled.png"",""./rc_img/cop_condGroup_16_CommunitySafety_autoscaled.png""]","4","",""
"sliderTrial","html-slider-response","56","63417","0.0-56.0","","","","14","","","","","","","","","","","","363","[""SV_PolicingMSA/GA_1832/IMG_10_1832.jpg"",""SV_PolicingMSA/GA_1832/IMG_9_1832.jpg"",""SV_PolicingMSA/GA_1832/IMG_1_1832.jpg"",""SV_PolicingMSA/GA_1832/IMG_8_1832.jpg"",""SV_PolicingMSA/GA_1832/IMG_11_1832.jpg"",""SV_PolicingMSA/GA_1832/IMG_2_1832.jpg"",""SV_PolicingMSA/GA_1832/IMG_12_1832.jpg"",""SV_PolicingMSA/GA_1832/IMG_7_1832.jpg""]","4","","","","","","2","","4","[""./rc_img/cop_condGroup_12_CommunitySafety_autoscaled.png"",""./rc_img/cop_condGroup_12_SafeStreets_autoscaled.png""]","4","",""
"before_SVSlide_prompt","html-button-response","57","64734","0.0-57.0","","","","14","","","","","","","","","","","","1316","Click [Next] to see the next neighborhood!","0","","","","","","","","","","","",""
"street view slide show","image-button-response","58","65739","0.0-58.0","","","","14","","","","","","","","","","","","null","stimulus/SV_PolicingMSA/GA_2658/IMG_13_2658.jpg","null","","","","","","4","","","","","",""
"street view slide show","image-button-response","59","66744","0.0-59.0","","","","14","","","","","","","","","","","","null","stimulus/SV_PolicingMSA/GA_2658/IMG_1_2658.jpg","null","","","","","","4","","","","","",""
"street view slide show","image-button-response","60","67748","0.0-60.0","","","","14","","","","","","","","","","","","null","stimulus/SV_PolicingMSA/GA_2658/IMG_12_2658.jpg","null","","","","","","4","","","","","",""
"street view slide show","image-button-response","61","68754","0.0-61.0","","","","14","","","","","","","","","","","","null","stimulus/SV_PolicingMSA/GA_2658/IMG_5_2658.jpg","null","","","","","","4","","","","","",""
"street view slide show","image-button-response","62","69761","0.0-62.0","","","","14","","","","","","","","","","","","null","stimulus/SV_PolicingMSA/GA_2658/IMG_7_2658.jpg","null","","","","","","4","","","","","",""
"street view slide show","image-button-response","63","70768","0.0-63.0","","","","14","","","","","","","","","","","","null","stimulus/SV_PolicingMSA/GA_2658/IMG_0_2658.jpg","null","","","","","","4","","","","","",""
"street view slide show","image-button-response","64","71774","0.0-64.0","","","","14","","","","","","","","","","","","null","stimulus/SV_PolicingMSA/GA_2658/IMG_14_2658.jpg","null","","","","","","4","","","","","",""
"street view slide show","image-button-response","65","72779","0.0-65.0","","","","14","","","","","","","","","","","","null","stimulus/SV_PolicingMSA/GA_2658/IMG_3_2658.jpg","null","","","","","","4","","","","","",""
"dot matrix survey1","survey","66","74459","0.0-66.0","","","","14","","","","","","","","","","","","1669","","{""P0_Q0"":null,""P0_Q1"":null}","","","","","","4","[]","","","","",""
"dot matrix survey2","survey","67","75090","0.0-67.0","","","","14","","","","","","","","","","","","625","","{""P0_Q0"":null,""P0_Q1"":null}","","","","","","4","[]","","","","",""
"dot matrix survey3","survey","68","76567","0.0-68.0","","","","14","","","","","","","","","","","","1471","","{""P0_Q0"":null,""P0_Q1"":null}","","","","","","4","[]","","","","",""
"sliderTrial","html-slider-response","69","78653","0.0-69.0","","","","14","","","","","","","","","","","","2083","[""SV_PolicingMSA/GA_2658/IMG_13_2658.jpg"",""SV_PolicingMSA/GA_2658/IMG_1_2658.jpg"",""SV_PolicingMSA/GA_2658/IMG_12_2658.jpg"",""SV_PolicingMSA/GA_2658/IMG_5_2658.jpg"",""SV_PolicingMSA/GA_2658/IMG_7_2658.jpg"",""SV_PolicingMSA/GA_2658/IMG_0_2658.jpg"",""SV_PolicingMSA/GA_2658/IMG_14_2658.jpg"",""SV_PolicingMSA/GA_2658/IMG_3_2658.jpg""]","4","","","","","","4","","4","[""./rc_img/cop_condGroup_7_CommunitySafety_autoscaled.png"",""./rc_img/cop_condGroup_7_SafeStreets_autoscaled.png""]","4","",""
"sliderTrial","html-slider-response","70","79215","0.0-70.0","","","","14","","","","","","","","","","","","560","[""SV_PolicingMSA/GA_2658/IMG_13_2658.jpg"",""SV_PolicingMSA/GA_2658/IMG_1_2658.jpg"",""SV_PolicingMSA/GA_2658/IMG_12_2658.jpg"",""SV_PolicingMSA/GA_2658/IMG_5_2658.jpg"",""SV_PolicingMSA/GA_2658/IMG_7_2658.jpg"",""SV_PolicingMSA/GA_2658/IMG_0_2658.jpg"",""SV_PolicingMSA/GA_2658/IMG_14_2658.jpg"",""SV_PolicingMSA/GA_2658/IMG_3_2658.jpg""]","4","","","","","","4","","4","[""./rc_img/cop_condGroup_13_CommunitySafety_autoscaled.png"",""./rc_img/cop_condGroup_13_SafeStreets_autoscaled.png""]","4","",""
"sliderTrial","html-slider-response","71","79533","0.0-71.0","","","","14","","","","","","","","","","","","317","[""SV_PolicingMSA/GA_2658/IMG_13_2658.jpg"",""SV_PolicingMSA/GA_2658/IMG_1_2658.jpg"",""SV_PolicingMSA/GA_2658/IMG_12_2658.jpg"",""SV_PolicingMSA/GA_2658/IMG_5_2658.jpg"",""SV_PolicingMSA/GA_2658/IMG_7_2658.jpg"",""SV_PolicingMSA/GA_2658/IMG_0_2658.jpg"",""SV_PolicingMSA/GA_2658/IMG_14_2658.jpg"",""SV_PolicingMSA/GA_2658/IMG_3_2658.jpg""]","4","","","","","","4","","4","[""./rc_img/cop_condGroup_18_CommunitySafety_autoscaled.png"",""./rc_img/cop_condGroup_18_SafeStreets_autoscaled.png""]","4","",""
"sliderTrial","html-slider-response","72","80048","0.0-72.0","","","","14","","","","","","","","","","","","514","[""SV_PolicingMSA/GA_2658/IMG_13_2658.jpg"",""SV_PolicingMSA/GA_2658/IMG_1_2658.jpg"",""SV_PolicingMSA/GA_2658/IMG_12_2658.jpg"",""SV_PolicingMSA/GA_2658/IMG_5_2658.jpg"",""SV_PolicingMSA/GA_2658/IMG_7_2658.jpg"",""SV_PolicingMSA/GA_2658/IMG_0_2658.jpg"",""SV_PolicingMSA/GA_2658/IMG_14_2658.jpg"",""SV_PolicingMSA/GA_2658/IMG_3_2658.jpg""]","4","","","","","","4","","4","[""./rc_img/cop_condGroup_16_SafeStreets_autoscaled.png"",""./rc_img/cop_condGroup_16_CommunitySafety_autoscaled.png""]","4","",""
"sliderTrial","html-slider-response","73","80396","0.0-73.0","","","","14","","","","","","","","","","","","346","[""SV_PolicingMSA/GA_2658/IMG_13_2658.jpg"",""SV_PolicingMSA/GA_2658/IMG_1_2658.jpg"",""SV_PolicingMSA/GA_2658/IMG_12_2658.jpg"",""SV_PolicingMSA/GA_2658/IMG_5_2658.jpg"",""SV_PolicingMSA/GA_2658/IMG_7_2658.jpg"",""SV_PolicingMSA/GA_2658/IMG_0_2658.jpg"",""SV_PolicingMSA/GA_2658/IMG_14_2658.jpg"",""SV_PolicingMSA/GA_2658/IMG_3_2658.jpg""]","4","","","","","","4","","4","[""./rc_img/cop_condGroup_12_CommunitySafety_autoscaled.png"",""./rc_img/cop_condGroup_12_SafeStreets_autoscaled.png""]","4","",""
"half-way","html-button-response","74","82250","0.0-74.0","","","","14","","","","","","","","","","","","1853","
    <h3>You are now half way through the study.</h3>
    <p>Please take a quick, 15-second break before you continue.</p>
    <img src='assets/img/countdown-15.gif'>
    <p>The study will automatically advance forward after the countdown is complete. <br> However, you may click ""Next"" to advance forward now if you wish.</p>
    ","0","","","","","","","","","","","",""
"before_SVSlide_prompt","html-button-response","75","84012","0.0-75.0","","","","14","","","","","","","","","","","","1761","Click [Next] to see the next neighborhood!","0","","","","","","","","","","","",""
"street view slide show","image-button-response","76","85019","0.0-76.0","","","","14","","","","","","","","","","","","null","stimulus/SV_PolicingMSA/GA_1756/IMG_10_1756.jpg","null","","","","","","0","","","","","",""
"street view slide show","image-button-response","77","86030","0.0-77.0","","","","14","","","","","","","","","","","","null","stimulus/SV_PolicingMSA/GA_1756/IMG_13_1756.jpg","null","","","","","","0","","","","","",""
"street view slide show","image-button-response","78","87036","0.0-78.0","","","","14","","","","","","","","","","","","null","stimulus/SV_PolicingMSA/GA_1756/IMG_3_1756.jpg","null","","","","","","0","","","","","",""
"street view slide show","image-button-response","79","88040","0.0-79.0","","","","14","","","","","","","","","","","","null","stimulus/SV_PolicingMSA/GA_1756/IMG_2_1756.jpg","null","","","","","","0","","","","","",""
"street view slide show","image-button-response","80","89045","0.0-80.0","","","","14","","","","","","","","","","","","null","stimulus/SV_PolicingMSA/GA_1756/IMG_14_1756.jpg","null","","","","","","0","","","","","",""
"street view slide show","image-button-response","81","90052","0.0-81.0","","","","14","","","","","","","","","","","","null","stimulus/SV_PolicingMSA/GA_1756/IMG_7_1756.jpg","null","","","","","","0","","","","","",""
"street view slide show","image-button-response","82","91055","0.0-82.0","","","","14","","","","","","","","","","","","null","stimulus/SV_PolicingMSA/GA_1756/IMG_1_1756.jpg","null","","","","","","0","","","","","",""
"street view slide show","image-button-response","83","92060","0.0-83.0","","","","14","","","","","","","","","","","","null","stimulus/SV_PolicingMSA/GA_1756/IMG_4_1756.jpg","null","","","","","","0","","","","","",""
"dot matrix survey1","survey","84","93858","0.0-84.0","","","","14","","","","","","","","","","","","1785","","{""P0_Q0"":null,""P0_Q1"":null}","","","","","","0","[]","","","","",""
"dot matrix survey2","survey","85","94240","0.0-85.0","","","","14","","","","","","","","","","","","376","","{""P0_Q0"":null,""P0_Q1"":null}","","","","","","0","[]","","","","",""
"dot matrix survey3","survey","86","95551","0.0-86.0","","","","14","","","","","","","","","","","","1304","","{""P0_Q0"":null,""P0_Q1"":null}","","","","","","0","[]","","","","",""
"sliderTrial","html-slider-response","87","99641","0.0-87.0","","","","14","","","","","","","","","","","","4088","[""SV_PolicingMSA/GA_1756/IMG_10_1756.jpg"",""SV_PolicingMSA/GA_1756/IMG_13_1756.jpg"",""SV_PolicingMSA/GA_1756/IMG_3_1756.jpg"",""SV_PolicingMSA/GA_1756/IMG_2_1756.jpg"",""SV_PolicingMSA/GA_1756/IMG_14_1756.jpg"",""SV_PolicingMSA/GA_1756/IMG_7_1756.jpg"",""SV_PolicingMSA/GA_1756/IMG_1_1756.jpg"",""SV_PolicingMSA/GA_1756/IMG_4_1756.jpg""]","3","","","","","","0","","4","[""./rc_img/cop_condGroup_14_SafeStreets_autoscaled.png"",""./rc_img/cop_condGroup_14_CommunitySafety_autoscaled.png""]","5","",""
"sliderTrial_attention","html-slider-response","88","100473","0.0-88.0","","","","14","","","","","","","","","","","","831","[""SV_PolicingMSA/GA_1756/IMG_10_1756.jpg"",""SV_PolicingMSA/GA_1756/IMG_13_1756.jpg"",""SV_PolicingMSA/GA_1756/IMG_3_1756.jpg"",""SV_PolicingMSA/GA_1756/IMG_2_1756.jpg"",""SV_PolicingMSA/GA_1756/IMG_14_1756.jpg"",""SV_PolicingMSA/GA_1756/IMG_7_1756.jpg"",""SV_PolicingMSA/GA_1756/IMG_1_1756.jpg"",""SV_PolicingMSA/GA_1756/IMG_4_1756.jpg""]","4","","","","","","0","","4","[""./assets/img/attnchk.png"",""./assets/img/attnchk.png""]","","",""
"sliderTrial","html-slider-response","89","100983","0.0-89.0","","","","14","","","","","","","","","","","","507","[""SV_PolicingMSA/GA_1756/IMG_10_1756.jpg"",""SV_PolicingMSA/GA_1756/IMG_13_1756.jpg"",""SV_PolicingMSA/GA_1756/IMG_3_1756.jpg"",""SV_PolicingMSA/GA_1756/IMG_2_1756.jpg"",""SV_PolicingMSA/GA_1756/IMG_14_1756.jpg"",""SV_PolicingMSA/GA_1756/IMG_7_1756.jpg"",""SV_PolicingMSA/GA_1756/IMG_1_1756.jpg"",""SV_PolicingMSA/GA_1756/IMG_4_1756.jpg""]","4","","","","","","0","","4","[""./rc_img/cop_condGroup_5_CommunitySafety_autoscaled.png"",""./rc_img/cop_condGroup_5_SafeStreets_autoscaled.png""]","4","",""
"sliderTrial","html-slider-response","90","101208","0.0-90.0","","","","14","","","","","","","","","","","","224","[""SV_PolicingMSA/GA_1756/IMG_10_1756.jpg"",""SV_PolicingMSA/GA_1756/IMG_13_1756.jpg"",""SV_PolicingMSA/GA_1756/IMG_3_1756.jpg"",""SV_PolicingMSA/GA_1756/IMG_2_1756.jpg"",""SV_PolicingMSA/GA_1756/IMG_14_1756.jpg"",""SV_PolicingMSA/GA_1756/IMG_7_1756.jpg"",""SV_PolicingMSA/GA_1756/IMG_1_1756.jpg"",""SV_PolicingMSA/GA_1756/IMG_4_1756.jpg""]","4","","","","","","0","","4","[""./rc_img/cop_condGroup_1_SafeStreets_autoscaled.png"",""./rc_img/cop_condGroup_1_CommunitySafety_autoscaled.png""]","4","",""
"sliderTrial","html-slider-response","91","101523","0.0-91.0","","","","14","","","","","","","","","","","","313","[""SV_PolicingMSA/GA_1756/IMG_10_1756.jpg"",""SV_PolicingMSA/GA_1756/IMG_13_1756.jpg"",""SV_PolicingMSA/GA_1756/IMG_3_1756.jpg"",""SV_PolicingMSA/GA_1756/IMG_2_1756.jpg"",""SV_PolicingMSA/GA_1756/IMG_14_1756.jpg"",""SV_PolicingMSA/GA_1756/IMG_7_1756.jpg"",""SV_PolicingMSA/GA_1756/IMG_1_1756.jpg"",""SV_PolicingMSA/GA_1756/IMG_4_1756.jpg""]","4","","","","","","0","","4","[""./rc_img/cop_condGroup_4_CommunitySafety_autoscaled.png"",""./rc_img/cop_condGroup_4_SafeStreets_autoscaled.png""]","4","",""
"sliderTrial","html-slider-response","92","101842","0.0-92.0","","","","14","","","","","","","","","","","","317","[""SV_PolicingMSA/GA_1756/IMG_10_1756.jpg"",""SV_PolicingMSA/GA_1756/IMG_13_1756.jpg"",""SV_PolicingMSA/GA_1756/IMG_3_1756.jpg"",""SV_PolicingMSA/GA_1756/IMG_2_1756.jpg"",""SV_PolicingMSA/GA_1756/IMG_14_1756.jpg"",""SV_PolicingMSA/GA_1756/IMG_7_1756.jpg"",""SV_PolicingMSA/GA_1756/IMG_1_1756.jpg"",""SV_PolicingMSA/GA_1756/IMG_4_1756.jpg""]","4","","","","","","0","","4","[""./rc_img/cop_condGroup_2_SafeStreets_autoscaled.png"",""./rc_img/cop_condGroup_2_CommunitySafety_autoscaled.png""]","4","",""
"before_SVSlide_prompt","html-button-response","93","103711","0.0-93.0","","","","14","","","","","","","","","","","","1867","Click [Next] to see the next neighborhood!","0","","","","","","","","","","","",""
"street view slide show","image-button-response","94","104714","0.0-94.0","","","","14","","","","","","","","","","","","null","stimulus/SV_PolicingMSA/GA_1789/IMG_3_1789.jpg","null","","","","","","1","","","","","",""
"street view slide show","image-button-response","95","105721","0.0-95.0","","","","14","","","","","","","","","","","","null","stimulus/SV_PolicingMSA/GA_1789/IMG_8_1789.jpg","null","","","","","","1","","","","","",""
"street view slide show","image-button-response","96","106728","0.0-96.0","","","","14","","","","","","","","","","","","null","stimulus/SV_PolicingMSA/GA_1789/IMG_14_1789.jpg","null","","","","","","1","","","","","",""
"street view slide show","image-button-response","97","107735","0.0-97.0","","","","14","","","","","","","","","","","","null","stimulus/SV_PolicingMSA/GA_1789/IMG_13_1789.jpg","null","","","","","","1","","","","","",""
"street view slide show","image-button-response","98","108742","0.0-98.0","","","","14","","","","","","","","","","","","null","stimulus/SV_PolicingMSA/GA_1789/IMG_11_1789.jpg","null","","","","","","1","","","","","",""
"street view slide show","image-button-response","99","109748","0.0-99.0","","","","14","","","","","","","","","","","","null","stimulus/SV_PolicingMSA/GA_1789/IMG_7_1789.jpg","null","","","","","","1","","","","","",""
"street view slide show","image-button-response","100","110751","0.0-100.0","","","","14","","","","","","","","","","","","null","stimulus/SV_PolicingMSA/GA_1789/IMG_9_1789.jpg","null","","","","","","1","","","","","",""
"street view slide show","image-button-response","101","111755","0.0-101.0","","","","14","","","","","","","","","","","","null","stimulus/SV_PolicingMSA/GA_1789/IMG_2_1789.jpg","null","","","","","","1","","","","","",""
"dot matrix survey1","survey","102","114950","0.0-102.0","","","","14","","","","","","","","","","","","3187","","{""P0_Q0"":null,""P0_Q1"":null}","","","","","","1","[]","","","","",""
"dot matrix survey2","survey","103","115792","0.0-103.0","","","","14","","","","","","","","","","","","836","","{""P0_Q0"":null,""P0_Q1"":null}","","","","","","1","[]","","","","",""
"dot matrix survey3","survey","104","117482","0.0-104.0","","","","14","","","","","","","","","","","","1686","","{""P0_Q0"":null,""P0_Q1"":null}","","","","","","1","[]","","","","",""
"sliderTrial_attention","html-slider-response","105","127486","0.0-105.0","","","","14","","","","","","","","","","","","null","[""SV_PolicingMSA/GA_1789/IMG_3_1789.jpg"",""SV_PolicingMSA/GA_1789/IMG_8_1789.jpg"",""SV_PolicingMSA/GA_1789/IMG_14_1789.jpg"",""SV_PolicingMSA/GA_1789/IMG_13_1789.jpg"",""SV_PolicingMSA/GA_1789/IMG_11_1789.jpg"",""SV_PolicingMSA/GA_1789/IMG_7_1789.jpg"",""SV_PolicingMSA/GA_1789/IMG_9_1789.jpg"",""SV_PolicingMSA/GA_1789/IMG_2_1789.jpg""]","null","","","","","","1","","4","[""./assets/img/attnchk.png"",""./assets/img/attnchk.png""]","","true",""
"sliderTrial","html-slider-response","106","128702","0.0-106.0","","","","14","","","","","","","","","","","","1214","[""SV_PolicingMSA/GA_1789/IMG_3_1789.jpg"",""SV_PolicingMSA/GA_1789/IMG_8_1789.jpg"",""SV_PolicingMSA/GA_1789/IMG_14_1789.jpg"",""SV_PolicingMSA/GA_1789/IMG_13_1789.jpg"",""SV_PolicingMSA/GA_1789/IMG_11_1789.jpg"",""SV_PolicingMSA/GA_1789/IMG_7_1789.jpg"",""SV_PolicingMSA/GA_1789/IMG_9_1789.jpg"",""SV_PolicingMSA/GA_1789/IMG_2_1789.jpg""]","4","","","","","","1","","4","[""./rc_img/cop_condGroup_9_SafeStreets_autoscaled.png"",""./rc_img/cop_condGroup_9_CommunitySafety_autoscaled.png""]","4","",""
"sliderTrial","html-slider-response","107","129017","0.0-107.0","","","","14","","","","","","","","","","","","313","[""SV_PolicingMSA/GA_1789/IMG_3_1789.jpg"",""SV_PolicingMSA/GA_1789/IMG_8_1789.jpg"",""SV_PolicingMSA/GA_1789/IMG_14_1789.jpg"",""SV_PolicingMSA/GA_1789/IMG_13_1789.jpg"",""SV_PolicingMSA/GA_1789/IMG_11_1789.jpg"",""SV_PolicingMSA/GA_1789/IMG_7_1789.jpg"",""SV_PolicingMSA/GA_1789/IMG_9_1789.jpg"",""SV_PolicingMSA/GA_1789/IMG_2_1789.jpg""]","4","","","","","","1","","4","[""./rc_img/cop_condGroup_3_SafeStreets_autoscaled.png"",""./rc_img/cop_condGroup_3_CommunitySafety_autoscaled.png""]","4","",""
"sliderTrial","html-slider-response","108","129251","0.0-108.0","","","","14","","","","","","","","","","","","232","[""SV_PolicingMSA/GA_1789/IMG_3_1789.jpg"",""SV_PolicingMSA/GA_1789/IMG_8_1789.jpg"",""SV_PolicingMSA/GA_1789/IMG_14_1789.jpg"",""SV_PolicingMSA/GA_1789/IMG_13_1789.jpg"",""SV_PolicingMSA/GA_1789/IMG_11_1789.jpg"",""SV_PolicingMSA/GA_1789/IMG_7_1789.jpg"",""SV_PolicingMSA/GA_1789/IMG_9_1789.jpg"",""SV_PolicingMSA/GA_1789/IMG_2_1789.jpg""]","4","","","","","","1","","4","[""./rc_img/cop_condGroup_17_CommunitySafety_autoscaled.png"",""./rc_img/cop_condGroup_17_SafeStreets_autoscaled.png""]","4","",""
"sliderTrial","html-slider-response","109","129500","0.0-109.0","","","","14","","","","","","","","","","","","248","[""SV_PolicingMSA/GA_1789/IMG_3_1789.jpg"",""SV_PolicingMSA/GA_1789/IMG_8_1789.jpg"",""SV_PolicingMSA/GA_1789/IMG_14_1789.jpg"",""SV_PolicingMSA/GA_1789/IMG_13_1789.jpg"",""SV_PolicingMSA/GA_1789/IMG_11_1789.jpg"",""SV_PolicingMSA/GA_1789/IMG_7_1789.jpg"",""SV_PolicingMSA/GA_1789/IMG_9_1789.jpg"",""SV_PolicingMSA/GA_1789/IMG_2_1789.jpg""]","4","","","","","","1","","4","[""./rc_img/cop_condGroup_6_SafeStreets_autoscaled.png"",""./rc_img/cop_condGroup_6_CommunitySafety_autoscaled.png""]","4","",""
"sliderTrial","html-slider-response","110","129754","0.0-110.0","","","","14","","","","","","","","","","","","251","[""SV_PolicingMSA/GA_1789/IMG_3_1789.jpg"",""SV_PolicingMSA/GA_1789/IMG_8_1789.jpg"",""SV_PolicingMSA/GA_1789/IMG_14_1789.jpg"",""SV_PolicingMSA/GA_1789/IMG_13_1789.jpg"",""SV_PolicingMSA/GA_1789/IMG_11_1789.jpg"",""SV_PolicingMSA/GA_1789/IMG_7_1789.jpg"",""SV_PolicingMSA/GA_1789/IMG_9_1789.jpg"",""SV_PolicingMSA/GA_1789/IMG_2_1789.jpg""]","4","","","","","","1","","4","[""./rc_img/cop_condGroup_15_SafeStreets_autoscaled.png"",""./rc_img/cop_condGroup_15_CommunitySafety_autoscaled.png""]","4","",""
"before_SVSlide_prompt","html-button-response","111","131035","0.0-111.0","","","","14","","","","","","","","","","","","1281","Click [Next] to see the next neighborhood!","0","","","","","","","","","","","",""
"street view slide show","image-button-response","112","132041","0.0-112.0","","","","14","","","","","","","","","","","","null","stimulus/SV_PolicingMSA/GA_2654/IMG_5_2654.jpg","null","","","","","","3","","","","","",""
"street view slide show","image-button-response","113","133047","0.0-113.0","","","","14","","","","","","","","","","","","null","stimulus/SV_PolicingMSA/GA_2654/IMG_8_2654.jpg","null","","","","","","3","","","","","",""
"street view slide show","image-button-response","114","134053","0.0-114.0","","","","14","","","","","","","","","","","","null","stimulus/SV_PolicingMSA/GA_2654/IMG_6_2654.jpg","null","","","","","","3","","","","","",""
"street view slide show","image-button-response","115","135058","0.0-115.0","","","","14","","","","","","","","","","","","null","stimulus/SV_PolicingMSA/GA_2654/IMG_1_2654.jpg","null","","","","","","3","","","","","",""
"street view slide show","image-button-response","116","136063","0.0-116.0","","","","14","","","","","","","","","","","","null","stimulus/SV_PolicingMSA/GA_2654/IMG_0_2654.jpg","null","","","","","","3","","","","","",""
"street view slide show","image-button-response","117","137070","0.0-117.0","","","","14","","","","","","","","","","","","null","stimulus/SV_PolicingMSA/GA_2654/IMG_7_2654.jpg","null","","","","","","3","","","","","",""
"street view slide show","image-button-response","118","138074","0.0-118.0","","","","14","","","","","","","","","","","","null","stimulus/SV_PolicingMSA/GA_2654/IMG_3_2654.jpg","null","","","","","","3","","","","","",""
"street view slide show","image-button-response","119","139081","0.0-119.0","","","","14","","","","","","","","","","","","null","stimulus/SV_PolicingMSA/GA_2654/IMG_12_2654.jpg","null","","","","","","3","","","","","",""
"dot matrix survey1","survey","120","140678","0.0-120.0","","","","14","","","","","","","","","","","","1584","","{""P0_Q0"":null,""P0_Q1"":null}","","","","","","3","[]","","","","",""
"dot matrix survey2","survey","121","141178","0.0-121.0","","","","14","","","","","","","","","","","","493","","{""P0_Q0"":null,""P0_Q1"":null}","","","","","","3","[]","","","","",""
"dot matrix survey3","survey","122","142125","0.0-122.0","","","","14","","","","","","","","","","","","940","","{""P0_Q0"":null,""P0_Q1"":null}","","","","","","3","[]","","","","",""
"sliderTrial","html-slider-response","123","143635","0.0-123.0","","","","14","","","","","","","","","","","","1508","[""SV_PolicingMSA/GA_2654/IMG_5_2654.jpg"",""SV_PolicingMSA/GA_2654/IMG_8_2654.jpg"",""SV_PolicingMSA/GA_2654/IMG_6_2654.jpg"",""SV_PolicingMSA/GA_2654/IMG_1_2654.jpg"",""SV_PolicingMSA/GA_2654/IMG_0_2654.jpg"",""SV_PolicingMSA/GA_2654/IMG_7_2654.jpg"",""SV_PolicingMSA/GA_2654/IMG_3_2654.jpg"",""SV_PolicingMSA/GA_2654/IMG_12_2654.jpg""]","4","","","","","","3","","4","[""./rc_img/cop_condGroup_9_SafeStreets_autoscaled.png"",""./rc_img/cop_condGroup_9_CommunitySafety_autoscaled.png""]","4","",""
"sliderTrial","html-slider-response","124","144196","0.0-124.0","","","","14","","","","","","","","","","","","559","[""SV_PolicingMSA/GA_2654/IMG_5_2654.jpg"",""SV_PolicingMSA/GA_2654/IMG_8_2654.jpg"",""SV_PolicingMSA/GA_2654/IMG_6_2654.jpg"",""SV_PolicingMSA/GA_2654/IMG_1_2654.jpg"",""SV_PolicingMSA/GA_2654/IMG_0_2654.jpg"",""SV_PolicingMSA/GA_2654/IMG_7_2654.jpg"",""SV_PolicingMSA/GA_2654/IMG_3_2654.jpg"",""SV_PolicingMSA/GA_2654/IMG_12_2654.jpg""]","4","","","","","","3","","4","[""./rc_img/cop_condGroup_3_SafeStreets_autoscaled.png"",""./rc_img/cop_condGroup_3_CommunitySafety_autoscaled.png""]","4","",""
"sliderTrial","html-slider-response","125","144446","0.0-125.0","","","","14","","","","","","","","","","","","249","[""SV_PolicingMSA/GA_2654/IMG_5_2654.jpg"",""SV_PolicingMSA/GA_2654/IMG_8_2654.jpg"",""SV_PolicingMSA/GA_2654/IMG_6_2654.jpg"",""SV_PolicingMSA/GA_2654/IMG_1_2654.jpg"",""SV_PolicingMSA/GA_2654/IMG_0_2654.jpg"",""SV_PolicingMSA/GA_2654/IMG_7_2654.jpg"",""SV_PolicingMSA/GA_2654/IMG_3_2654.jpg"",""SV_PolicingMSA/GA_2654/IMG_12_2654.jpg""]","4","","","","","","3","","4","[""./rc_img/cop_condGroup_17_CommunitySafety_autoscaled.png"",""./rc_img/cop_condGroup_17_SafeStreets_autoscaled.png""]","4","",""
"sliderTrial","html-slider-response","126","144664","0.0-126.0","","","","14","","","","","","","","","","","","217","[""SV_PolicingMSA/GA_2654/IMG_5_2654.jpg"",""SV_PolicingMSA/GA_2654/IMG_8_2654.jpg"",""SV_PolicingMSA/GA_2654/IMG_6_2654.jpg"",""SV_PolicingMSA/GA_2654/IMG_1_2654.jpg"",""SV_PolicingMSA/GA_2654/IMG_0_2654.jpg"",""SV_PolicingMSA/GA_2654/IMG_7_2654.jpg"",""SV_PolicingMSA/GA_2654/IMG_3_2654.jpg"",""SV_PolicingMSA/GA_2654/IMG_12_2654.jpg""]","4","","","","","","3","","4","[""./rc_img/cop_condGroup_6_SafeStreets_autoscaled.png"",""./rc_img/cop_condGroup_6_CommunitySafety_autoscaled.png""]","4","",""
"sliderTrial","html-slider-response","127","144896","0.0-127.0","","","","14","","","","","","","","","","","","230","[""SV_PolicingMSA/GA_2654/IMG_5_2654.jpg"",""SV_PolicingMSA/GA_2654/IMG_8_2654.jpg"",""SV_PolicingMSA/GA_2654/IMG_6_2654.jpg"",""SV_PolicingMSA/GA_2654/IMG_1_2654.jpg"",""SV_PolicingMSA/GA_2654/IMG_0_2654.jpg"",""SV_PolicingMSA/GA_2654/IMG_7_2654.jpg"",""SV_PolicingMSA/GA_2654/IMG_3_2654.jpg"",""SV_PolicingMSA/GA_2654/IMG_12_2654.jpg""]","4","","","","","","3","","4","[""./rc_img/cop_condGroup_15_SafeStreets_autoscaled.png"",""./rc_img/cop_condGroup_15_CommunitySafety_autoscaled.png""]","4","",""
"before_SVSlide_prompt","html-button-response","128","146145","0.0-128.0","","","","14","","","","","","","","","","","","1248","Click [Next] to see the next neighborhood!","0","","","","","","","","","","","",""
"street view slide show","image-button-response","129","147150","0.0-129.0","","","","14","","","","","","","","","","","","null","stimulus/SV_PolicingMSA/GA_1400/IMG_4_1400.jpg","null","","","","","","3","","","","","",""
"street view slide show","image-button-response","130","148155","0.0-130.0","","","","14","","","","","","","","","","","","null","stimulus/SV_PolicingMSA/GA_1400/IMG_2_1400.jpg","null","","","","","","3","","","","","",""
"street view slide show","image-button-response","131","149162","0.0-131.0","","","","14","","","","","","","","","","","","null","stimulus/SV_PolicingMSA/GA_1400/IMG_0_1400.jpg","null","","","","","","3","","","","","",""
"street view slide show","image-button-response","132","150164","0.0-132.0","","","","14","","","","","","","","","","","","null","stimulus/SV_PolicingMSA/GA_1400/IMG_3_1400.jpg","null","","","","","","3","","","","","",""
"street view slide show","image-button-response","133","151168","0.0-133.0","","","","14","","","","","","","","","","","","null","stimulus/SV_PolicingMSA/GA_1400/IMG_9_1400.jpg","null","","","","","","3","","","","","",""
"street view slide show","image-button-response","134","152172","0.0-134.0","","","","14","","","","","","","","","","","","null","stimulus/SV_PolicingMSA/GA_1400/IMG_8_1400.jpg","null","","","","","","3","","","","","",""
"street view slide show","image-button-response","135","153176","0.0-135.0","","","","14","","","","","","","","","","","","null","stimulus/SV_PolicingMSA/GA_1400/IMG_1_1400.jpg","null","","","","","","3","","","","","",""
"street view slide show","image-button-response","136","154182","0.0-136.0","","","","14","","","","","","","","","","","","null","stimulus/SV_PolicingMSA/GA_1400/IMG_12_1400.jpg","null","","","","","","3","","","","","",""
"dot matrix survey1","survey","137","157691","0.0-137.0","","","","14","","","","","","","","","","","","3502","","{""P0_Q0"":null,""P0_Q1"":null}","","","","","","3","[]","","","","",""
"dot matrix survey2","survey","138","158401","0.0-138.0","","","","14","","","","","","","","","","","","704","","{""P0_Q0"":null,""P0_Q1"":null}","","","","","","3","[]","","","","",""
"dot matrix survey3","survey","139","159672","0.0-139.0","","","","14","","","","","","","","","","","","1265","","{""P0_Q0"":null,""P0_Q1"":null}","","","","","","3","[]","","","","",""
"sliderTrial","html-slider-response","140","161447","0.0-140.0","","","","14","","","","","","","","","","","","1773","[""SV_PolicingMSA/GA_1400/IMG_4_1400.jpg"",""SV_PolicingMSA/GA_1400/IMG_2_1400.jpg"",""SV_PolicingMSA/GA_1400/IMG_0_1400.jpg"",""SV_PolicingMSA/GA_1400/IMG_3_1400.jpg"",""SV_PolicingMSA/GA_1400/IMG_9_1400.jpg"",""SV_PolicingMSA/GA_1400/IMG_8_1400.jpg"",""SV_PolicingMSA/GA_1400/IMG_1_1400.jpg"",""SV_PolicingMSA/GA_1400/IMG_12_1400.jpg""]","4","","","","","","3","","4","[""./rc_img/cop_condGroup_8_CommunitySafety_autoscaled.png"",""./rc_img/cop_condGroup_8_SafeStreets_autoscaled.png""]","4","",""
"sliderTrial","html-slider-response","141","162009","0.0-141.0","","","","14","","","","","","","","","","","","561","[""SV_PolicingMSA/GA_1400/IMG_4_1400.jpg"",""SV_PolicingMSA/GA_1400/IMG_2_1400.jpg"",""SV_PolicingMSA/GA_1400/IMG_0_1400.jpg"",""SV_PolicingMSA/GA_1400/IMG_3_1400.jpg"",""SV_PolicingMSA/GA_1400/IMG_9_1400.jpg"",""SV_PolicingMSA/GA_1400/IMG_8_1400.jpg"",""SV_PolicingMSA/GA_1400/IMG_1_1400.jpg"",""SV_PolicingMSA/GA_1400/IMG_12_1400.jpg""]","4","","","","","","3","","4","[""./rc_img/cop_condGroup_10_SafeStreets_autoscaled.png"",""./rc_img/cop_condGroup_10_CommunitySafety_autoscaled.png""]","4","",""
"sliderTrial","html-slider-response","142","162259","0.0-142.0","","","","14","","","","","","","","","","","","246","[""SV_PolicingMSA/GA_1400/IMG_4_1400.jpg"",""SV_PolicingMSA/GA_1400/IMG_2_1400.jpg"",""SV_PolicingMSA/GA_1400/IMG_0_1400.jpg"",""SV_PolicingMSA/GA_1400/IMG_3_1400.jpg"",""SV_PolicingMSA/GA_1400/IMG_9_1400.jpg"",""SV_PolicingMSA/GA_1400/IMG_8_1400.jpg"",""SV_PolicingMSA/GA_1400/IMG_1_1400.jpg"",""SV_PolicingMSA/GA_1400/IMG_12_1400.jpg""]","4","","","","","","3","","4","[""./rc_img/cop_condGroup_19_CommunitySafety_autoscaled.png"",""./rc_img/cop_condGroup_19_SafeStreets_autoscaled.png""]","4","",""
"sliderTrial","html-slider-response","143","162508","0.0-143.0","","","","14","","","","","","","","","","","","248","[""SV_PolicingMSA/GA_1400/IMG_4_1400.jpg"",""SV_PolicingMSA/GA_1400/IMG_2_1400.jpg"",""SV_PolicingMSA/GA_1400/IMG_0_1400.jpg"",""SV_PolicingMSA/GA_1400/IMG_3_1400.jpg"",""SV_PolicingMSA/GA_1400/IMG_9_1400.jpg"",""SV_PolicingMSA/GA_1400/IMG_8_1400.jpg"",""SV_PolicingMSA/GA_1400/IMG_1_1400.jpg"",""SV_PolicingMSA/GA_1400/IMG_12_1400.jpg""]","4","","","","","","3","","4","[""./rc_img/cop_condGroup_11_CommunitySafety_autoscaled.png"",""./rc_img/cop_condGroup_11_SafeStreets_autoscaled.png""]","4","",""
"sliderTrial","html-slider-response","144","162859","0.0-144.0","","","","14","","","","","","","","","","","","350","[""SV_PolicingMSA/GA_1400/IMG_4_1400.jpg"",""SV_PolicingMSA/GA_1400/IMG_2_1400.jpg"",""SV_PolicingMSA/GA_1400/IMG_0_1400.jpg"",""SV_PolicingMSA/GA_1400/IMG_3_1400.jpg"",""SV_PolicingMSA/GA_1400/IMG_9_1400.jpg"",""SV_PolicingMSA/GA_1400/IMG_8_1400.jpg"",""SV_PolicingMSA/GA_1400/IMG_1_1400.jpg"",""SV_PolicingMSA/GA_1400/IMG_12_1400.jpg""]","4","","","","","","3","","4","[""./rc_img/cop_condGroup_20_SafeStreets_autoscaled.png"",""./rc_img/cop_condGroup_20_CommunitySafety_autoscaled.png""]","4","",""
"demographics","survey-html-form","145","164793","0.0-145.0","","","","14","","","","","","","","","","","","1931","","{""age"":"""",""gender-self-describe"":"""",""zipcode"":""""}","","","","","","","","","","","",""
"demographics-list","survey","146","170404","0.0-146.0","","","","14","","","","","","","","","","","","5585","","{""P0_Q0"":null,""race-ethnicity"":[],""education"":"""",""P1_Q0"":null,""ideology"":"""",""P2_Q0"":null,""num-moves"":"""",""P3_Q0"":null,""social-ladder"":null}","","","","","","","[]","","","","",""
"end-survey","survey-text","147","172658","0.0-147.0","","","","14","","","","","","","","","","","","2245","","{""Q0"":""""}","","","","","","","","","","","","1"
"end-survey","html-button-response","148","185520","0.0-148.0","","","","14","","","","","","","","","","","","12860","
    You've reached the end of the survey. <br><br> 
    <b>Do not close or refresh this window.</b><br>
    On the next page, you will be automatically redirected to Prolific. <br><br>

    <div class=""alert alert-warning""><b>
    </div>
","0","","","","","","","","","","","",""
