"task","trial_type","trial_index","time_elapsed","internal_node_id","subject_id","study_id","session_id","section","width","height","webaudio","browser","browser_version","mobile","os","fullscreen","vsync_rate","webcam","microphone","rt","stimulus","response","success","timeout","failed_images","failed_audio","failed_video","block","accuracy","slider_start","choices","correct","standardized_response","num_attention_checks_correct"
"pavlovia-init","pavlovia","0","1278","0.0-0.0","","656776a7904ae00d6b91d1dd","6568adf5800e9ea660756e1c","7","","","","","","","","","","","","","","","","","","","","","","","","","",""
"browser-check","browser-check","1","2270","0.0-1.0","","656776a7904ae00d6b91d1dd","6568adf5800e9ea660756e1c","7","1920","968","true","firefox","120.0.0","false","Windows 10","true","60.98","false","false","","","","","","","","","","","","","","",""
"consent","html-button-response","2","7413","0.0-2.0","","656776a7904ae00d6b91d1dd","6568adf5800e9ea660756e1c","7","","","","","","","","","","","","5140","
        <div style=""font-size: 80%; max-width:700px"">
            <h2>CONSENT FORM</h2>
        
            <div style=""text-align: left"">
            <h4>DESCRIPTION</h4>
            <p>
            You will complete a short task where you give your impressions of various neighborhoods and assign individuals to those spaces, and answer some questions about your thoughts and opinions.<br>
            The University of Michigan Institutional Review Board Health Sciences and Behavioral Sciences has determined that this study is exempt from IRB oversight.
            </p>

            <h4>TIME INVOLVEMENT</h4>
            <p>Your participation will take approximately 15 minutes. You will receive $3.15 upon completion of the study.</p>
        
            <h4>RISKS AND BENEFITS</h4>
            <p>
            The risks associated with this study are minimal. The benefits which may reasonably be expected to result from this study are none. We cannot and do not guarantee or promise that you will receive any benefits from this study.
            </p>
          
            <h4>SUBJECT'S RIGHTS</h4>
            <p>
            If you have read this form and have decided to participate in this project, please understand your participation is voluntary and you have the right to withdraw your consent or discontinue participation at any time without penalty or loss of benefits to which you are otherwise entitled. The alternative is not to participate. You have the right to refuse to answer particular questions. Your individual privacy will be maintained in all published and written data resulting from the study.
            </p>

            <h4>HUMAN SUBJECT APPROVAL</h4>
            <p>
            This study is exempt from ongoing IRB review.
            </p>

            <h4>CONTACT INFORMATION</h4>
            If you have any questions, concerns or complaints about this research, its procedures, risks and benefits, contact the Protocol Director, Nicholas Camp, npcamp@umich.edu, (443) 851-6783. <br>

            If you have questions about your rights as a research participant, or wish to obtain information, ask questions or discuss any concerns about this study with someone other than the researcher(s), please contact the following:<br><br>
            University of Michigan<br>
            Health Sciences and Behavioral Sciences Institutional Review Board (IRB-HSBS)<br>
            2800 Plymouth Road<br>
            Building 520, Room 1169Ann Arbor, MI 48109-2800<br>
            Telephone: 734-936-0933 or toll free (866) 936-0933<br>
            Fax: 734-936-1852<br>
            E-mail: irbhsbs@umich.edu<br><br>

            You can also contact the University of Michigan Compliance Hotline at 1-866-990-0111. You may also print this consent form to keep.
            <br><br>
            <div class=""alert alert-warning""><b>
            Do you consent to participate in this study? If you consent to participate in this study, please click “Accept and Continue”. If you select ""Decline and Exit"", you will be exited from the survey. <br>
            </b></div>
            </div>
        </div>
    ","1","","","","","","","","","","","",""
"","preload","3","8590","0.0-3.0","","656776a7904ae00d6b91d1dd","6568adf5800e9ea660756e1c","7","","","","","","","","","","","","","","","true","false","[]","[]","[]","","","","","","",""
"instructions","html-button-response","4","15717","0.0-4.0","","656776a7904ae00d6b91d1dd","6568adf5800e9ea660756e1c","7","","","","","","","","","","","","7127","
        <div class=""text-container"">
        <h1>Welcome to the study!</h1>
        
        <div class=""text-left"">
            <p>
                In this study, we are interested in what people can tell about spaces from Google Street View images. <br> Google Street View takes pictures of streets used for Google Earth and Google Maps. <br>You’ll see Google Street View images of different places and answer some questions about each one.<br>
            </p>
        </div>
        <img src = ""assets/img/example.png"" width = 500px, height = auto>
        <br>
    <br>
    ","0","","","","","","","","","","","",""
"instructions","html-button-response","5","18125","0.0-5.0","","656776a7904ae00d6b91d1dd","6568adf5800e9ea660756e1c","7","","","","","","","","","","","","2406","
    <div class=""text-container"">
        <div class=""text-center"">
            <p>Please remember that your answers are completely anonymous.<br>Go with your gut response- there are no right or wrong answers!</p>
        </div>
    <br>
","0","","","","","","","","","","","",""
"before_SVSlide_prompt","html-button-response","6","19205","0.0-6.0","","656776a7904ae00d6b91d1dd","6568adf5800e9ea660756e1c","7","","","","","","","","","","","","1080","Click [Next] to see the next neighborhood!","0","","","","","","","","","","","",""
"street view slide show","image-button-response","7","20259","0.0-7.0","","656776a7904ae00d6b91d1dd","6568adf5800e9ea660756e1c","7","","","","","","","","","","","","null","stimulus/SV_PolicingMSA/MO_1031/IMG_13_1031.jpg","null","","","","","","0","","","","","",""
"street view slide show","image-button-response","8","21274","0.0-8.0","","656776a7904ae00d6b91d1dd","6568adf5800e9ea660756e1c","7","","","","","","","","","","","","null","stimulus/SV_PolicingMSA/MO_1031/IMG_9_1031.jpg","null","","","","","","0","","","","","",""
"street view slide show","image-button-response","9","22287","0.0-9.0","","656776a7904ae00d6b91d1dd","6568adf5800e9ea660756e1c","7","","","","","","","","","","","","null","stimulus/SV_PolicingMSA/MO_1031/IMG_12_1031.jpg","null","","","","","","0","","","","","",""
"street view slide show","image-button-response","10","23298","0.0-10.0","","656776a7904ae00d6b91d1dd","6568adf5800e9ea660756e1c","7","","","","","","","","","","","","null","stimulus/SV_PolicingMSA/MO_1031/IMG_11_1031.jpg","null","","","","","","0","","","","","",""
"street view slide show","image-button-response","11","24310","0.0-11.0","","656776a7904ae00d6b91d1dd","6568adf5800e9ea660756e1c","7","","","","","","","","","","","","null","stimulus/SV_PolicingMSA/MO_1031/IMG_7_1031.jpg","null","","","","","","0","","","","","",""
"street view slide show","image-button-response","12","25326","0.0-12.0","","656776a7904ae00d6b91d1dd","6568adf5800e9ea660756e1c","7","","","","","","","","","","","","null","stimulus/SV_PolicingMSA/MO_1031/IMG_0_1031.jpg","null","","","","","","0","","","","","",""
"street view slide show","image-button-response","13","26335","0.0-13.0","","656776a7904ae00d6b91d1dd","6568adf5800e9ea660756e1c","7","","","","","","","","","","","","null","stimulus/SV_PolicingMSA/MO_1031/IMG_3_1031.jpg","null","","","","","","0","","","","","",""
"street view slide show","image-button-response","14","27345","0.0-14.0","","656776a7904ae00d6b91d1dd","6568adf5800e9ea660756e1c","7","","","","","","","","","","","","null","stimulus/SV_PolicingMSA/MO_1031/IMG_2_1031.jpg","null","","","","","","0","","","","","",""
"dot matrix survey1","survey","15","53062","0.0-15.0","","656776a7904ae00d6b91d1dd","6568adf5800e9ea660756e1c","7","","","","","","","","","","","","25640","","{""P0_Q0"":null,""P0_Q1"":{""wealthy"":0,""safe"":1,""walkable"":0,""traditional"":1,""diverse"":1}}","","","","","","0","[]","","","","",""
"dot matrix survey2","survey","16","74673","0.0-16.0","","656776a7904ae00d6b91d1dd","6568adf5800e9ea660756e1c","7","","","","","","","","","","","","21600","","{""P0_Q0"":null,""P0_Q1"":{""violence"":3,""crime"":3,""drug"":4,""schools"":0,""opportunities"":0}}","","","","","","0","[]","","","","",""
"dot matrix survey3","survey","17","89841","0.0-17.0","","656776a7904ae00d6b91d1dd","6568adf5800e9ea660756e1c","7","","","","","","","","","","","","15152","","{""P0_Q0"":null,""P0_Q1"":{""movein"":0,""moveout"":3,""shopping"":0,""walk"":1,""park"":1,""school"":1}}","","","","","","0","[]","","","","",""
"sliderTrial_attention","html-slider-response","18","99861","0.0-18.0","","656776a7904ae00d6b91d1dd","6568adf5800e9ea660756e1c","7","","","","","","","","","","","","null","[""SV_PolicingMSA/MO_1031/IMG_13_1031.jpg"",""SV_PolicingMSA/MO_1031/IMG_9_1031.jpg"",""SV_PolicingMSA/MO_1031/IMG_12_1031.jpg"",""SV_PolicingMSA/MO_1031/IMG_11_1031.jpg"",""SV_PolicingMSA/MO_1031/IMG_7_1031.jpg"",""SV_PolicingMSA/MO_1031/IMG_0_1031.jpg"",""SV_PolicingMSA/MO_1031/IMG_3_1031.jpg"",""SV_PolicingMSA/MO_1031/IMG_2_1031.jpg""]","null","","","","","","0","","4","[""./assets/img/attnchk.png"",""./assets/img/attnchk.png""]","true","",""
"sliderTrial","html-slider-response","19","113181","0.0-19.0","","656776a7904ae00d6b91d1dd","6568adf5800e9ea660756e1c","7","","","","","","","","","","","","13317","[""SV_PolicingMSA/MO_1031/IMG_13_1031.jpg"",""SV_PolicingMSA/MO_1031/IMG_9_1031.jpg"",""SV_PolicingMSA/MO_1031/IMG_12_1031.jpg"",""SV_PolicingMSA/MO_1031/IMG_11_1031.jpg"",""SV_PolicingMSA/MO_1031/IMG_7_1031.jpg"",""SV_PolicingMSA/MO_1031/IMG_0_1031.jpg"",""SV_PolicingMSA/MO_1031/IMG_3_1031.jpg"",""SV_PolicingMSA/MO_1031/IMG_2_1031.jpg""]","5","","","","","","0","","4","[""./rc_img/cop_condGroup_2_SafeStreets_autoscaled.png"",""./rc_img/cop_condGroup_2_CommunitySafety_autoscaled.png""]","","3",""
"sliderTrial","html-slider-response","20","120541","0.0-20.0","","656776a7904ae00d6b91d1dd","6568adf5800e9ea660756e1c","7","","","","","","","","","","","","7358","[""SV_PolicingMSA/MO_1031/IMG_13_1031.jpg"",""SV_PolicingMSA/MO_1031/IMG_9_1031.jpg"",""SV_PolicingMSA/MO_1031/IMG_12_1031.jpg"",""SV_PolicingMSA/MO_1031/IMG_11_1031.jpg"",""SV_PolicingMSA/MO_1031/IMG_7_1031.jpg"",""SV_PolicingMSA/MO_1031/IMG_0_1031.jpg"",""SV_PolicingMSA/MO_1031/IMG_3_1031.jpg"",""SV_PolicingMSA/MO_1031/IMG_2_1031.jpg""]","3","","","","","","0","","4","[""./rc_img/cop_condGroup_4_CommunitySafety_autoscaled.png"",""./rc_img/cop_condGroup_4_SafeStreets_autoscaled.png""]","","3",""
"sliderTrial","html-slider-response","21","126397","0.0-21.0","","656776a7904ae00d6b91d1dd","6568adf5800e9ea660756e1c","7","","","","","","","","","","","","5855","[""SV_PolicingMSA/MO_1031/IMG_13_1031.jpg"",""SV_PolicingMSA/MO_1031/IMG_9_1031.jpg"",""SV_PolicingMSA/MO_1031/IMG_12_1031.jpg"",""SV_PolicingMSA/MO_1031/IMG_11_1031.jpg"",""SV_PolicingMSA/MO_1031/IMG_7_1031.jpg"",""SV_PolicingMSA/MO_1031/IMG_0_1031.jpg"",""SV_PolicingMSA/MO_1031/IMG_3_1031.jpg"",""SV_PolicingMSA/MO_1031/IMG_2_1031.jpg""]","5","","","","","","0","","4","[""./rc_img/cop_condGroup_10_SafeStreets_autoscaled.png"",""./rc_img/cop_condGroup_10_CommunitySafety_autoscaled.png""]","","3",""
"sliderTrial","html-slider-response","22","130789","0.0-22.0","","656776a7904ae00d6b91d1dd","6568adf5800e9ea660756e1c","7","","","","","","","","","","","","4392","[""SV_PolicingMSA/MO_1031/IMG_13_1031.jpg"",""SV_PolicingMSA/MO_1031/IMG_9_1031.jpg"",""SV_PolicingMSA/MO_1031/IMG_12_1031.jpg"",""SV_PolicingMSA/MO_1031/IMG_11_1031.jpg"",""SV_PolicingMSA/MO_1031/IMG_7_1031.jpg"",""SV_PolicingMSA/MO_1031/IMG_0_1031.jpg"",""SV_PolicingMSA/MO_1031/IMG_3_1031.jpg"",""SV_PolicingMSA/MO_1031/IMG_2_1031.jpg""]","2","","","","","","0","","4","[""./rc_img/cop_condGroup_1_CommunitySafety_autoscaled.png"",""./rc_img/cop_condGroup_1_SafeStreets_autoscaled.png""]","","2",""
"sliderTrial","html-slider-response","23","135357","0.0-23.0","","656776a7904ae00d6b91d1dd","6568adf5800e9ea660756e1c","7","","","","","","","","","","","","4566","[""SV_PolicingMSA/MO_1031/IMG_13_1031.jpg"",""SV_PolicingMSA/MO_1031/IMG_9_1031.jpg"",""SV_PolicingMSA/MO_1031/IMG_12_1031.jpg"",""SV_PolicingMSA/MO_1031/IMG_11_1031.jpg"",""SV_PolicingMSA/MO_1031/IMG_7_1031.jpg"",""SV_PolicingMSA/MO_1031/IMG_0_1031.jpg"",""SV_PolicingMSA/MO_1031/IMG_3_1031.jpg"",""SV_PolicingMSA/MO_1031/IMG_2_1031.jpg""]","3","","","","","","0","","4","[""./rc_img/cop_condGroup_9_CommunitySafety_autoscaled.png"",""./rc_img/cop_condGroup_9_SafeStreets_autoscaled.png""]","","3",""
"before_SVSlide_prompt","html-button-response","24","136797","0.0-24.0","","656776a7904ae00d6b91d1dd","6568adf5800e9ea660756e1c","7","","","","","","","","","","","","1438","Click [Next] to see the next neighborhood!","0","","","","","","","","","","","",""
"street view slide show","image-button-response","25","137806","0.0-25.0","","656776a7904ae00d6b91d1dd","6568adf5800e9ea660756e1c","7","","","","","","","","","","","","null","stimulus/SV_PolicingMSA/MO_982/IMG_0_982.jpg","null","","","","","","2","","","","","",""
"street view slide show","image-button-response","26","138819","0.0-26.0","","656776a7904ae00d6b91d1dd","6568adf5800e9ea660756e1c","7","","","","","","","","","","","","null","stimulus/SV_PolicingMSA/MO_982/IMG_12_982.jpg","null","","","","","","2","","","","","",""
"street view slide show","image-button-response","27","139830","0.0-27.0","","656776a7904ae00d6b91d1dd","6568adf5800e9ea660756e1c","7","","","","","","","","","","","","null","stimulus/SV_PolicingMSA/MO_982/IMG_10_982.jpg","null","","","","","","2","","","","","",""
"street view slide show","image-button-response","28","140856","0.0-28.0","","656776a7904ae00d6b91d1dd","6568adf5800e9ea660756e1c","7","","","","","","","","","","","","null","stimulus/SV_PolicingMSA/MO_982/IMG_7_982.jpg","null","","","","","","2","","","","","",""
"street view slide show","image-button-response","29","141866","0.0-29.0","","656776a7904ae00d6b91d1dd","6568adf5800e9ea660756e1c","7","","","","","","","","","","","","null","stimulus/SV_PolicingMSA/MO_982/IMG_14_982.jpg","null","","","","","","2","","","","","",""
"street view slide show","image-button-response","30","142877","0.0-30.0","","656776a7904ae00d6b91d1dd","6568adf5800e9ea660756e1c","7","","","","","","","","","","","","null","stimulus/SV_PolicingMSA/MO_982/IMG_13_982.jpg","null","","","","","","2","","","","","",""
"street view slide show","image-button-response","31","143889","0.0-31.0","","656776a7904ae00d6b91d1dd","6568adf5800e9ea660756e1c","7","","","","","","","","","","","","null","stimulus/SV_PolicingMSA/MO_982/IMG_8_982.jpg","null","","","","","","2","","","","","",""
"street view slide show","image-button-response","32","144903","0.0-32.0","","656776a7904ae00d6b91d1dd","6568adf5800e9ea660756e1c","7","","","","","","","","","","","","null","stimulus/SV_PolicingMSA/MO_982/IMG_2_982.jpg","null","","","","","","2","","","","","",""
"dot matrix survey1","survey","33","165061","0.0-33.0","","656776a7904ae00d6b91d1dd","6568adf5800e9ea660756e1c","7","","","","","","","","","","","","20115","","{""P0_Q0"":null,""P0_Q1"":{""wealthy"":2,""safe"":3,""walkable"":4,""traditional"":3,""diverse"":1}}","","","","","","2","[]","","","","",""
"dot matrix survey2","survey","34","178635","0.0-34.0","","656776a7904ae00d6b91d1dd","6568adf5800e9ea660756e1c","7","","","","","","","","","","","","13564","","{""P0_Q0"":null,""P0_Q1"":{""violence"":0,""crime"":1,""drug"":1,""schools"":3,""opportunities"":2}}","","","","","","2","[]","","","","",""
"dot matrix survey3","survey","35","195993","0.0-35.0","","656776a7904ae00d6b91d1dd","6568adf5800e9ea660756e1c","7","","","","","","","","","","","","17348","","{""P0_Q0"":null,""P0_Q1"":{""movein"":2,""moveout"":1,""shopping"":1,""walk"":3,""park"":3,""school"":3}}","","","","","","2","[]","","","","",""
"sliderTrial","html-slider-response","36","201661","0.0-36.0","","656776a7904ae00d6b91d1dd","6568adf5800e9ea660756e1c","7","","","","","","","","","","","","5666","[""SV_PolicingMSA/MO_982/IMG_0_982.jpg"",""SV_PolicingMSA/MO_982/IMG_12_982.jpg"",""SV_PolicingMSA/MO_982/IMG_10_982.jpg"",""SV_PolicingMSA/MO_982/IMG_7_982.jpg"",""SV_PolicingMSA/MO_982/IMG_14_982.jpg"",""SV_PolicingMSA/MO_982/IMG_13_982.jpg"",""SV_PolicingMSA/MO_982/IMG_8_982.jpg"",""SV_PolicingMSA/MO_982/IMG_2_982.jpg""]","6","","","","","","2","","4","[""./rc_img/cop_condGroup_7_SafeStreets_autoscaled.png"",""./rc_img/cop_condGroup_7_CommunitySafety_autoscaled.png""]","","2",""
"sliderTrial","html-slider-response","37","206509","0.0-37.0","","656776a7904ae00d6b91d1dd","6568adf5800e9ea660756e1c","7","","","","","","","","","","","","4846","[""SV_PolicingMSA/MO_982/IMG_0_982.jpg"",""SV_PolicingMSA/MO_982/IMG_12_982.jpg"",""SV_PolicingMSA/MO_982/IMG_10_982.jpg"",""SV_PolicingMSA/MO_982/IMG_7_982.jpg"",""SV_PolicingMSA/MO_982/IMG_14_982.jpg"",""SV_PolicingMSA/MO_982/IMG_13_982.jpg"",""SV_PolicingMSA/MO_982/IMG_8_982.jpg"",""SV_PolicingMSA/MO_982/IMG_2_982.jpg""]","1","","","","","","2","","4","[""./rc_img/cop_condGroup_13_CommunitySafety_autoscaled.png"",""./rc_img/cop_condGroup_13_SafeStreets_autoscaled.png""]","","1",""
"sliderTrial","html-slider-response","38","210109","0.0-38.0","","656776a7904ae00d6b91d1dd","6568adf5800e9ea660756e1c","7","","","","","","","","","","","","3598","[""SV_PolicingMSA/MO_982/IMG_0_982.jpg"",""SV_PolicingMSA/MO_982/IMG_12_982.jpg"",""SV_PolicingMSA/MO_982/IMG_10_982.jpg"",""SV_PolicingMSA/MO_982/IMG_7_982.jpg"",""SV_PolicingMSA/MO_982/IMG_14_982.jpg"",""SV_PolicingMSA/MO_982/IMG_13_982.jpg"",""SV_PolicingMSA/MO_982/IMG_8_982.jpg"",""SV_PolicingMSA/MO_982/IMG_2_982.jpg""]","5","","","","","","2","","4","[""./rc_img/cop_condGroup_12_CommunitySafety_autoscaled.png"",""./rc_img/cop_condGroup_12_SafeStreets_autoscaled.png""]","","5",""
"sliderTrial","html-slider-response","39","215141","0.0-39.0","","656776a7904ae00d6b91d1dd","6568adf5800e9ea660756e1c","7","","","","","","","","","","","","5030","[""SV_PolicingMSA/MO_982/IMG_0_982.jpg"",""SV_PolicingMSA/MO_982/IMG_12_982.jpg"",""SV_PolicingMSA/MO_982/IMG_10_982.jpg"",""SV_PolicingMSA/MO_982/IMG_7_982.jpg"",""SV_PolicingMSA/MO_982/IMG_14_982.jpg"",""SV_PolicingMSA/MO_982/IMG_13_982.jpg"",""SV_PolicingMSA/MO_982/IMG_8_982.jpg"",""SV_PolicingMSA/MO_982/IMG_2_982.jpg""]","5","","","","","","2","","4","[""./rc_img/cop_condGroup_14_SafeStreets_autoscaled.png"",""./rc_img/cop_condGroup_14_CommunitySafety_autoscaled.png""]","","3",""
"sliderTrial","html-slider-response","40","218405","0.0-40.0","","656776a7904ae00d6b91d1dd","6568adf5800e9ea660756e1c","7","","","","","","","","","","","","3264","[""SV_PolicingMSA/MO_982/IMG_0_982.jpg"",""SV_PolicingMSA/MO_982/IMG_12_982.jpg"",""SV_PolicingMSA/MO_982/IMG_10_982.jpg"",""SV_PolicingMSA/MO_982/IMG_7_982.jpg"",""SV_PolicingMSA/MO_982/IMG_14_982.jpg"",""SV_PolicingMSA/MO_982/IMG_13_982.jpg"",""SV_PolicingMSA/MO_982/IMG_8_982.jpg"",""SV_PolicingMSA/MO_982/IMG_2_982.jpg""]","5","","","","","","2","","4","[""./rc_img/cop_condGroup_15_SafeStreets_autoscaled.png"",""./rc_img/cop_condGroup_15_CommunitySafety_autoscaled.png""]","","3",""
"before_SVSlide_prompt","html-button-response","41","219621","0.0-41.0","","656776a7904ae00d6b91d1dd","6568adf5800e9ea660756e1c","7","","","","","","","","","","","","1216","Click [Next] to see the next neighborhood!","0","","","","","","","","","","","",""
"street view slide show","image-button-response","42","220628","0.0-42.0","","656776a7904ae00d6b91d1dd","6568adf5800e9ea660756e1c","7","","","","","","","","","","","","null","stimulus/SV_PolicingMSA/MO_1004/IMG_5_1004.jpg","null","","","","","","1","","","","","",""
"street view slide show","image-button-response","43","221649","0.0-43.0","","656776a7904ae00d6b91d1dd","6568adf5800e9ea660756e1c","7","","","","","","","","","","","","null","stimulus/SV_PolicingMSA/MO_1004/IMG_3_1004.jpg","null","","","","","","1","","","","","",""
"street view slide show","image-button-response","44","222662","0.0-44.0","","656776a7904ae00d6b91d1dd","6568adf5800e9ea660756e1c","7","","","","","","","","","","","","null","stimulus/SV_PolicingMSA/MO_1004/IMG_0_1004.jpg","null","","","","","","1","","","","","",""
"street view slide show","image-button-response","45","223678","0.0-45.0","","656776a7904ae00d6b91d1dd","6568adf5800e9ea660756e1c","7","","","","","","","","","","","","null","stimulus/SV_PolicingMSA/MO_1004/IMG_14_1004.jpg","null","","","","","","1","","","","","",""
"street view slide show","image-button-response","46","224690","0.0-46.0","","656776a7904ae00d6b91d1dd","6568adf5800e9ea660756e1c","7","","","","","","","","","","","","null","stimulus/SV_PolicingMSA/MO_1004/IMG_6_1004.jpg","null","","","","","","1","","","","","",""
"street view slide show","image-button-response","47","225703","0.0-47.0","","656776a7904ae00d6b91d1dd","6568adf5800e9ea660756e1c","7","","","","","","","","","","","","null","stimulus/SV_PolicingMSA/MO_1004/IMG_9_1004.jpg","null","","","","","","1","","","","","",""
"street view slide show","image-button-response","48","226712","0.0-48.0","","656776a7904ae00d6b91d1dd","6568adf5800e9ea660756e1c","7","","","","","","","","","","","","null","stimulus/SV_PolicingMSA/MO_1004/IMG_12_1004.jpg","null","","","","","","1","","","","","",""
"street view slide show","image-button-response","49","227735","0.0-49.0","","656776a7904ae00d6b91d1dd","6568adf5800e9ea660756e1c","7","","","","","","","","","","","","null","stimulus/SV_PolicingMSA/MO_1004/IMG_1_1004.jpg","null","","","","","","1","","","","","",""
"dot matrix survey1","survey","50","244805","0.0-50.0","","656776a7904ae00d6b91d1dd","6568adf5800e9ea660756e1c","7","","","","","","","","","","","","17022","","{""P0_Q0"":null,""P0_Q1"":{""wealthy"":1,""safe"":2,""walkable"":2,""traditional"":2,""diverse"":3}}","","","","","","1","[]","","","","",""
"dot matrix survey2","survey","51","262131","0.0-51.0","","656776a7904ae00d6b91d1dd","6568adf5800e9ea660756e1c","7","","","","","","","","","","","","17315","","{""P0_Q0"":null,""P0_Q1"":{""violence"":2,""crime"":3,""drug"":2,""schools"":1,""opportunities"":1}}","","","","","","1","[]","","","","",""
"dot matrix survey3","survey","52","273645","0.0-52.0","","656776a7904ae00d6b91d1dd","6568adf5800e9ea660756e1c","7","","","","","","","","","","","","11497","","{""P0_Q0"":null,""P0_Q1"":{""movein"":1,""moveout"":2,""shopping"":0,""walk"":1,""park"":1,""school"":1}}","","","","","","1","[]","","","","",""
"sliderTrial","html-slider-response","53","277126","0.0-53.0","","656776a7904ae00d6b91d1dd","6568adf5800e9ea660756e1c","7","","","","","","","","","","","","3479","[""SV_PolicingMSA/MO_1004/IMG_5_1004.jpg"",""SV_PolicingMSA/MO_1004/IMG_3_1004.jpg"",""SV_PolicingMSA/MO_1004/IMG_0_1004.jpg"",""SV_PolicingMSA/MO_1004/IMG_14_1004.jpg"",""SV_PolicingMSA/MO_1004/IMG_6_1004.jpg"",""SV_PolicingMSA/MO_1004/IMG_9_1004.jpg"",""SV_PolicingMSA/MO_1004/IMG_12_1004.jpg"",""SV_PolicingMSA/MO_1004/IMG_1_1004.jpg""]","5","","","","","","1","","4","[""./rc_img/cop_condGroup_6_CommunitySafety_autoscaled.png"",""./rc_img/cop_condGroup_6_SafeStreets_autoscaled.png""]","","5",""
"sliderTrial","html-slider-response","54","280269","0.0-54.0","","656776a7904ae00d6b91d1dd","6568adf5800e9ea660756e1c","7","","","","","","","","","","","","3142","[""SV_PolicingMSA/MO_1004/IMG_5_1004.jpg"",""SV_PolicingMSA/MO_1004/IMG_3_1004.jpg"",""SV_PolicingMSA/MO_1004/IMG_0_1004.jpg"",""SV_PolicingMSA/MO_1004/IMG_14_1004.jpg"",""SV_PolicingMSA/MO_1004/IMG_6_1004.jpg"",""SV_PolicingMSA/MO_1004/IMG_9_1004.jpg"",""SV_PolicingMSA/MO_1004/IMG_12_1004.jpg"",""SV_PolicingMSA/MO_1004/IMG_1_1004.jpg""]","5","","","","","","1","","4","[""./rc_img/cop_condGroup_3_CommunitySafety_autoscaled.png"",""./rc_img/cop_condGroup_3_SafeStreets_autoscaled.png""]","","5",""
"sliderTrial","html-slider-response","55","283053","0.0-55.0","","656776a7904ae00d6b91d1dd","6568adf5800e9ea660756e1c","7","","","","","","","","","","","","2783","[""SV_PolicingMSA/MO_1004/IMG_5_1004.jpg"",""SV_PolicingMSA/MO_1004/IMG_3_1004.jpg"",""SV_PolicingMSA/MO_1004/IMG_0_1004.jpg"",""SV_PolicingMSA/MO_1004/IMG_14_1004.jpg"",""SV_PolicingMSA/MO_1004/IMG_6_1004.jpg"",""SV_PolicingMSA/MO_1004/IMG_9_1004.jpg"",""SV_PolicingMSA/MO_1004/IMG_12_1004.jpg"",""SV_PolicingMSA/MO_1004/IMG_1_1004.jpg""]","2","","","","","","1","","4","[""./rc_img/cop_condGroup_5_CommunitySafety_autoscaled.png"",""./rc_img/cop_condGroup_5_SafeStreets_autoscaled.png""]","","2",""
"sliderTrial_attention","html-slider-response","56","293062","0.0-56.0","","656776a7904ae00d6b91d1dd","6568adf5800e9ea660756e1c","7","","","","","","","","","","","","null","[""SV_PolicingMSA/MO_1004/IMG_5_1004.jpg"",""SV_PolicingMSA/MO_1004/IMG_3_1004.jpg"",""SV_PolicingMSA/MO_1004/IMG_0_1004.jpg"",""SV_PolicingMSA/MO_1004/IMG_14_1004.jpg"",""SV_PolicingMSA/MO_1004/IMG_6_1004.jpg"",""SV_PolicingMSA/MO_1004/IMG_9_1004.jpg"",""SV_PolicingMSA/MO_1004/IMG_12_1004.jpg"",""SV_PolicingMSA/MO_1004/IMG_1_1004.jpg""]","null","","","","","","1","","4","[""./assets/img/attnchk.png"",""./assets/img/attnchk.png""]","true","",""
"sliderTrial","html-slider-response","57","296565","0.0-57.0","","656776a7904ae00d6b91d1dd","6568adf5800e9ea660756e1c","7","","","","","","","","","","","","3500","[""SV_PolicingMSA/MO_1004/IMG_5_1004.jpg"",""SV_PolicingMSA/MO_1004/IMG_3_1004.jpg"",""SV_PolicingMSA/MO_1004/IMG_0_1004.jpg"",""SV_PolicingMSA/MO_1004/IMG_14_1004.jpg"",""SV_PolicingMSA/MO_1004/IMG_6_1004.jpg"",""SV_PolicingMSA/MO_1004/IMG_9_1004.jpg"",""SV_PolicingMSA/MO_1004/IMG_12_1004.jpg"",""SV_PolicingMSA/MO_1004/IMG_1_1004.jpg""]","3","","","","","","1","","4","[""./rc_img/cop_condGroup_11_CommunitySafety_autoscaled.png"",""./rc_img/cop_condGroup_11_SafeStreets_autoscaled.png""]","","3",""
"sliderTrial","html-slider-response","58","300165","0.0-58.0","","656776a7904ae00d6b91d1dd","6568adf5800e9ea660756e1c","7","","","","","","","","","","","","3598","[""SV_PolicingMSA/MO_1004/IMG_5_1004.jpg"",""SV_PolicingMSA/MO_1004/IMG_3_1004.jpg"",""SV_PolicingMSA/MO_1004/IMG_0_1004.jpg"",""SV_PolicingMSA/MO_1004/IMG_14_1004.jpg"",""SV_PolicingMSA/MO_1004/IMG_6_1004.jpg"",""SV_PolicingMSA/MO_1004/IMG_9_1004.jpg"",""SV_PolicingMSA/MO_1004/IMG_12_1004.jpg"",""SV_PolicingMSA/MO_1004/IMG_1_1004.jpg""]","6","","","","","","1","","4","[""./rc_img/cop_condGroup_8_SafeStreets_autoscaled.png"",""./rc_img/cop_condGroup_8_CommunitySafety_autoscaled.png""]","","2",""
"before_SVSlide_prompt","html-button-response","59","301261","0.0-59.0","","656776a7904ae00d6b91d1dd","6568adf5800e9ea660756e1c","7","","","","","","","","","","","","1095","Click [Next] to see the next neighborhood!","0","","","","","","","","","","","",""
"street view slide show","image-button-response","60","302270","0.0-60.0","","656776a7904ae00d6b91d1dd","6568adf5800e9ea660756e1c","7","","","","","","","","","","","","null","stimulus/SV_PolicingMSA/MO_589/IMG_13_589.jpg","null","","","","","","2","","","","","",""
"street view slide show","image-button-response","61","303284","0.0-61.0","","656776a7904ae00d6b91d1dd","6568adf5800e9ea660756e1c","7","","","","","","","","","","","","null","stimulus/SV_PolicingMSA/MO_589/IMG_8_589.jpg","null","","","","","","2","","","","","",""
"street view slide show","image-button-response","62","304296","0.0-62.0","","656776a7904ae00d6b91d1dd","6568adf5800e9ea660756e1c","7","","","","","","","","","","","","null","stimulus/SV_PolicingMSA/MO_589/IMG_4_589.jpg","null","","","","","","2","","","","","",""
"street view slide show","image-button-response","63","305313","0.0-63.0","","656776a7904ae00d6b91d1dd","6568adf5800e9ea660756e1c","7","","","","","","","","","","","","null","stimulus/SV_PolicingMSA/MO_589/IMG_1_589.jpg","null","","","","","","2","","","","","",""
"street view slide show","image-button-response","64","306320","0.0-64.0","","656776a7904ae00d6b91d1dd","6568adf5800e9ea660756e1c","7","","","","","","","","","","","","null","stimulus/SV_PolicingMSA/MO_589/IMG_10_589.jpg","null","","","","","","2","","","","","",""
"street view slide show","image-button-response","65","307334","0.0-65.0","","656776a7904ae00d6b91d1dd","6568adf5800e9ea660756e1c","7","","","","","","","","","","","","null","stimulus/SV_PolicingMSA/MO_589/IMG_9_589.jpg","null","","","","","","2","","","","","",""
"street view slide show","image-button-response","66","308338","0.0-66.0","","656776a7904ae00d6b91d1dd","6568adf5800e9ea660756e1c","7","","","","","","","","","","","","null","stimulus/SV_PolicingMSA/MO_589/IMG_0_589.jpg","null","","","","","","2","","","","","",""
"street view slide show","image-button-response","67","309355","0.0-67.0","","656776a7904ae00d6b91d1dd","6568adf5800e9ea660756e1c","7","","","","","","","","","","","","null","stimulus/SV_PolicingMSA/MO_589/IMG_12_589.jpg","null","","","","","","2","","","","","",""
"dot matrix survey1","survey","68","327683","0.0-68.0","","656776a7904ae00d6b91d1dd","6568adf5800e9ea660756e1c","7","","","","","","","","","","","","18289","","{""P0_Q0"":null,""P0_Q1"":{""wealthy"":3,""safe"":4,""walkable"":0,""traditional"":3,""diverse"":0}}","","","","","","2","[]","","","","",""
"dot matrix survey2","survey","69","337996","0.0-69.0","","656776a7904ae00d6b91d1dd","6568adf5800e9ea660756e1c","7","","","","","","","","","","","","10295","","{""P0_Q0"":null,""P0_Q1"":{""violence"":0,""crime"":0,""drug"":0,""schools"":2,""opportunities"":1}}","","","","","","2","[]","","","","",""
"dot matrix survey3","survey","70","351059","0.0-70.0","","656776a7904ae00d6b91d1dd","6568adf5800e9ea660756e1c","7","","","","","","","","","","","","13054","","{""P0_Q0"":null,""P0_Q1"":{""movein"":1,""moveout"":2,""shopping"":0,""walk"":3,""park"":3,""school"":2}}","","","","","","2","[]","","","","",""
"sliderTrial","html-slider-response","71","356381","0.0-71.0","","656776a7904ae00d6b91d1dd","6568adf5800e9ea660756e1c","7","","","","","","","","","","","","5320","[""SV_PolicingMSA/MO_589/IMG_13_589.jpg"",""SV_PolicingMSA/MO_589/IMG_8_589.jpg"",""SV_PolicingMSA/MO_589/IMG_4_589.jpg"",""SV_PolicingMSA/MO_589/IMG_1_589.jpg"",""SV_PolicingMSA/MO_589/IMG_10_589.jpg"",""SV_PolicingMSA/MO_589/IMG_9_589.jpg"",""SV_PolicingMSA/MO_589/IMG_0_589.jpg"",""SV_PolicingMSA/MO_589/IMG_12_589.jpg""]","6","","","","","","2","","4","[""./rc_img/cop_condGroup_2_SafeStreets_autoscaled.png"",""./rc_img/cop_condGroup_2_CommunitySafety_autoscaled.png""]","","2",""
"sliderTrial","html-slider-response","72","359421","0.0-72.0","","656776a7904ae00d6b91d1dd","6568adf5800e9ea660756e1c","7","","","","","","","","","","","","3038","[""SV_PolicingMSA/MO_589/IMG_13_589.jpg"",""SV_PolicingMSA/MO_589/IMG_8_589.jpg"",""SV_PolicingMSA/MO_589/IMG_4_589.jpg"",""SV_PolicingMSA/MO_589/IMG_1_589.jpg"",""SV_PolicingMSA/MO_589/IMG_10_589.jpg"",""SV_PolicingMSA/MO_589/IMG_9_589.jpg"",""SV_PolicingMSA/MO_589/IMG_0_589.jpg"",""SV_PolicingMSA/MO_589/IMG_12_589.jpg""]","2","","","","","","2","","4","[""./rc_img/cop_condGroup_4_CommunitySafety_autoscaled.png"",""./rc_img/cop_condGroup_4_SafeStreets_autoscaled.png""]","","2",""
"sliderTrial","html-slider-response","73","362269","0.0-73.0","","656776a7904ae00d6b91d1dd","6568adf5800e9ea660756e1c","7","","","","","","","","","","","","2847","[""SV_PolicingMSA/MO_589/IMG_13_589.jpg"",""SV_PolicingMSA/MO_589/IMG_8_589.jpg"",""SV_PolicingMSA/MO_589/IMG_4_589.jpg"",""SV_PolicingMSA/MO_589/IMG_1_589.jpg"",""SV_PolicingMSA/MO_589/IMG_10_589.jpg"",""SV_PolicingMSA/MO_589/IMG_9_589.jpg"",""SV_PolicingMSA/MO_589/IMG_0_589.jpg"",""SV_PolicingMSA/MO_589/IMG_12_589.jpg""]","5","","","","","","2","","4","[""./rc_img/cop_condGroup_10_SafeStreets_autoscaled.png"",""./rc_img/cop_condGroup_10_CommunitySafety_autoscaled.png""]","","3",""
"sliderTrial","html-slider-response","74","365117","0.0-74.0","","656776a7904ae00d6b91d1dd","6568adf5800e9ea660756e1c","7","","","","","","","","","","","","2846","[""SV_PolicingMSA/MO_589/IMG_13_589.jpg"",""SV_PolicingMSA/MO_589/IMG_8_589.jpg"",""SV_PolicingMSA/MO_589/IMG_4_589.jpg"",""SV_PolicingMSA/MO_589/IMG_1_589.jpg"",""SV_PolicingMSA/MO_589/IMG_10_589.jpg"",""SV_PolicingMSA/MO_589/IMG_9_589.jpg"",""SV_PolicingMSA/MO_589/IMG_0_589.jpg"",""SV_PolicingMSA/MO_589/IMG_12_589.jpg""]","2","","","","","","2","","4","[""./rc_img/cop_condGroup_1_CommunitySafety_autoscaled.png"",""./rc_img/cop_condGroup_1_SafeStreets_autoscaled.png""]","","2",""
"sliderTrial","html-slider-response","75","368093","0.0-75.0","","656776a7904ae00d6b91d1dd","6568adf5800e9ea660756e1c","7","","","","","","","","","","","","2976","[""SV_PolicingMSA/MO_589/IMG_13_589.jpg"",""SV_PolicingMSA/MO_589/IMG_8_589.jpg"",""SV_PolicingMSA/MO_589/IMG_4_589.jpg"",""SV_PolicingMSA/MO_589/IMG_1_589.jpg"",""SV_PolicingMSA/MO_589/IMG_10_589.jpg"",""SV_PolicingMSA/MO_589/IMG_9_589.jpg"",""SV_PolicingMSA/MO_589/IMG_0_589.jpg"",""SV_PolicingMSA/MO_589/IMG_12_589.jpg""]","2","","","","","","2","","4","[""./rc_img/cop_condGroup_9_CommunitySafety_autoscaled.png"",""./rc_img/cop_condGroup_9_SafeStreets_autoscaled.png""]","","2",""
"half-way","html-button-response","76","378501","0.0-76.0","","656776a7904ae00d6b91d1dd","6568adf5800e9ea660756e1c","7","","","","","","","","","","","","10407","
    <h3>You are now half way through the study.</h3>
    <p>Please take a quick, 15-second break before you continue.</p>
    <img src='assets/img/countdown-15.gif'>
    <p>The study will automatically advance forward after the countdown is complete. <br> However, you may click ""Next"" to advance forward now if you wish.</p>
    ","0","","","","","","","","","","","",""
"before_SVSlide_prompt","html-button-response","77","379685","0.0-77.0","","656776a7904ae00d6b91d1dd","6568adf5800e9ea660756e1c","7","","","","","","","","","","","","1183","Click [Next] to see the next neighborhood!","0","","","","","","","","","","","",""
"street view slide show","image-button-response","78","380699","0.0-78.0","","656776a7904ae00d6b91d1dd","6568adf5800e9ea660756e1c","7","","","","","","","","","","","","null","stimulus/SV_PolicingMSA/MO_628/IMG_14_628.jpg","null","","","","","","3","","","","","",""
"street view slide show","image-button-response","79","381714","0.0-79.0","","656776a7904ae00d6b91d1dd","6568adf5800e9ea660756e1c","7","","","","","","","","","","","","null","stimulus/SV_PolicingMSA/MO_628/IMG_10_628.jpg","null","","","","","","3","","","","","",""
"street view slide show","image-button-response","80","382727","0.0-80.0","","656776a7904ae00d6b91d1dd","6568adf5800e9ea660756e1c","7","","","","","","","","","","","","null","stimulus/SV_PolicingMSA/MO_628/IMG_6_628.jpg","null","","","","","","3","","","","","",""
"street view slide show","image-button-response","81","383739","0.0-81.0","","656776a7904ae00d6b91d1dd","6568adf5800e9ea660756e1c","7","","","","","","","","","","","","null","stimulus/SV_PolicingMSA/MO_628/IMG_9_628.jpg","null","","","","","","3","","","","","",""
"street view slide show","image-button-response","82","384752","0.0-82.0","","656776a7904ae00d6b91d1dd","6568adf5800e9ea660756e1c","7","","","","","","","","","","","","null","stimulus/SV_PolicingMSA/MO_628/IMG_4_628.jpg","null","","","","","","3","","","","","",""
"street view slide show","image-button-response","83","385763","0.0-83.0","","656776a7904ae00d6b91d1dd","6568adf5800e9ea660756e1c","7","","","","","","","","","","","","null","stimulus/SV_PolicingMSA/MO_628/IMG_1_628.jpg","null","","","","","","3","","","","","",""
"street view slide show","image-button-response","84","386777","0.0-84.0","","656776a7904ae00d6b91d1dd","6568adf5800e9ea660756e1c","7","","","","","","","","","","","","null","stimulus/SV_PolicingMSA/MO_628/IMG_5_628.jpg","null","","","","","","3","","","","","",""
"street view slide show","image-button-response","85","387791","0.0-85.0","","656776a7904ae00d6b91d1dd","6568adf5800e9ea660756e1c","7","","","","","","","","","","","","null","stimulus/SV_PolicingMSA/MO_628/IMG_0_628.jpg","null","","","","","","3","","","","","",""
"dot matrix survey1","survey","86","409729","0.0-86.0","","656776a7904ae00d6b91d1dd","6568adf5800e9ea660756e1c","7","","","","","","","","","","","","21882","","{""P0_Q0"":null,""P0_Q1"":{""wealthy"":3,""safe"":4,""walkable"":3,""traditional"":4,""diverse"":2}}","","","","","","3","[]","","","","",""
"dot matrix survey2","survey","87","419524","0.0-87.0","","656776a7904ae00d6b91d1dd","6568adf5800e9ea660756e1c","7","","","","","","","","","","","","9778","","{""P0_Q0"":null,""P0_Q1"":{""violence"":0,""crime"":1,""drug"":1,""schools"":3,""opportunities"":3}}","","","","","","3","[]","","","","",""
"dot matrix survey3","survey","88","431052","0.0-88.0","","656776a7904ae00d6b91d1dd","6568adf5800e9ea660756e1c","7","","","","","","","","","","","","11519","","{""P0_Q0"":null,""P0_Q1"":{""movein"":3,""moveout"":1,""shopping"":2,""walk"":3,""park"":3,""school"":3}}","","","","","","3","[]","","","","",""
"sliderTrial","html-slider-response","89","435038","0.0-89.0","","656776a7904ae00d6b91d1dd","6568adf5800e9ea660756e1c","7","","","","","","","","","","","","3984","[""SV_PolicingMSA/MO_628/IMG_14_628.jpg"",""SV_PolicingMSA/MO_628/IMG_10_628.jpg"",""SV_PolicingMSA/MO_628/IMG_6_628.jpg"",""SV_PolicingMSA/MO_628/IMG_9_628.jpg"",""SV_PolicingMSA/MO_628/IMG_4_628.jpg"",""SV_PolicingMSA/MO_628/IMG_1_628.jpg"",""SV_PolicingMSA/MO_628/IMG_5_628.jpg"",""SV_PolicingMSA/MO_628/IMG_0_628.jpg""]","6","","","","","","3","","4","[""./rc_img/cop_condGroup_19_SafeStreets_autoscaled.png"",""./rc_img/cop_condGroup_19_CommunitySafety_autoscaled.png""]","","2",""
"sliderTrial","html-slider-response","90","438269","0.0-90.0","","656776a7904ae00d6b91d1dd","6568adf5800e9ea660756e1c","7","","","","","","","","","","","","3232","[""SV_PolicingMSA/MO_628/IMG_14_628.jpg"",""SV_PolicingMSA/MO_628/IMG_10_628.jpg"",""SV_PolicingMSA/MO_628/IMG_6_628.jpg"",""SV_PolicingMSA/MO_628/IMG_9_628.jpg"",""SV_PolicingMSA/MO_628/IMG_4_628.jpg"",""SV_PolicingMSA/MO_628/IMG_1_628.jpg"",""SV_PolicingMSA/MO_628/IMG_5_628.jpg"",""SV_PolicingMSA/MO_628/IMG_0_628.jpg""]","2","","","","","","3","","4","[""./rc_img/cop_condGroup_18_CommunitySafety_autoscaled.png"",""./rc_img/cop_condGroup_18_SafeStreets_autoscaled.png""]","","2",""
"sliderTrial","html-slider-response","91","441077","0.0-91.0","","656776a7904ae00d6b91d1dd","6568adf5800e9ea660756e1c","7","","","","","","","","","","","","2807","[""SV_PolicingMSA/MO_628/IMG_14_628.jpg"",""SV_PolicingMSA/MO_628/IMG_10_628.jpg"",""SV_PolicingMSA/MO_628/IMG_6_628.jpg"",""SV_PolicingMSA/MO_628/IMG_9_628.jpg"",""SV_PolicingMSA/MO_628/IMG_4_628.jpg"",""SV_PolicingMSA/MO_628/IMG_1_628.jpg"",""SV_PolicingMSA/MO_628/IMG_5_628.jpg"",""SV_PolicingMSA/MO_628/IMG_0_628.jpg""]","6","","","","","","3","","4","[""./rc_img/cop_condGroup_17_SafeStreets_autoscaled.png"",""./rc_img/cop_condGroup_17_CommunitySafety_autoscaled.png""]","","2",""
"sliderTrial","html-slider-response","92","443710","0.0-92.0","","656776a7904ae00d6b91d1dd","6568adf5800e9ea660756e1c","7","","","","","","","","","","","","2632","[""SV_PolicingMSA/MO_628/IMG_14_628.jpg"",""SV_PolicingMSA/MO_628/IMG_10_628.jpg"",""SV_PolicingMSA/MO_628/IMG_6_628.jpg"",""SV_PolicingMSA/MO_628/IMG_9_628.jpg"",""SV_PolicingMSA/MO_628/IMG_4_628.jpg"",""SV_PolicingMSA/MO_628/IMG_1_628.jpg"",""SV_PolicingMSA/MO_628/IMG_5_628.jpg"",""SV_PolicingMSA/MO_628/IMG_0_628.jpg""]","6","","","","","","3","","4","[""./rc_img/cop_condGroup_16_SafeStreets_autoscaled.png"",""./rc_img/cop_condGroup_16_CommunitySafety_autoscaled.png""]","","2",""
"sliderTrial","html-slider-response","93","447413","0.0-93.0","","656776a7904ae00d6b91d1dd","6568adf5800e9ea660756e1c","7","","","","","","","","","","","","3703","[""SV_PolicingMSA/MO_628/IMG_14_628.jpg"",""SV_PolicingMSA/MO_628/IMG_10_628.jpg"",""SV_PolicingMSA/MO_628/IMG_6_628.jpg"",""SV_PolicingMSA/MO_628/IMG_9_628.jpg"",""SV_PolicingMSA/MO_628/IMG_4_628.jpg"",""SV_PolicingMSA/MO_628/IMG_1_628.jpg"",""SV_PolicingMSA/MO_628/IMG_5_628.jpg"",""SV_PolicingMSA/MO_628/IMG_0_628.jpg""]","7","","","","","","3","","4","[""./rc_img/cop_condGroup_20_SafeStreets_autoscaled.png"",""./rc_img/cop_condGroup_20_CommunitySafety_autoscaled.png""]","","1",""
"before_SVSlide_prompt","html-button-response","94","448509","0.0-94.0","","656776a7904ae00d6b91d1dd","6568adf5800e9ea660756e1c","7","","","","","","","","","","","","1094","Click [Next] to see the next neighborhood!","0","","","","","","","","","","","",""
"street view slide show","image-button-response","95","449520","0.0-95.0","","656776a7904ae00d6b91d1dd","6568adf5800e9ea660756e1c","7","","","","","","","","","","","","null","stimulus/SV_PolicingMSA/MO_60/IMG_7_60.jpg","null","","","","","","4","","","","","",""
"street view slide show","image-button-response","96","450542","0.0-96.0","","656776a7904ae00d6b91d1dd","6568adf5800e9ea660756e1c","7","","","","","","","","","","","","null","stimulus/SV_PolicingMSA/MO_60/IMG_10_60.jpg","null","","","","","","4","","","","","",""
"street view slide show","image-button-response","97","451555","0.0-97.0","","656776a7904ae00d6b91d1dd","6568adf5800e9ea660756e1c","7","","","","","","","","","","","","null","stimulus/SV_PolicingMSA/MO_60/IMG_14_60.jpg","null","","","","","","4","","","","","",""
"street view slide show","image-button-response","98","452567","0.0-98.0","","656776a7904ae00d6b91d1dd","6568adf5800e9ea660756e1c","7","","","","","","","","","","","","null","stimulus/SV_PolicingMSA/MO_60/IMG_3_60.jpg","null","","","","","","4","","","","","",""
"street view slide show","image-button-response","99","453578","0.0-99.0","","656776a7904ae00d6b91d1dd","6568adf5800e9ea660756e1c","7","","","","","","","","","","","","null","stimulus/SV_PolicingMSA/MO_60/IMG_0_60.jpg","null","","","","","","4","","","","","",""
"street view slide show","image-button-response","100","454592","0.0-100.0","","656776a7904ae00d6b91d1dd","6568adf5800e9ea660756e1c","7","","","","","","","","","","","","null","stimulus/SV_PolicingMSA/MO_60/IMG_12_60.jpg","null","","","","","","4","","","","","",""
"street view slide show","image-button-response","101","455607","0.0-101.0","","656776a7904ae00d6b91d1dd","6568adf5800e9ea660756e1c","7","","","","","","","","","","","","null","stimulus/SV_PolicingMSA/MO_60/IMG_5_60.jpg","null","","","","","","4","","","","","",""
"street view slide show","image-button-response","102","456618","0.0-102.0","","656776a7904ae00d6b91d1dd","6568adf5800e9ea660756e1c","7","","","","","","","","","","","","null","stimulus/SV_PolicingMSA/MO_60/IMG_13_60.jpg","null","","","","","","4","","","","","",""
"dot matrix survey1","survey","103","472110","0.0-103.0","","656776a7904ae00d6b91d1dd","6568adf5800e9ea660756e1c","7","","","","","","","","","","","","15418","","{""P0_Q0"":null,""P0_Q1"":{""wealthy"":3,""safe"":4,""walkable"":1,""traditional"":3,""diverse"":0}}","","","","","","4","[]","","","","",""
"dot matrix survey2","survey","104","480803","0.0-104.0","","656776a7904ae00d6b91d1dd","6568adf5800e9ea660756e1c","7","","","","","","","","","","","","8684","","{""P0_Q0"":null,""P0_Q1"":{""violence"":0,""crime"":0,""drug"":1,""schools"":2,""opportunities"":1}}","","","","","","4","[]","","","","",""
"dot matrix survey3","survey","105","491779","0.0-105.0","","656776a7904ae00d6b91d1dd","6568adf5800e9ea660756e1c","7","","","","","","","","","","","","10967","","{""P0_Q0"":null,""P0_Q1"":{""movein"":1,""moveout"":2,""shopping"":0,""walk"":3,""park"":2,""school"":2}}","","","","","","4","[]","","","","",""
"sliderTrial","html-slider-response","106","495382","0.0-106.0","","656776a7904ae00d6b91d1dd","6568adf5800e9ea660756e1c","7","","","","","","","","","","","","3600","[""SV_PolicingMSA/MO_60/IMG_7_60.jpg"",""SV_PolicingMSA/MO_60/IMG_10_60.jpg"",""SV_PolicingMSA/MO_60/IMG_14_60.jpg"",""SV_PolicingMSA/MO_60/IMG_3_60.jpg"",""SV_PolicingMSA/MO_60/IMG_0_60.jpg"",""SV_PolicingMSA/MO_60/IMG_12_60.jpg"",""SV_PolicingMSA/MO_60/IMG_5_60.jpg"",""SV_PolicingMSA/MO_60/IMG_13_60.jpg""]","6","","","","","","4","","4","[""./rc_img/cop_condGroup_7_SafeStreets_autoscaled.png"",""./rc_img/cop_condGroup_7_CommunitySafety_autoscaled.png""]","","2",""
"sliderTrial","html-slider-response","107","499150","0.0-107.0","","656776a7904ae00d6b91d1dd","6568adf5800e9ea660756e1c","7","","","","","","","","","","","","3767","[""SV_PolicingMSA/MO_60/IMG_7_60.jpg"",""SV_PolicingMSA/MO_60/IMG_10_60.jpg"",""SV_PolicingMSA/MO_60/IMG_14_60.jpg"",""SV_PolicingMSA/MO_60/IMG_3_60.jpg"",""SV_PolicingMSA/MO_60/IMG_0_60.jpg"",""SV_PolicingMSA/MO_60/IMG_12_60.jpg"",""SV_PolicingMSA/MO_60/IMG_5_60.jpg"",""SV_PolicingMSA/MO_60/IMG_13_60.jpg""]","2","","","","","","4","","4","[""./rc_img/cop_condGroup_13_CommunitySafety_autoscaled.png"",""./rc_img/cop_condGroup_13_SafeStreets_autoscaled.png""]","","2",""
"sliderTrial","html-slider-response","108","502092","0.0-108.0","","656776a7904ae00d6b91d1dd","6568adf5800e9ea660756e1c","7","","","","","","","","","","","","2942","[""SV_PolicingMSA/MO_60/IMG_7_60.jpg"",""SV_PolicingMSA/MO_60/IMG_10_60.jpg"",""SV_PolicingMSA/MO_60/IMG_14_60.jpg"",""SV_PolicingMSA/MO_60/IMG_3_60.jpg"",""SV_PolicingMSA/MO_60/IMG_0_60.jpg"",""SV_PolicingMSA/MO_60/IMG_12_60.jpg"",""SV_PolicingMSA/MO_60/IMG_5_60.jpg"",""SV_PolicingMSA/MO_60/IMG_13_60.jpg""]","2","","","","","","4","","4","[""./rc_img/cop_condGroup_12_CommunitySafety_autoscaled.png"",""./rc_img/cop_condGroup_12_SafeStreets_autoscaled.png""]","","2",""
"sliderTrial","html-slider-response","109","504445","0.0-109.0","","656776a7904ae00d6b91d1dd","6568adf5800e9ea660756e1c","7","","","","","","","","","","","","2351","[""SV_PolicingMSA/MO_60/IMG_7_60.jpg"",""SV_PolicingMSA/MO_60/IMG_10_60.jpg"",""SV_PolicingMSA/MO_60/IMG_14_60.jpg"",""SV_PolicingMSA/MO_60/IMG_3_60.jpg"",""SV_PolicingMSA/MO_60/IMG_0_60.jpg"",""SV_PolicingMSA/MO_60/IMG_12_60.jpg"",""SV_PolicingMSA/MO_60/IMG_5_60.jpg"",""SV_PolicingMSA/MO_60/IMG_13_60.jpg""]","5","","","","","","4","","4","[""./rc_img/cop_condGroup_14_SafeStreets_autoscaled.png"",""./rc_img/cop_condGroup_14_CommunitySafety_autoscaled.png""]","","3",""
"sliderTrial","html-slider-response","110","508117","0.0-110.0","","656776a7904ae00d6b91d1dd","6568adf5800e9ea660756e1c","7","","","","","","","","","","","","3671","[""SV_PolicingMSA/MO_60/IMG_7_60.jpg"",""SV_PolicingMSA/MO_60/IMG_10_60.jpg"",""SV_PolicingMSA/MO_60/IMG_14_60.jpg"",""SV_PolicingMSA/MO_60/IMG_3_60.jpg"",""SV_PolicingMSA/MO_60/IMG_0_60.jpg"",""SV_PolicingMSA/MO_60/IMG_12_60.jpg"",""SV_PolicingMSA/MO_60/IMG_5_60.jpg"",""SV_PolicingMSA/MO_60/IMG_13_60.jpg""]","3","","","","","","4","","4","[""./rc_img/cop_condGroup_15_SafeStreets_autoscaled.png"",""./rc_img/cop_condGroup_15_CommunitySafety_autoscaled.png""]","","5",""
"before_SVSlide_prompt","html-button-response","111","509341","0.0-111.0","","656776a7904ae00d6b91d1dd","6568adf5800e9ea660756e1c","7","","","","","","","","","","","","1224","Click [Next] to see the next neighborhood!","0","","","","","","","","","","","",""
"street view slide show","image-button-response","112","510358","0.0-112.0","","656776a7904ae00d6b91d1dd","6568adf5800e9ea660756e1c","7","","","","","","","","","","","","null","stimulus/SV_PolicingMSA/MO_1289/IMG_7_1289.jpg","null","","","","","","3","","","","","",""
"street view slide show","image-button-response","113","511374","0.0-113.0","","656776a7904ae00d6b91d1dd","6568adf5800e9ea660756e1c","7","","","","","","","","","","","","null","stimulus/SV_PolicingMSA/MO_1289/IMG_11_1289.jpg","null","","","","","","3","","","","","",""
"street view slide show","image-button-response","114","512387","0.0-114.0","","656776a7904ae00d6b91d1dd","6568adf5800e9ea660756e1c","7","","","","","","","","","","","","null","stimulus/SV_PolicingMSA/MO_1289/IMG_5_1289.jpg","null","","","","","","3","","","","","",""
"street view slide show","image-button-response","115","513432","0.0-115.0","","656776a7904ae00d6b91d1dd","6568adf5800e9ea660756e1c","7","","","","","","","","","","","","null","stimulus/SV_PolicingMSA/MO_1289/IMG_4_1289.jpg","null","","","","","","3","","","","","",""
"street view slide show","image-button-response","116","514444","0.0-116.0","","656776a7904ae00d6b91d1dd","6568adf5800e9ea660756e1c","7","","","","","","","","","","","","null","stimulus/SV_PolicingMSA/MO_1289/IMG_6_1289.jpg","null","","","","","","3","","","","","",""
"street view slide show","image-button-response","117","515457","0.0-117.0","","656776a7904ae00d6b91d1dd","6568adf5800e9ea660756e1c","7","","","","","","","","","","","","null","stimulus/SV_PolicingMSA/MO_1289/IMG_3_1289.jpg","null","","","","","","3","","","","","",""
"street view slide show","image-button-response","118","516470","0.0-118.0","","656776a7904ae00d6b91d1dd","6568adf5800e9ea660756e1c","7","","","","","","","","","","","","null","stimulus/SV_PolicingMSA/MO_1289/IMG_1_1289.jpg","null","","","","","","3","","","","","",""
"street view slide show","image-button-response","119","517483","0.0-119.0","","656776a7904ae00d6b91d1dd","6568adf5800e9ea660756e1c","7","","","","","","","","","","","","null","stimulus/SV_PolicingMSA/MO_1289/IMG_8_1289.jpg","null","","","","","","3","","","","","",""
"dot matrix survey1","survey","120","530457","0.0-120.0","","656776a7904ae00d6b91d1dd","6568adf5800e9ea660756e1c","7","","","","","","","","","","","","12890","","{""P0_Q0"":null,""P0_Q1"":{""wealthy"":4,""safe"":4,""walkable"":2,""traditional"":2,""diverse"":1}}","","","","","","3","[]","","","","",""
"dot matrix survey2","survey","121","539597","0.0-121.0","","656776a7904ae00d6b91d1dd","6568adf5800e9ea660756e1c","7","","","","","","","","","","","","9122","","{""P0_Q0"":null,""P0_Q1"":{""violence"":0,""crime"":0,""drug"":0,""schools"":3,""opportunities"":2}}","","","","","","3","[]","","","","",""
"dot matrix survey3","survey","122","553035","0.0-122.0","","656776a7904ae00d6b91d1dd","6568adf5800e9ea660756e1c","7","","","","","","","","","","","","13431","","{""P0_Q0"":null,""P0_Q1"":{""movein"":2,""moveout"":1,""shopping"":0,""walk"":4,""park"":3,""school"":3}}","","","","","","3","[]","","","","",""
"sliderTrial","html-slider-response","123","556445","0.0-123.0","","656776a7904ae00d6b91d1dd","6568adf5800e9ea660756e1c","7","","","","","","","","","","","","3408","[""SV_PolicingMSA/MO_1289/IMG_7_1289.jpg"",""SV_PolicingMSA/MO_1289/IMG_11_1289.jpg"",""SV_PolicingMSA/MO_1289/IMG_5_1289.jpg"",""SV_PolicingMSA/MO_1289/IMG_4_1289.jpg"",""SV_PolicingMSA/MO_1289/IMG_6_1289.jpg"",""SV_PolicingMSA/MO_1289/IMG_3_1289.jpg"",""SV_PolicingMSA/MO_1289/IMG_1_1289.jpg"",""SV_PolicingMSA/MO_1289/IMG_8_1289.jpg""]","5","","","","","","3","","4","[""./rc_img/cop_condGroup_6_CommunitySafety_autoscaled.png"",""./rc_img/cop_condGroup_6_SafeStreets_autoscaled.png""]","","5",""
"sliderTrial","html-slider-response","124","559398","0.0-124.0","","656776a7904ae00d6b91d1dd","6568adf5800e9ea660756e1c","7","","","","","","","","","","","","2951","[""SV_PolicingMSA/MO_1289/IMG_7_1289.jpg"",""SV_PolicingMSA/MO_1289/IMG_11_1289.jpg"",""SV_PolicingMSA/MO_1289/IMG_5_1289.jpg"",""SV_PolicingMSA/MO_1289/IMG_4_1289.jpg"",""SV_PolicingMSA/MO_1289/IMG_6_1289.jpg"",""SV_PolicingMSA/MO_1289/IMG_3_1289.jpg"",""SV_PolicingMSA/MO_1289/IMG_1_1289.jpg"",""SV_PolicingMSA/MO_1289/IMG_8_1289.jpg""]","3","","","","","","3","","4","[""./rc_img/cop_condGroup_3_CommunitySafety_autoscaled.png"",""./rc_img/cop_condGroup_3_SafeStreets_autoscaled.png""]","","3",""
"sliderTrial","html-slider-response","125","561838","0.0-125.0","","656776a7904ae00d6b91d1dd","6568adf5800e9ea660756e1c","7","","","","","","","","","","","","2438","[""SV_PolicingMSA/MO_1289/IMG_7_1289.jpg"",""SV_PolicingMSA/MO_1289/IMG_11_1289.jpg"",""SV_PolicingMSA/MO_1289/IMG_5_1289.jpg"",""SV_PolicingMSA/MO_1289/IMG_4_1289.jpg"",""SV_PolicingMSA/MO_1289/IMG_6_1289.jpg"",""SV_PolicingMSA/MO_1289/IMG_3_1289.jpg"",""SV_PolicingMSA/MO_1289/IMG_1_1289.jpg"",""SV_PolicingMSA/MO_1289/IMG_8_1289.jpg""]","3","","","","","","3","","4","[""./rc_img/cop_condGroup_5_CommunitySafety_autoscaled.png"",""./rc_img/cop_condGroup_5_SafeStreets_autoscaled.png""]","","3",""
"sliderTrial","html-slider-response","126","564877","0.0-126.0","","656776a7904ae00d6b91d1dd","6568adf5800e9ea660756e1c","7","","","","","","","","","","","","3039","[""SV_PolicingMSA/MO_1289/IMG_7_1289.jpg"",""SV_PolicingMSA/MO_1289/IMG_11_1289.jpg"",""SV_PolicingMSA/MO_1289/IMG_5_1289.jpg"",""SV_PolicingMSA/MO_1289/IMG_4_1289.jpg"",""SV_PolicingMSA/MO_1289/IMG_6_1289.jpg"",""SV_PolicingMSA/MO_1289/IMG_3_1289.jpg"",""SV_PolicingMSA/MO_1289/IMG_1_1289.jpg"",""SV_PolicingMSA/MO_1289/IMG_8_1289.jpg""]","3","","","","","","3","","4","[""./rc_img/cop_condGroup_11_CommunitySafety_autoscaled.png"",""./rc_img/cop_condGroup_11_SafeStreets_autoscaled.png""]","","3",""
"sliderTrial","html-slider-response","127","567750","0.0-127.0","","656776a7904ae00d6b91d1dd","6568adf5800e9ea660756e1c","7","","","","","","","","","","","","2871","[""SV_PolicingMSA/MO_1289/IMG_7_1289.jpg"",""SV_PolicingMSA/MO_1289/IMG_11_1289.jpg"",""SV_PolicingMSA/MO_1289/IMG_5_1289.jpg"",""SV_PolicingMSA/MO_1289/IMG_4_1289.jpg"",""SV_PolicingMSA/MO_1289/IMG_6_1289.jpg"",""SV_PolicingMSA/MO_1289/IMG_3_1289.jpg"",""SV_PolicingMSA/MO_1289/IMG_1_1289.jpg"",""SV_PolicingMSA/MO_1289/IMG_8_1289.jpg""]","6","","","","","","3","","4","[""./rc_img/cop_condGroup_8_SafeStreets_autoscaled.png"",""./rc_img/cop_condGroup_8_CommunitySafety_autoscaled.png""]","","2",""
"before_SVSlide_prompt","html-button-response","128","568941","0.0-128.0","","656776a7904ae00d6b91d1dd","6568adf5800e9ea660756e1c","7","","","","","","","","","","","","1192","Click [Next] to see the next neighborhood!","0","","","","","","","","","","","",""
"street view slide show","image-button-response","129","569952","0.0-129.0","","656776a7904ae00d6b91d1dd","6568adf5800e9ea660756e1c","7","","","","","","","","","","","","null","stimulus/SV_PolicingMSA/MO_1278/IMG_6_1278.jpg","null","","","","","","5","","","","","",""
"street view slide show","image-button-response","130","570966","0.0-130.0","","656776a7904ae00d6b91d1dd","6568adf5800e9ea660756e1c","7","","","","","","","","","","","","null","stimulus/SV_PolicingMSA/MO_1278/IMG_0_1278.jpg","null","","","","","","5","","","","","",""
"street view slide show","image-button-response","131","571985","0.0-131.0","","656776a7904ae00d6b91d1dd","6568adf5800e9ea660756e1c","7","","","","","","","","","","","","null","stimulus/SV_PolicingMSA/MO_1278/IMG_14_1278.jpg","null","","","","","","5","","","","","",""
"street view slide show","image-button-response","132","573002","0.0-132.0","","656776a7904ae00d6b91d1dd","6568adf5800e9ea660756e1c","7","","","","","","","","","","","","null","stimulus/SV_PolicingMSA/MO_1278/IMG_4_1278.jpg","null","","","","","","5","","","","","",""
"street view slide show","image-button-response","133","574015","0.0-133.0","","656776a7904ae00d6b91d1dd","6568adf5800e9ea660756e1c","7","","","","","","","","","","","","null","stimulus/SV_PolicingMSA/MO_1278/IMG_9_1278.jpg","null","","","","","","5","","","","","",""
"street view slide show","image-button-response","134","575032","0.0-134.0","","656776a7904ae00d6b91d1dd","6568adf5800e9ea660756e1c","7","","","","","","","","","","","","null","stimulus/SV_PolicingMSA/MO_1278/IMG_1_1278.jpg","null","","","","","","5","","","","","",""
"street view slide show","image-button-response","135","576052","0.0-135.0","","656776a7904ae00d6b91d1dd","6568adf5800e9ea660756e1c","7","","","","","","","","","","","","null","stimulus/SV_PolicingMSA/MO_1278/IMG_2_1278.jpg","null","","","","","","5","","","","","",""
"street view slide show","image-button-response","136","577072","0.0-136.0","","656776a7904ae00d6b91d1dd","6568adf5800e9ea660756e1c","7","","","","","","","","","","","","null","stimulus/SV_PolicingMSA/MO_1278/IMG_12_1278.jpg","null","","","","","","5","","","","","",""
"dot matrix survey1","survey","137","589432","0.0-137.0","","656776a7904ae00d6b91d1dd","6568adf5800e9ea660756e1c","7","","","","","","","","","","","","12331","","{""P0_Q0"":null,""P0_Q1"":{""wealthy"":4,""safe"":4,""walkable"":3,""traditional"":3,""diverse"":2}}","","","","","","5","[]","","","","",""
"dot matrix survey2","survey","138","597812","0.0-138.0","","656776a7904ae00d6b91d1dd","6568adf5800e9ea660756e1c","7","","","","","","","","","","","","8363","","{""P0_Q0"":null,""P0_Q1"":{""violence"":0,""crime"":0,""drug"":0,""schools"":3,""opportunities"":2}}","","","","","","5","[]","","","","",""
"dot matrix survey3","survey","139","614372","0.0-139.0","","656776a7904ae00d6b91d1dd","6568adf5800e9ea660756e1c","7","","","","","","","","","","","","16549","","{""P0_Q0"":null,""P0_Q1"":{""movein"":2,""moveout"":1,""shopping"":1,""walk"":4,""park"":3,""school"":4}}","","","","","","5","[]","","","","",""
"sliderTrial","html-slider-response","140","618317","0.0-140.0","","656776a7904ae00d6b91d1dd","6568adf5800e9ea660756e1c","7","","","","","","","","","","","","3944","[""SV_PolicingMSA/MO_1278/IMG_6_1278.jpg"",""SV_PolicingMSA/MO_1278/IMG_0_1278.jpg"",""SV_PolicingMSA/MO_1278/IMG_14_1278.jpg"",""SV_PolicingMSA/MO_1278/IMG_4_1278.jpg"",""SV_PolicingMSA/MO_1278/IMG_9_1278.jpg"",""SV_PolicingMSA/MO_1278/IMG_1_1278.jpg"",""SV_PolicingMSA/MO_1278/IMG_2_1278.jpg"",""SV_PolicingMSA/MO_1278/IMG_12_1278.jpg""]","6","","","","","","5","","4","[""./rc_img/cop_condGroup_19_SafeStreets_autoscaled.png"",""./rc_img/cop_condGroup_19_CommunitySafety_autoscaled.png""]","","2",""
"sliderTrial","html-slider-response","141","621302","0.0-141.0","","656776a7904ae00d6b91d1dd","6568adf5800e9ea660756e1c","7","","","","","","","","","","","","2984","[""SV_PolicingMSA/MO_1278/IMG_6_1278.jpg"",""SV_PolicingMSA/MO_1278/IMG_0_1278.jpg"",""SV_PolicingMSA/MO_1278/IMG_14_1278.jpg"",""SV_PolicingMSA/MO_1278/IMG_4_1278.jpg"",""SV_PolicingMSA/MO_1278/IMG_9_1278.jpg"",""SV_PolicingMSA/MO_1278/IMG_1_1278.jpg"",""SV_PolicingMSA/MO_1278/IMG_2_1278.jpg"",""SV_PolicingMSA/MO_1278/IMG_12_1278.jpg""]","3","","","","","","5","","4","[""./rc_img/cop_condGroup_18_CommunitySafety_autoscaled.png"",""./rc_img/cop_condGroup_18_SafeStreets_autoscaled.png""]","","3",""
"sliderTrial","html-slider-response","142","623958","0.0-142.0","","656776a7904ae00d6b91d1dd","6568adf5800e9ea660756e1c","7","","","","","","","","","","","","2655","[""SV_PolicingMSA/MO_1278/IMG_6_1278.jpg"",""SV_PolicingMSA/MO_1278/IMG_0_1278.jpg"",""SV_PolicingMSA/MO_1278/IMG_14_1278.jpg"",""SV_PolicingMSA/MO_1278/IMG_4_1278.jpg"",""SV_PolicingMSA/MO_1278/IMG_9_1278.jpg"",""SV_PolicingMSA/MO_1278/IMG_1_1278.jpg"",""SV_PolicingMSA/MO_1278/IMG_2_1278.jpg"",""SV_PolicingMSA/MO_1278/IMG_12_1278.jpg""]","5","","","","","","5","","4","[""./rc_img/cop_condGroup_17_SafeStreets_autoscaled.png"",""./rc_img/cop_condGroup_17_CommunitySafety_autoscaled.png""]","","3",""
"sliderTrial","html-slider-response","143","627838","0.0-143.0","","656776a7904ae00d6b91d1dd","6568adf5800e9ea660756e1c","7","","","","","","","","","","","","3879","[""SV_PolicingMSA/MO_1278/IMG_6_1278.jpg"",""SV_PolicingMSA/MO_1278/IMG_0_1278.jpg"",""SV_PolicingMSA/MO_1278/IMG_14_1278.jpg"",""SV_PolicingMSA/MO_1278/IMG_4_1278.jpg"",""SV_PolicingMSA/MO_1278/IMG_9_1278.jpg"",""SV_PolicingMSA/MO_1278/IMG_1_1278.jpg"",""SV_PolicingMSA/MO_1278/IMG_2_1278.jpg"",""SV_PolicingMSA/MO_1278/IMG_12_1278.jpg""]","6","","","","","","5","","4","[""./rc_img/cop_condGroup_16_SafeStreets_autoscaled.png"",""./rc_img/cop_condGroup_16_CommunitySafety_autoscaled.png""]","","2",""
"sliderTrial","html-slider-response","144","630477","0.0-144.0","","656776a7904ae00d6b91d1dd","6568adf5800e9ea660756e1c","7","","","","","","","","","","","","2639","[""SV_PolicingMSA/MO_1278/IMG_6_1278.jpg"",""SV_PolicingMSA/MO_1278/IMG_0_1278.jpg"",""SV_PolicingMSA/MO_1278/IMG_14_1278.jpg"",""SV_PolicingMSA/MO_1278/IMG_4_1278.jpg"",""SV_PolicingMSA/MO_1278/IMG_9_1278.jpg"",""SV_PolicingMSA/MO_1278/IMG_1_1278.jpg"",""SV_PolicingMSA/MO_1278/IMG_2_1278.jpg"",""SV_PolicingMSA/MO_1278/IMG_12_1278.jpg""]","5","","","","","","5","","4","[""./rc_img/cop_condGroup_20_SafeStreets_autoscaled.png"",""./rc_img/cop_condGroup_20_CommunitySafety_autoscaled.png""]","","3",""
"demographics","survey-html-form","145","641648","0.0-145.0","","656776a7904ae00d6b91d1dd","6568adf5800e9ea660756e1c","7","","","","","","","","","","","","11168","","{""age"":""30"",""sex"":""female"",""gender"":""woman"",""gender-self-describe"":"""",""zipcode"":""08071""}","","","","","","","","","","","",""
"demographics-list","survey","146","669781","0.0-146.0","","656776a7904ae00d6b91d1dd","6568adf5800e9ea660756e1c","7","","","","","","","","","","","","28113","","{""P0_Q0"":null,""race-ethnicity"":[""White or of European ancestry""],""education"":""High school diploma or equivalent"",""P1_Q0"":null,""ideology"":""Liberal"",""P2_Q0"":null,""num-moves"":0,""P3_Q0"":null,""social-ladder"":3}","","","","","","","[]","","","","",""
"end-survey","survey-text","147","672862","0.0-147.0","","656776a7904ae00d6b91d1dd","6568adf5800e9ea660756e1c","7","","","","","","","","","","","","3076","","{""Q0"":""""}","","","","","","","","","","","","2"
"end-survey","html-button-response","148","675861","0.0-148.0","","656776a7904ae00d6b91d1dd","6568adf5800e9ea660756e1c","7","","","","","","","","","","","","2998","
    You've reached the end of the survey. <br><br> 
    <b>Do not close or refresh this window.</b><br>
    On the next page, you will be automatically redirected to Prolific. <br><br>

    <div class=""alert alert-warning""><b>
    </div>
","0","","","","","","","","","","","",""
