"task","trial_type","trial_index","time_elapsed","internal_node_id","subject_id","study_id","session_id","section","width","height","webaudio","browser","browser_version","mobile","os","fullscreen","vsync_rate","webcam","microphone","rt","stimulus","response","success","timeout","failed_images","failed_audio","failed_video","block","accuracy","slider_start","choices","standardized_response","correct","num_attention_checks_correct"
"pavlovia-init","pavlovia","0","1385","0.0-0.0","","656776a7904ae00d6b91d1dd","6568aa79b4e3de66108f4dda","9","","","","","","","","","","","","","","","","","","","","","","","","","",""
"browser-check","browser-check","1","2385","0.0-1.0","","656776a7904ae00d6b91d1dd","6568aa79b4e3de66108f4dda","9","1643","797","true","edge-chromium","119.0.0","false","Windows 10","true","60.33","false","false","","","","","","","","","","","","","","",""
"consent","html-button-response","2","6661","0.0-2.0","","656776a7904ae00d6b91d1dd","6568aa79b4e3de66108f4dda","9","","","","","","","","","","","","4274","
        <div style=""font-size: 80%; max-width:700px"">
            <h2>CONSENT FORM</h2>
        
            <div style=""text-align: left"">
            <h4>DESCRIPTION</h4>
            <p>
            You will complete a short task where you give your impressions of various neighborhoods and assign individuals to those spaces, and answer some questions about your thoughts and opinions.<br>
            The University of Michigan Institutional Review Board Health Sciences and Behavioral Sciences has determined that this study is exempt from IRB oversight.
            </p>

            <h4>TIME INVOLVEMENT</h4>
            <p>Your participation will take approximately 15 minutes. You will receive $3.15 upon completion of the study.</p>
        
            <h4>RISKS AND BENEFITS</h4>
            <p>
            The risks associated with this study are minimal. The benefits which may reasonably be expected to result from this study are none. We cannot and do not guarantee or promise that you will receive any benefits from this study.
            </p>
          
            <h4>SUBJECT'S RIGHTS</h4>
            <p>
            If you have read this form and have decided to participate in this project, please understand your participation is voluntary and you have the right to withdraw your consent or discontinue participation at any time without penalty or loss of benefits to which you are otherwise entitled. The alternative is not to participate. You have the right to refuse to answer particular questions. Your individual privacy will be maintained in all published and written data resulting from the study.
            </p>

            <h4>HUMAN SUBJECT APPROVAL</h4>
            <p>
            This study is exempt from ongoing IRB review.
            </p>

            <h4>CONTACT INFORMATION</h4>
            If you have any questions, concerns or complaints about this research, its procedures, risks and benefits, contact the Protocol Director, Nicholas Camp, npcamp@umich.edu, (443) 851-6783. <br>

            If you have questions about your rights as a research participant, or wish to obtain information, ask questions or discuss any concerns about this study with someone other than the researcher(s), please contact the following:<br><br>
            University of Michigan<br>
            Health Sciences and Behavioral Sciences Institutional Review Board (IRB-HSBS)<br>
            2800 Plymouth Road<br>
            Building 520, Room 1169Ann Arbor, MI 48109-2800<br>
            Telephone: 734-936-0933 or toll free (866) 936-0933<br>
            Fax: 734-936-1852<br>
            E-mail: irbhsbs@umich.edu<br><br>

            You can also contact the University of Michigan Compliance Hotline at 1-866-990-0111. You may also print this consent form to keep.
            <br><br>
            <div class=""alert alert-warning""><b>
            Do you consent to participate in this study? If you consent to participate in this study, please click “Accept and Continue”. If you select ""Decline and Exit"", you will be exited from the survey. <br>
            </b></div>
            </div>
        </div>
    ","1","","","","","","","","","","","",""
"","preload","3","9920","0.0-3.0","","656776a7904ae00d6b91d1dd","6568aa79b4e3de66108f4dda","9","","","","","","","","","","","","","","","true","false","[]","[]","[]","","","","","","",""
"instructions","html-button-response","4","27648","0.0-4.0","","656776a7904ae00d6b91d1dd","6568aa79b4e3de66108f4dda","9","","","","","","","","","","","","17727","
        <div class=""text-container"">
        <h1>Welcome to the study!</h1>
        
        <div class=""text-left"">
            <p>
                In this study, we are interested in what people can tell about spaces from Google Street View images. <br> Google Street View takes pictures of streets used for Google Earth and Google Maps. <br>You’ll see Google Street View images of different places and answer some questions about each one.<br>
            </p>
        </div>
        <img src = ""assets/img/example.png"" width = 500px, height = auto>
        <br>
    <br>
    ","0","","","","","","","","","","","",""
"instructions","html-button-response","5","30765","0.0-5.0","","656776a7904ae00d6b91d1dd","6568aa79b4e3de66108f4dda","9","","","","","","","","","","","","3116","
    <div class=""text-container"">
        <div class=""text-center"">
            <p>Please remember that your answers are completely anonymous.<br>Go with your gut response- there are no right or wrong answers!</p>
        </div>
    <br>
","0","","","","","","","","","","","",""
"before_SVSlide_prompt","html-button-response","6","32156","0.0-6.0","","656776a7904ae00d6b91d1dd","6568aa79b4e3de66108f4dda","9","","","","","","","","","","","","1391","Click [Next] to see the next neighborhood!","0","","","","","","","","","","","",""
"street view slide show","image-button-response","7","33161","0.0-7.0","","656776a7904ae00d6b91d1dd","6568aa79b4e3de66108f4dda","9","","","","","","","","","","","","null","stimulus/SV_PolicingMSA/NV_0/IMG_5_0.jpg","null","","","","","","0","","","","","",""
"street view slide show","image-button-response","8","34177","0.0-8.0","","656776a7904ae00d6b91d1dd","6568aa79b4e3de66108f4dda","9","","","","","","","","","","","","null","stimulus/SV_PolicingMSA/NV_0/IMG_0_0.jpg","null","","","","","","0","","","","","",""
"street view slide show","image-button-response","9","35194","0.0-9.0","","656776a7904ae00d6b91d1dd","6568aa79b4e3de66108f4dda","9","","","","","","","","","","","","null","stimulus/SV_PolicingMSA/NV_0/IMG_4_0.jpg","null","","","","","","0","","","","","",""
"street view slide show","image-button-response","10","36198","0.0-10.0","","656776a7904ae00d6b91d1dd","6568aa79b4e3de66108f4dda","9","","","","","","","","","","","","null","stimulus/SV_PolicingMSA/NV_0/IMG_12_0.jpg","null","","","","","","0","","","","","",""
"street view slide show","image-button-response","11","37212","0.0-11.0","","656776a7904ae00d6b91d1dd","6568aa79b4e3de66108f4dda","9","","","","","","","","","","","","null","stimulus/SV_PolicingMSA/NV_0/IMG_13_0.jpg","null","","","","","","0","","","","","",""
"street view slide show","image-button-response","12","38217","0.0-12.0","","656776a7904ae00d6b91d1dd","6568aa79b4e3de66108f4dda","9","","","","","","","","","","","","null","stimulus/SV_PolicingMSA/NV_0/IMG_7_0.jpg","null","","","","","","0","","","","","",""
"street view slide show","image-button-response","13","39234","0.0-13.0","","656776a7904ae00d6b91d1dd","6568aa79b4e3de66108f4dda","9","","","","","","","","","","","","null","stimulus/SV_PolicingMSA/NV_0/IMG_11_0.jpg","null","","","","","","0","","","","","",""
"street view slide show","image-button-response","14","40236","0.0-14.0","","656776a7904ae00d6b91d1dd","6568aa79b4e3de66108f4dda","9","","","","","","","","","","","","null","stimulus/SV_PolicingMSA/NV_0/IMG_14_0.jpg","null","","","","","","0","","","","","",""
"dot matrix survey1","survey","15","87040","0.0-15.0","","656776a7904ae00d6b91d1dd","6568aa79b4e3de66108f4dda","9","","","","","","","","","","","","46765","","{""P0_Q0"":null,""P0_Q1"":{""wealthy"":2,""safe"":2,""walkable"":2,""traditional"":1,""diverse"":2}}","","","","","","0","[]","","","","",""
"dot matrix survey2","survey","16","107183","0.0-16.0","","656776a7904ae00d6b91d1dd","6568aa79b4e3de66108f4dda","9","","","","","","","","","","","","20135","","{""P0_Q0"":null,""P0_Q1"":{""violence"":2,""crime"":2,""schools"":2,""opportunities"":2,""drug"":2}}","","","","","","0","[]","","","","",""
"dot matrix survey3","survey","17","133234","0.0-17.0","","656776a7904ae00d6b91d1dd","6568aa79b4e3de66108f4dda","9","","","","","","","","","","","","26042","","{""P0_Q0"":null,""P0_Q1"":{""movein"":1,""moveout"":1,""park"":1,""school"":1,""walk"":1,""shopping"":1}}","","","","","","0","[]","","","","",""
"sliderTrial","html-slider-response","18","149700","0.0-18.0","","656776a7904ae00d6b91d1dd","6568aa79b4e3de66108f4dda","9","","","","","","","","","","","","16465","[""SV_PolicingMSA/NV_0/IMG_5_0.jpg"",""SV_PolicingMSA/NV_0/IMG_0_0.jpg"",""SV_PolicingMSA/NV_0/IMG_4_0.jpg"",""SV_PolicingMSA/NV_0/IMG_12_0.jpg"",""SV_PolicingMSA/NV_0/IMG_13_0.jpg"",""SV_PolicingMSA/NV_0/IMG_7_0.jpg"",""SV_PolicingMSA/NV_0/IMG_11_0.jpg"",""SV_PolicingMSA/NV_0/IMG_14_0.jpg""]","7","","","","","","0","","4","[""./rc_img/cop_condGroup_11_SafeStreets_autoscaled.png"",""./rc_img/cop_condGroup_11_CommunitySafety_autoscaled.png""]","1","",""
"sliderTrial_attention","html-slider-response","19","159704","0.0-19.0","","656776a7904ae00d6b91d1dd","6568aa79b4e3de66108f4dda","9","","","","","","","","","","","","null","[""SV_PolicingMSA/NV_0/IMG_5_0.jpg"",""SV_PolicingMSA/NV_0/IMG_0_0.jpg"",""SV_PolicingMSA/NV_0/IMG_4_0.jpg"",""SV_PolicingMSA/NV_0/IMG_12_0.jpg"",""SV_PolicingMSA/NV_0/IMG_13_0.jpg"",""SV_PolicingMSA/NV_0/IMG_7_0.jpg"",""SV_PolicingMSA/NV_0/IMG_11_0.jpg"",""SV_PolicingMSA/NV_0/IMG_14_0.jpg""]","null","","","","","","0","","4","[""./assets/img/attnchk.png"",""./assets/img/attnchk.png""]","","true",""
"sliderTrial","html-slider-response","20","170652","0.0-20.0","","656776a7904ae00d6b91d1dd","6568aa79b4e3de66108f4dda","9","","","","","","","","","","","","10944","[""SV_PolicingMSA/NV_0/IMG_5_0.jpg"",""SV_PolicingMSA/NV_0/IMG_0_0.jpg"",""SV_PolicingMSA/NV_0/IMG_4_0.jpg"",""SV_PolicingMSA/NV_0/IMG_12_0.jpg"",""SV_PolicingMSA/NV_0/IMG_13_0.jpg"",""SV_PolicingMSA/NV_0/IMG_7_0.jpg"",""SV_PolicingMSA/NV_0/IMG_11_0.jpg"",""SV_PolicingMSA/NV_0/IMG_14_0.jpg""]","4","","","","","","0","","4","[""./rc_img/cop_condGroup_3_SafeStreets_autoscaled.png"",""./rc_img/cop_condGroup_3_CommunitySafety_autoscaled.png""]","4","",""
"sliderTrial","html-slider-response","21","180700","0.0-21.0","","656776a7904ae00d6b91d1dd","6568aa79b4e3de66108f4dda","9","","","","","","","","","","","","10047","[""SV_PolicingMSA/NV_0/IMG_5_0.jpg"",""SV_PolicingMSA/NV_0/IMG_0_0.jpg"",""SV_PolicingMSA/NV_0/IMG_4_0.jpg"",""SV_PolicingMSA/NV_0/IMG_12_0.jpg"",""SV_PolicingMSA/NV_0/IMG_13_0.jpg"",""SV_PolicingMSA/NV_0/IMG_7_0.jpg"",""SV_PolicingMSA/NV_0/IMG_11_0.jpg"",""SV_PolicingMSA/NV_0/IMG_14_0.jpg""]","7","","","","","","0","","4","[""./rc_img/cop_condGroup_7_SafeStreets_autoscaled.png"",""./rc_img/cop_condGroup_7_CommunitySafety_autoscaled.png""]","1","",""
"sliderTrial","html-slider-response","22","188643","0.0-22.0","","656776a7904ae00d6b91d1dd","6568aa79b4e3de66108f4dda","9","","","","","","","","","","","","7942","[""SV_PolicingMSA/NV_0/IMG_5_0.jpg"",""SV_PolicingMSA/NV_0/IMG_0_0.jpg"",""SV_PolicingMSA/NV_0/IMG_4_0.jpg"",""SV_PolicingMSA/NV_0/IMG_12_0.jpg"",""SV_PolicingMSA/NV_0/IMG_13_0.jpg"",""SV_PolicingMSA/NV_0/IMG_7_0.jpg"",""SV_PolicingMSA/NV_0/IMG_11_0.jpg"",""SV_PolicingMSA/NV_0/IMG_14_0.jpg""]","4","","","","","","0","","4","[""./rc_img/cop_condGroup_16_CommunitySafety_autoscaled.png"",""./rc_img/cop_condGroup_16_SafeStreets_autoscaled.png""]","4","",""
"sliderTrial","html-slider-response","23","197820","0.0-23.0","","656776a7904ae00d6b91d1dd","6568aa79b4e3de66108f4dda","9","","","","","","","","","","","","9175","[""SV_PolicingMSA/NV_0/IMG_5_0.jpg"",""SV_PolicingMSA/NV_0/IMG_0_0.jpg"",""SV_PolicingMSA/NV_0/IMG_4_0.jpg"",""SV_PolicingMSA/NV_0/IMG_12_0.jpg"",""SV_PolicingMSA/NV_0/IMG_13_0.jpg"",""SV_PolicingMSA/NV_0/IMG_7_0.jpg"",""SV_PolicingMSA/NV_0/IMG_11_0.jpg"",""SV_PolicingMSA/NV_0/IMG_14_0.jpg""]","4","","","","","","0","","4","[""./rc_img/cop_condGroup_12_CommunitySafety_autoscaled.png"",""./rc_img/cop_condGroup_12_SafeStreets_autoscaled.png""]","4","",""
"before_SVSlide_prompt","html-button-response","24","199579","0.0-24.0","","656776a7904ae00d6b91d1dd","6568aa79b4e3de66108f4dda","9","","","","","","","","","","","","1758","Click [Next] to see the next neighborhood!","0","","","","","","","","","","","",""
"street view slide show","image-button-response","25","200588","0.0-25.0","","656776a7904ae00d6b91d1dd","6568aa79b4e3de66108f4dda","9","","","","","","","","","","","","null","stimulus/SV_PolicingMSA/NV_173/IMG_7_173.jpg","null","","","","","","3","","","","","",""
"street view slide show","image-button-response","26","201594","0.0-26.0","","656776a7904ae00d6b91d1dd","6568aa79b4e3de66108f4dda","9","","","","","","","","","","","","null","stimulus/SV_PolicingMSA/NV_173/IMG_4_173.jpg","null","","","","","","3","","","","","",""
"street view slide show","image-button-response","27","202597","0.0-27.0","","656776a7904ae00d6b91d1dd","6568aa79b4e3de66108f4dda","9","","","","","","","","","","","","null","stimulus/SV_PolicingMSA/NV_173/IMG_6_173.jpg","null","","","","","","3","","","","","",""
"street view slide show","image-button-response","28","203613","0.0-28.0","","656776a7904ae00d6b91d1dd","6568aa79b4e3de66108f4dda","9","","","","","","","","","","","","null","stimulus/SV_PolicingMSA/NV_173/IMG_14_173.jpg","null","","","","","","3","","","","","",""
"street view slide show","image-button-response","29","204620","0.0-29.0","","656776a7904ae00d6b91d1dd","6568aa79b4e3de66108f4dda","9","","","","","","","","","","","","null","stimulus/SV_PolicingMSA/NV_173/IMG_10_173.jpg","null","","","","","","3","","","","","",""
"street view slide show","image-button-response","30","205632","0.0-30.0","","656776a7904ae00d6b91d1dd","6568aa79b4e3de66108f4dda","9","","","","","","","","","","","","null","stimulus/SV_PolicingMSA/NV_173/IMG_8_173.jpg","null","","","","","","3","","","","","",""
"street view slide show","image-button-response","31","206648","0.0-31.0","","656776a7904ae00d6b91d1dd","6568aa79b4e3de66108f4dda","9","","","","","","","","","","","","null","stimulus/SV_PolicingMSA/NV_173/IMG_13_173.jpg","null","","","","","","3","","","","","",""
"street view slide show","image-button-response","32","207652","0.0-32.0","","656776a7904ae00d6b91d1dd","6568aa79b4e3de66108f4dda","9","","","","","","","","","","","","null","stimulus/SV_PolicingMSA/NV_173/IMG_0_173.jpg","null","","","","","","3","","","","","",""
"dot matrix survey1","survey","33","219520","0.0-33.0","","656776a7904ae00d6b91d1dd","6568aa79b4e3de66108f4dda","9","","","","","","","","","","","","11858","","{""P0_Q0"":null,""P0_Q1"":{""wealthy"":2,""traditional"":2,""walkable"":2,""safe"":2,""diverse"":2}}","","","","","","3","[]","","","","",""
"dot matrix survey2","survey","34","232223","0.0-34.0","","656776a7904ae00d6b91d1dd","6568aa79b4e3de66108f4dda","9","","","","","","","","","","","","12698","","{""P0_Q0"":null,""P0_Q1"":{""violence"":1,""crime"":1,""drug"":2,""schools"":2,""opportunities"":2}}","","","","","","3","[]","","","","",""
"dot matrix survey3","survey","35","247027","0.0-35.0","","656776a7904ae00d6b91d1dd","6568aa79b4e3de66108f4dda","9","","","","","","","","","","","","14798","","{""P0_Q0"":null,""P0_Q1"":{""movein"":2,""moveout"":1,""shopping"":2,""walk"":2,""park"":2,""school"":2}}","","","","","","3","[]","","","","",""
"sliderTrial","html-slider-response","36","253876","0.0-36.0","","656776a7904ae00d6b91d1dd","6568aa79b4e3de66108f4dda","9","","","","","","","","","","","","6847","[""SV_PolicingMSA/NV_173/IMG_7_173.jpg"",""SV_PolicingMSA/NV_173/IMG_4_173.jpg"",""SV_PolicingMSA/NV_173/IMG_6_173.jpg"",""SV_PolicingMSA/NV_173/IMG_14_173.jpg"",""SV_PolicingMSA/NV_173/IMG_10_173.jpg"",""SV_PolicingMSA/NV_173/IMG_8_173.jpg"",""SV_PolicingMSA/NV_173/IMG_13_173.jpg"",""SV_PolicingMSA/NV_173/IMG_0_173.jpg""]","7","","","","","","3","","4","[""./rc_img/cop_condGroup_8_SafeStreets_autoscaled.png"",""./rc_img/cop_condGroup_8_CommunitySafety_autoscaled.png""]","1","",""
"sliderTrial","html-slider-response","37","262491","0.0-37.0","","656776a7904ae00d6b91d1dd","6568aa79b4e3de66108f4dda","9","","","","","","","","","","","","8614","[""SV_PolicingMSA/NV_173/IMG_7_173.jpg"",""SV_PolicingMSA/NV_173/IMG_4_173.jpg"",""SV_PolicingMSA/NV_173/IMG_6_173.jpg"",""SV_PolicingMSA/NV_173/IMG_14_173.jpg"",""SV_PolicingMSA/NV_173/IMG_10_173.jpg"",""SV_PolicingMSA/NV_173/IMG_8_173.jpg"",""SV_PolicingMSA/NV_173/IMG_13_173.jpg"",""SV_PolicingMSA/NV_173/IMG_0_173.jpg""]","2","","","","","","3","","4","[""./rc_img/cop_condGroup_1_CommunitySafety_autoscaled.png"",""./rc_img/cop_condGroup_1_SafeStreets_autoscaled.png""]","2","",""
"sliderTrial","html-slider-response","38","265861","0.0-38.0","","656776a7904ae00d6b91d1dd","6568aa79b4e3de66108f4dda","9","","","","","","","","","","","","3368","[""SV_PolicingMSA/NV_173/IMG_7_173.jpg"",""SV_PolicingMSA/NV_173/IMG_4_173.jpg"",""SV_PolicingMSA/NV_173/IMG_6_173.jpg"",""SV_PolicingMSA/NV_173/IMG_14_173.jpg"",""SV_PolicingMSA/NV_173/IMG_10_173.jpg"",""SV_PolicingMSA/NV_173/IMG_8_173.jpg"",""SV_PolicingMSA/NV_173/IMG_13_173.jpg"",""SV_PolicingMSA/NV_173/IMG_0_173.jpg""]","7","","","","","","3","","4","[""./rc_img/cop_condGroup_18_SafeStreets_autoscaled.png"",""./rc_img/cop_condGroup_18_CommunitySafety_autoscaled.png""]","1","",""
"sliderTrial","html-slider-response","39","269148","0.0-39.0","","656776a7904ae00d6b91d1dd","6568aa79b4e3de66108f4dda","9","","","","","","","","","","","","3286","[""SV_PolicingMSA/NV_173/IMG_7_173.jpg"",""SV_PolicingMSA/NV_173/IMG_4_173.jpg"",""SV_PolicingMSA/NV_173/IMG_6_173.jpg"",""SV_PolicingMSA/NV_173/IMG_14_173.jpg"",""SV_PolicingMSA/NV_173/IMG_10_173.jpg"",""SV_PolicingMSA/NV_173/IMG_8_173.jpg"",""SV_PolicingMSA/NV_173/IMG_13_173.jpg"",""SV_PolicingMSA/NV_173/IMG_0_173.jpg""]","1","","","","","","3","","4","[""./rc_img/cop_condGroup_2_CommunitySafety_autoscaled.png"",""./rc_img/cop_condGroup_2_SafeStreets_autoscaled.png""]","1","",""
"sliderTrial","html-slider-response","40","276860","0.0-40.0","","656776a7904ae00d6b91d1dd","6568aa79b4e3de66108f4dda","9","","","","","","","","","","","","7710","[""SV_PolicingMSA/NV_173/IMG_7_173.jpg"",""SV_PolicingMSA/NV_173/IMG_4_173.jpg"",""SV_PolicingMSA/NV_173/IMG_6_173.jpg"",""SV_PolicingMSA/NV_173/IMG_14_173.jpg"",""SV_PolicingMSA/NV_173/IMG_10_173.jpg"",""SV_PolicingMSA/NV_173/IMG_8_173.jpg"",""SV_PolicingMSA/NV_173/IMG_13_173.jpg"",""SV_PolicingMSA/NV_173/IMG_0_173.jpg""]","5","","","","","","3","","4","[""./rc_img/cop_condGroup_14_SafeStreets_autoscaled.png"",""./rc_img/cop_condGroup_14_CommunitySafety_autoscaled.png""]","3","",""
"before_SVSlide_prompt","html-button-response","41","278316","0.0-41.0","","656776a7904ae00d6b91d1dd","6568aa79b4e3de66108f4dda","9","","","","","","","","","","","","1456","Click [Next] to see the next neighborhood!","0","","","","","","","","","","","",""
"street view slide show","image-button-response","42","279323","0.0-42.0","","656776a7904ae00d6b91d1dd","6568aa79b4e3de66108f4dda","9","","","","","","","","","","","","null","stimulus/SV_PolicingMSA/NV_189/IMG_9_189.jpg","null","","","","","","1","","","","","",""
"street view slide show","image-button-response","43","280338","0.0-43.0","","656776a7904ae00d6b91d1dd","6568aa79b4e3de66108f4dda","9","","","","","","","","","","","","null","stimulus/SV_PolicingMSA/NV_189/IMG_5_189.jpg","null","","","","","","1","","","","","",""
"street view slide show","image-button-response","44","281343","0.0-44.0","","656776a7904ae00d6b91d1dd","6568aa79b4e3de66108f4dda","9","","","","","","","","","","","","null","stimulus/SV_PolicingMSA/NV_189/IMG_7_189.jpg","null","","","","","","1","","","","","",""
"street view slide show","image-button-response","45","282359","0.0-45.0","","656776a7904ae00d6b91d1dd","6568aa79b4e3de66108f4dda","9","","","","","","","","","","","","null","stimulus/SV_PolicingMSA/NV_189/IMG_8_189.jpg","null","","","","","","1","","","","","",""
"street view slide show","image-button-response","46","283363","0.0-46.0","","656776a7904ae00d6b91d1dd","6568aa79b4e3de66108f4dda","9","","","","","","","","","","","","null","stimulus/SV_PolicingMSA/NV_189/IMG_4_189.jpg","null","","","","","","1","","","","","",""
"street view slide show","image-button-response","47","284377","0.0-47.0","","656776a7904ae00d6b91d1dd","6568aa79b4e3de66108f4dda","9","","","","","","","","","","","","null","stimulus/SV_PolicingMSA/NV_189/IMG_11_189.jpg","null","","","","","","1","","","","","",""
"street view slide show","image-button-response","48","285392","0.0-48.0","","656776a7904ae00d6b91d1dd","6568aa79b4e3de66108f4dda","9","","","","","","","","","","","","null","stimulus/SV_PolicingMSA/NV_189/IMG_10_189.jpg","null","","","","","","1","","","","","",""
"street view slide show","image-button-response","49","286396","0.0-49.0","","656776a7904ae00d6b91d1dd","6568aa79b4e3de66108f4dda","9","","","","","","","","","","","","null","stimulus/SV_PolicingMSA/NV_189/IMG_6_189.jpg","null","","","","","","1","","","","","",""
"dot matrix survey1","survey","50","301329","0.0-50.0","","656776a7904ae00d6b91d1dd","6568aa79b4e3de66108f4dda","9","","","","","","","","","","","","14926","","{""P0_Q0"":null,""P0_Q1"":{""wealthy"":3,""safe"":2,""walkable"":2,""traditional"":1,""diverse"":2}}","","","","","","1","[]","","","","",""
"dot matrix survey2","survey","51","311250","0.0-51.0","","656776a7904ae00d6b91d1dd","6568aa79b4e3de66108f4dda","9","","","","","","","","","","","","9916","","{""P0_Q0"":null,""P0_Q1"":{""violence"":2,""crime"":2,""drug"":2,""schools"":2,""opportunities"":2}}","","","","","","1","[]","","","","",""
"dot matrix survey3","survey","52","328649","0.0-52.0","","656776a7904ae00d6b91d1dd","6568aa79b4e3de66108f4dda","9","","","","","","","","","","","","17394","","{""P0_Q0"":null,""P0_Q1"":{""movein"":1,""moveout"":2,""shopping"":2,""walk"":1,""park"":2,""school"":2}}","","","","","","1","[]","","","","",""
"sliderTrial","html-slider-response","53","333147","0.0-53.0","","656776a7904ae00d6b91d1dd","6568aa79b4e3de66108f4dda","9","","","","","","","","","","","","4497","[""SV_PolicingMSA/NV_189/IMG_9_189.jpg"",""SV_PolicingMSA/NV_189/IMG_5_189.jpg"",""SV_PolicingMSA/NV_189/IMG_7_189.jpg"",""SV_PolicingMSA/NV_189/IMG_8_189.jpg"",""SV_PolicingMSA/NV_189/IMG_4_189.jpg"",""SV_PolicingMSA/NV_189/IMG_11_189.jpg"",""SV_PolicingMSA/NV_189/IMG_10_189.jpg"",""SV_PolicingMSA/NV_189/IMG_6_189.jpg""]","7","","","","","","1","","4","[""./rc_img/cop_condGroup_8_SafeStreets_autoscaled.png"",""./rc_img/cop_condGroup_8_CommunitySafety_autoscaled.png""]","1","",""
"sliderTrial_attention","html-slider-response","54","343154","0.0-54.0","","656776a7904ae00d6b91d1dd","6568aa79b4e3de66108f4dda","9","","","","","","","","","","","","null","[""SV_PolicingMSA/NV_189/IMG_9_189.jpg"",""SV_PolicingMSA/NV_189/IMG_5_189.jpg"",""SV_PolicingMSA/NV_189/IMG_7_189.jpg"",""SV_PolicingMSA/NV_189/IMG_8_189.jpg"",""SV_PolicingMSA/NV_189/IMG_4_189.jpg"",""SV_PolicingMSA/NV_189/IMG_11_189.jpg"",""SV_PolicingMSA/NV_189/IMG_10_189.jpg"",""SV_PolicingMSA/NV_189/IMG_6_189.jpg""]","null","","","","","","1","","4","[""./assets/img/attnchk.png"",""./assets/img/attnchk.png""]","","true",""
"sliderTrial","html-slider-response","55","348555","0.0-55.0","","656776a7904ae00d6b91d1dd","6568aa79b4e3de66108f4dda","9","","","","","","","","","","","","5397","[""SV_PolicingMSA/NV_189/IMG_9_189.jpg"",""SV_PolicingMSA/NV_189/IMG_5_189.jpg"",""SV_PolicingMSA/NV_189/IMG_7_189.jpg"",""SV_PolicingMSA/NV_189/IMG_8_189.jpg"",""SV_PolicingMSA/NV_189/IMG_4_189.jpg"",""SV_PolicingMSA/NV_189/IMG_11_189.jpg"",""SV_PolicingMSA/NV_189/IMG_10_189.jpg"",""SV_PolicingMSA/NV_189/IMG_6_189.jpg""]","1","","","","","","1","","4","[""./rc_img/cop_condGroup_1_CommunitySafety_autoscaled.png"",""./rc_img/cop_condGroup_1_SafeStreets_autoscaled.png""]","1","",""
"sliderTrial","html-slider-response","56","351563","0.0-56.0","","656776a7904ae00d6b91d1dd","6568aa79b4e3de66108f4dda","9","","","","","","","","","","","","3007","[""SV_PolicingMSA/NV_189/IMG_9_189.jpg"",""SV_PolicingMSA/NV_189/IMG_5_189.jpg"",""SV_PolicingMSA/NV_189/IMG_7_189.jpg"",""SV_PolicingMSA/NV_189/IMG_8_189.jpg"",""SV_PolicingMSA/NV_189/IMG_4_189.jpg"",""SV_PolicingMSA/NV_189/IMG_11_189.jpg"",""SV_PolicingMSA/NV_189/IMG_10_189.jpg"",""SV_PolicingMSA/NV_189/IMG_6_189.jpg""]","5","","","","","","1","","4","[""./rc_img/cop_condGroup_18_SafeStreets_autoscaled.png"",""./rc_img/cop_condGroup_18_CommunitySafety_autoscaled.png""]","3","",""
"sliderTrial","html-slider-response","57","354971","0.0-57.0","","656776a7904ae00d6b91d1dd","6568aa79b4e3de66108f4dda","9","","","","","","","","","","","","3407","[""SV_PolicingMSA/NV_189/IMG_9_189.jpg"",""SV_PolicingMSA/NV_189/IMG_5_189.jpg"",""SV_PolicingMSA/NV_189/IMG_7_189.jpg"",""SV_PolicingMSA/NV_189/IMG_8_189.jpg"",""SV_PolicingMSA/NV_189/IMG_4_189.jpg"",""SV_PolicingMSA/NV_189/IMG_11_189.jpg"",""SV_PolicingMSA/NV_189/IMG_10_189.jpg"",""SV_PolicingMSA/NV_189/IMG_6_189.jpg""]","3","","","","","","1","","4","[""./rc_img/cop_condGroup_2_CommunitySafety_autoscaled.png"",""./rc_img/cop_condGroup_2_SafeStreets_autoscaled.png""]","3","",""
"sliderTrial","html-slider-response","58","358595","0.0-58.0","","656776a7904ae00d6b91d1dd","6568aa79b4e3de66108f4dda","9","","","","","","","","","","","","3622","[""SV_PolicingMSA/NV_189/IMG_9_189.jpg"",""SV_PolicingMSA/NV_189/IMG_5_189.jpg"",""SV_PolicingMSA/NV_189/IMG_7_189.jpg"",""SV_PolicingMSA/NV_189/IMG_8_189.jpg"",""SV_PolicingMSA/NV_189/IMG_4_189.jpg"",""SV_PolicingMSA/NV_189/IMG_11_189.jpg"",""SV_PolicingMSA/NV_189/IMG_10_189.jpg"",""SV_PolicingMSA/NV_189/IMG_6_189.jpg""]","5","","","","","","1","","4","[""./rc_img/cop_condGroup_14_SafeStreets_autoscaled.png"",""./rc_img/cop_condGroup_14_CommunitySafety_autoscaled.png""]","3","",""
"before_SVSlide_prompt","html-button-response","59","359860","0.0-59.0","","656776a7904ae00d6b91d1dd","6568aa79b4e3de66108f4dda","9","","","","","","","","","","","","1264","Click [Next] to see the next neighborhood!","0","","","","","","","","","","","",""
"street view slide show","image-button-response","60","360869","0.0-60.0","","656776a7904ae00d6b91d1dd","6568aa79b4e3de66108f4dda","9","","","","","","","","","","","","null","stimulus/SV_PolicingMSA/NV_673/IMG_5_673.jpg","null","","","","","","5","","","","","",""
"street view slide show","image-button-response","61","361871","0.0-61.0","","656776a7904ae00d6b91d1dd","6568aa79b4e3de66108f4dda","9","","","","","","","","","","","","null","stimulus/SV_PolicingMSA/NV_673/IMG_1_673.jpg","null","","","","","","5","","","","","",""
"street view slide show","image-button-response","62","362873","0.0-62.0","","656776a7904ae00d6b91d1dd","6568aa79b4e3de66108f4dda","9","","","","","","","","","","","","null","stimulus/SV_PolicingMSA/NV_673/IMG_12_673.jpg","null","","","","","","5","","","","","",""
"street view slide show","image-button-response","63","363886","0.0-63.0","","656776a7904ae00d6b91d1dd","6568aa79b4e3de66108f4dda","9","","","","","","","","","","","","null","stimulus/SV_PolicingMSA/NV_673/IMG_7_673.jpg","null","","","","","","5","","","","","",""
"street view slide show","image-button-response","64","364888","0.0-64.0","","656776a7904ae00d6b91d1dd","6568aa79b4e3de66108f4dda","9","","","","","","","","","","","","null","stimulus/SV_PolicingMSA/NV_673/IMG_13_673.jpg","null","","","","","","5","","","","","",""
"street view slide show","image-button-response","65","365892","0.0-65.0","","656776a7904ae00d6b91d1dd","6568aa79b4e3de66108f4dda","9","","","","","","","","","","","","null","stimulus/SV_PolicingMSA/NV_673/IMG_8_673.jpg","null","","","","","","5","","","","","",""
"street view slide show","image-button-response","66","366908","0.0-66.0","","656776a7904ae00d6b91d1dd","6568aa79b4e3de66108f4dda","9","","","","","","","","","","","","null","stimulus/SV_PolicingMSA/NV_673/IMG_4_673.jpg","null","","","","","","5","","","","","",""
"street view slide show","image-button-response","67","367912","0.0-67.0","","656776a7904ae00d6b91d1dd","6568aa79b4e3de66108f4dda","9","","","","","","","","","","","","null","stimulus/SV_PolicingMSA/NV_673/IMG_14_673.jpg","null","","","","","","5","","","","","",""
"dot matrix survey1","survey","68","381904","0.0-68.0","","656776a7904ae00d6b91d1dd","6568aa79b4e3de66108f4dda","9","","","","","","","","","","","","13982","","{""P0_Q0"":null,""P0_Q1"":{""wealthy"":2,""safe"":2,""walkable"":2,""traditional"":1,""diverse"":2}}","","","","","","5","[]","","","","",""
"dot matrix survey2","survey","69","396961","0.0-69.0","","656776a7904ae00d6b91d1dd","6568aa79b4e3de66108f4dda","9","","","","","","","","","","","","15050","","{""P0_Q0"":null,""P0_Q1"":{""violence"":1,""crime"":1,""schools"":2,""drug"":2,""opportunities"":2}}","","","","","","5","[]","","","","",""
"dot matrix survey3","survey","70","428128","0.0-70.0","","656776a7904ae00d6b91d1dd","6568aa79b4e3de66108f4dda","9","","","","","","","","","","","","31162","","{""P0_Q0"":null,""P0_Q1"":{""movein"":3,""moveout"":2,""shopping"":3,""walk"":2,""park"":2,""school"":2}}","","","","","","5","[]","","","","",""
"sliderTrial","html-slider-response","71","432835","0.0-71.0","","656776a7904ae00d6b91d1dd","6568aa79b4e3de66108f4dda","9","","","","","","","","","","","","4706","[""SV_PolicingMSA/NV_673/IMG_5_673.jpg"",""SV_PolicingMSA/NV_673/IMG_1_673.jpg"",""SV_PolicingMSA/NV_673/IMG_12_673.jpg"",""SV_PolicingMSA/NV_673/IMG_7_673.jpg"",""SV_PolicingMSA/NV_673/IMG_13_673.jpg"",""SV_PolicingMSA/NV_673/IMG_8_673.jpg"",""SV_PolicingMSA/NV_673/IMG_4_673.jpg"",""SV_PolicingMSA/NV_673/IMG_14_673.jpg""]","3","","","","","","5","","4","[""./rc_img/cop_condGroup_4_CommunitySafety_autoscaled.png"",""./rc_img/cop_condGroup_4_SafeStreets_autoscaled.png""]","3","",""
"sliderTrial","html-slider-response","72","435315","0.0-72.0","","656776a7904ae00d6b91d1dd","6568aa79b4e3de66108f4dda","9","","","","","","","","","","","","2479","[""SV_PolicingMSA/NV_673/IMG_5_673.jpg"",""SV_PolicingMSA/NV_673/IMG_1_673.jpg"",""SV_PolicingMSA/NV_673/IMG_12_673.jpg"",""SV_PolicingMSA/NV_673/IMG_7_673.jpg"",""SV_PolicingMSA/NV_673/IMG_13_673.jpg"",""SV_PolicingMSA/NV_673/IMG_8_673.jpg"",""SV_PolicingMSA/NV_673/IMG_4_673.jpg"",""SV_PolicingMSA/NV_673/IMG_14_673.jpg""]","5","","","","","","5","","4","[""./rc_img/cop_condGroup_13_SafeStreets_autoscaled.png"",""./rc_img/cop_condGroup_13_CommunitySafety_autoscaled.png""]","3","",""
"sliderTrial","html-slider-response","73","437811","0.0-73.0","","656776a7904ae00d6b91d1dd","6568aa79b4e3de66108f4dda","9","","","","","","","","","","","","2495","[""SV_PolicingMSA/NV_673/IMG_5_673.jpg"",""SV_PolicingMSA/NV_673/IMG_1_673.jpg"",""SV_PolicingMSA/NV_673/IMG_12_673.jpg"",""SV_PolicingMSA/NV_673/IMG_7_673.jpg"",""SV_PolicingMSA/NV_673/IMG_13_673.jpg"",""SV_PolicingMSA/NV_673/IMG_8_673.jpg"",""SV_PolicingMSA/NV_673/IMG_4_673.jpg"",""SV_PolicingMSA/NV_673/IMG_14_673.jpg""]","5","","","","","","5","","4","[""./rc_img/cop_condGroup_10_SafeStreets_autoscaled.png"",""./rc_img/cop_condGroup_10_CommunitySafety_autoscaled.png""]","3","",""
"sliderTrial","html-slider-response","74","441323","0.0-74.0","","656776a7904ae00d6b91d1dd","6568aa79b4e3de66108f4dda","9","","","","","","","","","","","","3511","[""SV_PolicingMSA/NV_673/IMG_5_673.jpg"",""SV_PolicingMSA/NV_673/IMG_1_673.jpg"",""SV_PolicingMSA/NV_673/IMG_12_673.jpg"",""SV_PolicingMSA/NV_673/IMG_7_673.jpg"",""SV_PolicingMSA/NV_673/IMG_13_673.jpg"",""SV_PolicingMSA/NV_673/IMG_8_673.jpg"",""SV_PolicingMSA/NV_673/IMG_4_673.jpg"",""SV_PolicingMSA/NV_673/IMG_14_673.jpg""]","3","","","","","","5","","4","[""./rc_img/cop_condGroup_6_CommunitySafety_autoscaled.png"",""./rc_img/cop_condGroup_6_SafeStreets_autoscaled.png""]","3","",""
"sliderTrial","html-slider-response","75","444042","0.0-75.0","","656776a7904ae00d6b91d1dd","6568aa79b4e3de66108f4dda","9","","","","","","","","","","","","2718","[""SV_PolicingMSA/NV_673/IMG_5_673.jpg"",""SV_PolicingMSA/NV_673/IMG_1_673.jpg"",""SV_PolicingMSA/NV_673/IMG_12_673.jpg"",""SV_PolicingMSA/NV_673/IMG_7_673.jpg"",""SV_PolicingMSA/NV_673/IMG_13_673.jpg"",""SV_PolicingMSA/NV_673/IMG_8_673.jpg"",""SV_PolicingMSA/NV_673/IMG_4_673.jpg"",""SV_PolicingMSA/NV_673/IMG_14_673.jpg""]","3","","","","","","5","","4","[""./rc_img/cop_condGroup_9_CommunitySafety_autoscaled.png"",""./rc_img/cop_condGroup_9_SafeStreets_autoscaled.png""]","3","",""
"half-way","html-button-response","76","459801","0.0-76.0","","656776a7904ae00d6b91d1dd","6568aa79b4e3de66108f4dda","9","","","","","","","","","","","","null","
    <h3>You are now half way through the study.</h3>
    <p>Please take a quick, 15-second break before you continue.</p>
    <img src='assets/img/countdown-15.gif'>
    <p>The study will automatically advance forward after the countdown is complete. <br> However, you may click ""Next"" to advance forward now if you wish.</p>
    ","null","","","","","","","","","","","",""
"before_SVSlide_prompt","html-button-response","77","461123","0.0-77.0","","656776a7904ae00d6b91d1dd","6568aa79b4e3de66108f4dda","9","","","","","","","","","","","","1321","Click [Next] to see the next neighborhood!","0","","","","","","","","","","","",""
"street view slide show","image-button-response","78","462135","0.0-78.0","","656776a7904ae00d6b91d1dd","6568aa79b4e3de66108f4dda","9","","","","","","","","","","","","null","stimulus/SV_PolicingMSA/NV_754/IMG_4_754.jpg","null","","","","","","4","","","","","",""
"street view slide show","image-button-response","79","463139","0.0-79.0","","656776a7904ae00d6b91d1dd","6568aa79b4e3de66108f4dda","9","","","","","","","","","","","","null","stimulus/SV_PolicingMSA/NV_754/IMG_1_754.jpg","null","","","","","","4","","","","","",""
"street view slide show","image-button-response","80","464156","0.0-80.0","","656776a7904ae00d6b91d1dd","6568aa79b4e3de66108f4dda","9","","","","","","","","","","","","null","stimulus/SV_PolicingMSA/NV_754/IMG_6_754.jpg","null","","","","","","4","","","","","",""
"street view slide show","image-button-response","81","465157","0.0-81.0","","656776a7904ae00d6b91d1dd","6568aa79b4e3de66108f4dda","9","","","","","","","","","","","","null","stimulus/SV_PolicingMSA/NV_754/IMG_2_754.jpg","null","","","","","","4","","","","","",""
"street view slide show","image-button-response","82","466158","0.0-82.0","","656776a7904ae00d6b91d1dd","6568aa79b4e3de66108f4dda","9","","","","","","","","","","","","null","stimulus/SV_PolicingMSA/NV_754/IMG_10_754.jpg","null","","","","","","4","","","","","",""
"street view slide show","image-button-response","83","467159","0.0-83.0","","656776a7904ae00d6b91d1dd","6568aa79b4e3de66108f4dda","9","","","","","","","","","","","","null","stimulus/SV_PolicingMSA/NV_754/IMG_8_754.jpg","null","","","","","","4","","","","","",""
"street view slide show","image-button-response","84","468161","0.0-84.0","","656776a7904ae00d6b91d1dd","6568aa79b4e3de66108f4dda","9","","","","","","","","","","","","null","stimulus/SV_PolicingMSA/NV_754/IMG_14_754.jpg","null","","","","","","4","","","","","",""
"street view slide show","image-button-response","85","469163","0.0-85.0","","656776a7904ae00d6b91d1dd","6568aa79b4e3de66108f4dda","9","","","","","","","","","","","","null","stimulus/SV_PolicingMSA/NV_754/IMG_0_754.jpg","null","","","","","","4","","","","","",""
"dot matrix survey1","survey","86","477296","0.0-86.0","","656776a7904ae00d6b91d1dd","6568aa79b4e3de66108f4dda","9","","","","","","","","","","","","8124","","{""P0_Q0"":null,""P0_Q1"":{""wealthy"":2,""safe"":2,""walkable"":2,""traditional"":2,""diverse"":2}}","","","","","","4","[]","","","","",""
"dot matrix survey2","survey","87","486368","0.0-87.0","","656776a7904ae00d6b91d1dd","6568aa79b4e3de66108f4dda","9","","","","","","","","","","","","9068","","{""P0_Q0"":null,""P0_Q1"":{""violence"":1,""crime"":1,""drug"":2,""schools"":2,""opportunities"":2}}","","","","","","4","[]","","","","",""
"dot matrix survey3","survey","88","498304","0.0-88.0","","656776a7904ae00d6b91d1dd","6568aa79b4e3de66108f4dda","9","","","","","","","","","","","","11931","","{""P0_Q0"":null,""P0_Q1"":{""movein"":2,""moveout"":1,""shopping"":2,""walk"":2,""park"":2,""school"":2}}","","","","","","4","[]","","","","",""
"sliderTrial","html-slider-response","89","502027","0.0-89.0","","656776a7904ae00d6b91d1dd","6568aa79b4e3de66108f4dda","9","","","","","","","","","","","","3721","[""SV_PolicingMSA/NV_754/IMG_4_754.jpg"",""SV_PolicingMSA/NV_754/IMG_1_754.jpg"",""SV_PolicingMSA/NV_754/IMG_6_754.jpg"",""SV_PolicingMSA/NV_754/IMG_2_754.jpg"",""SV_PolicingMSA/NV_754/IMG_10_754.jpg"",""SV_PolicingMSA/NV_754/IMG_8_754.jpg"",""SV_PolicingMSA/NV_754/IMG_14_754.jpg"",""SV_PolicingMSA/NV_754/IMG_0_754.jpg""]","3","","","","","","4","","4","[""./rc_img/cop_condGroup_19_CommunitySafety_autoscaled.png"",""./rc_img/cop_condGroup_19_SafeStreets_autoscaled.png""]","3","",""
"sliderTrial","html-slider-response","90","506802","0.0-90.0","","656776a7904ae00d6b91d1dd","6568aa79b4e3de66108f4dda","9","","","","","","","","","","","","4774","[""SV_PolicingMSA/NV_754/IMG_4_754.jpg"",""SV_PolicingMSA/NV_754/IMG_1_754.jpg"",""SV_PolicingMSA/NV_754/IMG_6_754.jpg"",""SV_PolicingMSA/NV_754/IMG_2_754.jpg"",""SV_PolicingMSA/NV_754/IMG_10_754.jpg"",""SV_PolicingMSA/NV_754/IMG_8_754.jpg"",""SV_PolicingMSA/NV_754/IMG_14_754.jpg"",""SV_PolicingMSA/NV_754/IMG_0_754.jpg""]","5","","","","","","4","","4","[""./rc_img/cop_condGroup_20_SafeStreets_autoscaled.png"",""./rc_img/cop_condGroup_20_CommunitySafety_autoscaled.png""]","3","",""
"sliderTrial","html-slider-response","91","510010","0.0-91.0","","656776a7904ae00d6b91d1dd","6568aa79b4e3de66108f4dda","9","","","","","","","","","","","","3207","[""SV_PolicingMSA/NV_754/IMG_4_754.jpg"",""SV_PolicingMSA/NV_754/IMG_1_754.jpg"",""SV_PolicingMSA/NV_754/IMG_6_754.jpg"",""SV_PolicingMSA/NV_754/IMG_2_754.jpg"",""SV_PolicingMSA/NV_754/IMG_10_754.jpg"",""SV_PolicingMSA/NV_754/IMG_8_754.jpg"",""SV_PolicingMSA/NV_754/IMG_14_754.jpg"",""SV_PolicingMSA/NV_754/IMG_0_754.jpg""]","2","","","","","","4","","4","[""./rc_img/cop_condGroup_17_CommunitySafety_autoscaled.png"",""./rc_img/cop_condGroup_17_SafeStreets_autoscaled.png""]","2","",""
"sliderTrial","html-slider-response","92","513074","0.0-92.0","","656776a7904ae00d6b91d1dd","6568aa79b4e3de66108f4dda","9","","","","","","","","","","","","3063","[""SV_PolicingMSA/NV_754/IMG_4_754.jpg"",""SV_PolicingMSA/NV_754/IMG_1_754.jpg"",""SV_PolicingMSA/NV_754/IMG_6_754.jpg"",""SV_PolicingMSA/NV_754/IMG_2_754.jpg"",""SV_PolicingMSA/NV_754/IMG_10_754.jpg"",""SV_PolicingMSA/NV_754/IMG_8_754.jpg"",""SV_PolicingMSA/NV_754/IMG_14_754.jpg"",""SV_PolicingMSA/NV_754/IMG_0_754.jpg""]","6","","","","","","4","","4","[""./rc_img/cop_condGroup_15_SafeStreets_autoscaled.png"",""./rc_img/cop_condGroup_15_CommunitySafety_autoscaled.png""]","2","",""
"sliderTrial","html-slider-response","93","516210","0.0-93.0","","656776a7904ae00d6b91d1dd","6568aa79b4e3de66108f4dda","9","","","","","","","","","","","","3135","[""SV_PolicingMSA/NV_754/IMG_4_754.jpg"",""SV_PolicingMSA/NV_754/IMG_1_754.jpg"",""SV_PolicingMSA/NV_754/IMG_6_754.jpg"",""SV_PolicingMSA/NV_754/IMG_2_754.jpg"",""SV_PolicingMSA/NV_754/IMG_10_754.jpg"",""SV_PolicingMSA/NV_754/IMG_8_754.jpg"",""SV_PolicingMSA/NV_754/IMG_14_754.jpg"",""SV_PolicingMSA/NV_754/IMG_0_754.jpg""]","2","","","","","","4","","4","[""./rc_img/cop_condGroup_5_CommunitySafety_autoscaled.png"",""./rc_img/cop_condGroup_5_SafeStreets_autoscaled.png""]","2","",""
"before_SVSlide_prompt","html-button-response","94","517435","0.0-94.0","","656776a7904ae00d6b91d1dd","6568aa79b4e3de66108f4dda","9","","","","","","","","","","","","1224","Click [Next] to see the next neighborhood!","0","","","","","","","","","","","",""
"street view slide show","image-button-response","95","518444","0.0-95.0","","656776a7904ae00d6b91d1dd","6568aa79b4e3de66108f4dda","9","","","","","","","","","","","","null","stimulus/SV_PolicingMSA/NV_84/IMG_4_84.jpg","null","","","","","","2","","","","","",""
"street view slide show","image-button-response","96","519459","0.0-96.0","","656776a7904ae00d6b91d1dd","6568aa79b4e3de66108f4dda","9","","","","","","","","","","","","null","stimulus/SV_PolicingMSA/NV_84/IMG_8_84.jpg","null","","","","","","2","","","","","",""
"street view slide show","image-button-response","97","520461","0.0-97.0","","656776a7904ae00d6b91d1dd","6568aa79b4e3de66108f4dda","9","","","","","","","","","","","","null","stimulus/SV_PolicingMSA/NV_84/IMG_5_84.jpg","null","","","","","","2","","","","","",""
"street view slide show","image-button-response","98","521465","0.0-98.0","","656776a7904ae00d6b91d1dd","6568aa79b4e3de66108f4dda","9","","","","","","","","","","","","null","stimulus/SV_PolicingMSA/NV_84/IMG_14_84.jpg","null","","","","","","2","","","","","",""
"street view slide show","image-button-response","99","522482","0.0-99.0","","656776a7904ae00d6b91d1dd","6568aa79b4e3de66108f4dda","9","","","","","","","","","","","","null","stimulus/SV_PolicingMSA/NV_84/IMG_11_84.jpg","null","","","","","","2","","","","","",""
"street view slide show","image-button-response","100","523499","0.0-100.0","","656776a7904ae00d6b91d1dd","6568aa79b4e3de66108f4dda","9","","","","","","","","","","","","null","stimulus/SV_PolicingMSA/NV_84/IMG_0_84.jpg","null","","","","","","2","","","","","",""
"street view slide show","image-button-response","101","524518","0.0-101.0","","656776a7904ae00d6b91d1dd","6568aa79b4e3de66108f4dda","9","","","","","","","","","","","","null","stimulus/SV_PolicingMSA/NV_84/IMG_3_84.jpg","null","","","","","","2","","","","","",""
"street view slide show","image-button-response","102","525534","0.0-102.0","","656776a7904ae00d6b91d1dd","6568aa79b4e3de66108f4dda","9","","","","","","","","","","","","null","stimulus/SV_PolicingMSA/NV_84/IMG_6_84.jpg","null","","","","","","2","","","","","",""
"dot matrix survey1","survey","103","543487","0.0-103.0","","656776a7904ae00d6b91d1dd","6568aa79b4e3de66108f4dda","9","","","","","","","","","","","","17947","","{""P0_Q0"":null,""P0_Q1"":{""wealthy"":2,""safe"":2,""walkable"":2,""traditional"":2,""diverse"":2}}","","","","","","2","[]","","","","",""
"dot matrix survey2","survey","104","553838","0.0-104.0","","656776a7904ae00d6b91d1dd","6568aa79b4e3de66108f4dda","9","","","","","","","","","","","","10347","","{""P0_Q0"":null,""P0_Q1"":{""violence"":2,""crime"":2,""drug"":2,""schools"":2,""opportunities"":2}}","","","","","","2","[]","","","","",""
"dot matrix survey3","survey","105","561632","0.0-105.0","","656776a7904ae00d6b91d1dd","6568aa79b4e3de66108f4dda","9","","","","","","","","","","","","7789","","{""P0_Q0"":null,""P0_Q1"":{""movein"":1,""moveout"":1,""shopping"":1,""walk"":1,""park"":1,""school"":1}}","","","","","","2","[]","","","","",""
"sliderTrial","html-slider-response","106","565538","0.0-106.0","","656776a7904ae00d6b91d1dd","6568aa79b4e3de66108f4dda","9","","","","","","","","","","","","3905","[""SV_PolicingMSA/NV_84/IMG_4_84.jpg"",""SV_PolicingMSA/NV_84/IMG_8_84.jpg"",""SV_PolicingMSA/NV_84/IMG_5_84.jpg"",""SV_PolicingMSA/NV_84/IMG_14_84.jpg"",""SV_PolicingMSA/NV_84/IMG_11_84.jpg"",""SV_PolicingMSA/NV_84/IMG_0_84.jpg"",""SV_PolicingMSA/NV_84/IMG_3_84.jpg"",""SV_PolicingMSA/NV_84/IMG_6_84.jpg""]","3","","","","","","2","","4","[""./rc_img/cop_condGroup_19_CommunitySafety_autoscaled.png"",""./rc_img/cop_condGroup_19_SafeStreets_autoscaled.png""]","3","",""
"sliderTrial","html-slider-response","107","568122","0.0-107.0","","656776a7904ae00d6b91d1dd","6568aa79b4e3de66108f4dda","9","","","","","","","","","","","","2583","[""SV_PolicingMSA/NV_84/IMG_4_84.jpg"",""SV_PolicingMSA/NV_84/IMG_8_84.jpg"",""SV_PolicingMSA/NV_84/IMG_5_84.jpg"",""SV_PolicingMSA/NV_84/IMG_14_84.jpg"",""SV_PolicingMSA/NV_84/IMG_11_84.jpg"",""SV_PolicingMSA/NV_84/IMG_0_84.jpg"",""SV_PolicingMSA/NV_84/IMG_3_84.jpg"",""SV_PolicingMSA/NV_84/IMG_6_84.jpg""]","5","","","","","","2","","4","[""./rc_img/cop_condGroup_20_SafeStreets_autoscaled.png"",""./rc_img/cop_condGroup_20_CommunitySafety_autoscaled.png""]","3","",""
"sliderTrial","html-slider-response","108","571090","0.0-108.0","","656776a7904ae00d6b91d1dd","6568aa79b4e3de66108f4dda","9","","","","","","","","","","","","2967","[""SV_PolicingMSA/NV_84/IMG_4_84.jpg"",""SV_PolicingMSA/NV_84/IMG_8_84.jpg"",""SV_PolicingMSA/NV_84/IMG_5_84.jpg"",""SV_PolicingMSA/NV_84/IMG_14_84.jpg"",""SV_PolicingMSA/NV_84/IMG_11_84.jpg"",""SV_PolicingMSA/NV_84/IMG_0_84.jpg"",""SV_PolicingMSA/NV_84/IMG_3_84.jpg"",""SV_PolicingMSA/NV_84/IMG_6_84.jpg""]","3","","","","","","2","","4","[""./rc_img/cop_condGroup_17_CommunitySafety_autoscaled.png"",""./rc_img/cop_condGroup_17_SafeStreets_autoscaled.png""]","3","",""
"sliderTrial","html-slider-response","109","575114","0.0-109.0","","656776a7904ae00d6b91d1dd","6568aa79b4e3de66108f4dda","9","","","","","","","","","","","","4023","[""SV_PolicingMSA/NV_84/IMG_4_84.jpg"",""SV_PolicingMSA/NV_84/IMG_8_84.jpg"",""SV_PolicingMSA/NV_84/IMG_5_84.jpg"",""SV_PolicingMSA/NV_84/IMG_14_84.jpg"",""SV_PolicingMSA/NV_84/IMG_11_84.jpg"",""SV_PolicingMSA/NV_84/IMG_0_84.jpg"",""SV_PolicingMSA/NV_84/IMG_3_84.jpg"",""SV_PolicingMSA/NV_84/IMG_6_84.jpg""]","5","","","","","","2","","4","[""./rc_img/cop_condGroup_15_SafeStreets_autoscaled.png"",""./rc_img/cop_condGroup_15_CommunitySafety_autoscaled.png""]","3","",""
"sliderTrial","html-slider-response","110","577650","0.0-110.0","","656776a7904ae00d6b91d1dd","6568aa79b4e3de66108f4dda","9","","","","","","","","","","","","2534","[""SV_PolicingMSA/NV_84/IMG_4_84.jpg"",""SV_PolicingMSA/NV_84/IMG_8_84.jpg"",""SV_PolicingMSA/NV_84/IMG_5_84.jpg"",""SV_PolicingMSA/NV_84/IMG_14_84.jpg"",""SV_PolicingMSA/NV_84/IMG_11_84.jpg"",""SV_PolicingMSA/NV_84/IMG_0_84.jpg"",""SV_PolicingMSA/NV_84/IMG_3_84.jpg"",""SV_PolicingMSA/NV_84/IMG_6_84.jpg""]","3","","","","","","2","","4","[""./rc_img/cop_condGroup_5_CommunitySafety_autoscaled.png"",""./rc_img/cop_condGroup_5_SafeStreets_autoscaled.png""]","3","",""
"before_SVSlide_prompt","html-button-response","111","578913","0.0-111.0","","656776a7904ae00d6b91d1dd","6568aa79b4e3de66108f4dda","9","","","","","","","","","","","","1263","Click [Next] to see the next neighborhood!","0","","","","","","","","","","","",""
"street view slide show","image-button-response","112","579921","0.0-112.0","","656776a7904ae00d6b91d1dd","6568aa79b4e3de66108f4dda","9","","","","","","","","","","","","null","stimulus/SV_PolicingMSA/NV_466/IMG_2_466.jpg","null","","","","","","3","","","","","",""
"street view slide show","image-button-response","113","580937","0.0-113.0","","656776a7904ae00d6b91d1dd","6568aa79b4e3de66108f4dda","9","","","","","","","","","","","","null","stimulus/SV_PolicingMSA/NV_466/IMG_0_466.jpg","null","","","","","","3","","","","","",""
"street view slide show","image-button-response","114","581941","0.0-114.0","","656776a7904ae00d6b91d1dd","6568aa79b4e3de66108f4dda","9","","","","","","","","","","","","null","stimulus/SV_PolicingMSA/NV_466/IMG_10_466.jpg","null","","","","","","3","","","","","",""
"street view slide show","image-button-response","115","582959","0.0-115.0","","656776a7904ae00d6b91d1dd","6568aa79b4e3de66108f4dda","9","","","","","","","","","","","","null","stimulus/SV_PolicingMSA/NV_466/IMG_6_466.jpg","null","","","","","","3","","","","","",""
"street view slide show","image-button-response","116","583975","0.0-116.0","","656776a7904ae00d6b91d1dd","6568aa79b4e3de66108f4dda","9","","","","","","","","","","","","null","stimulus/SV_PolicingMSA/NV_466/IMG_1_466.jpg","null","","","","","","3","","","","","",""
"street view slide show","image-button-response","117","584994","0.0-117.0","","656776a7904ae00d6b91d1dd","6568aa79b4e3de66108f4dda","9","","","","","","","","","","","","null","stimulus/SV_PolicingMSA/NV_466/IMG_13_466.jpg","null","","","","","","3","","","","","",""
"street view slide show","image-button-response","118","586008","0.0-118.0","","656776a7904ae00d6b91d1dd","6568aa79b4e3de66108f4dda","9","","","","","","","","","","","","null","stimulus/SV_PolicingMSA/NV_466/IMG_4_466.jpg","null","","","","","","3","","","","","",""
"street view slide show","image-button-response","119","587011","0.0-119.0","","656776a7904ae00d6b91d1dd","6568aa79b4e3de66108f4dda","9","","","","","","","","","","","","null","stimulus/SV_PolicingMSA/NV_466/IMG_5_466.jpg","null","","","","","","3","","","","","",""
"dot matrix survey1","survey","120","597727","0.0-120.0","","656776a7904ae00d6b91d1dd","6568aa79b4e3de66108f4dda","9","","","","","","","","","","","","10696","","{""P0_Q0"":null,""P0_Q1"":{""wealthy"":3,""safe"":2,""walkable"":2,""traditional"":2,""diverse"":2}}","","","","","","3","[]","","","","",""
"dot matrix survey2","survey","121","605439","0.0-121.0","","656776a7904ae00d6b91d1dd","6568aa79b4e3de66108f4dda","9","","","","","","","","","","","","7709","","{""P0_Q0"":null,""P0_Q1"":{""violence"":2,""crime"":2,""schools"":2,""opportunities"":2,""drug"":2}}","","","","","","3","[]","","","","",""
"dot matrix survey3","survey","122","610824","0.0-122.0","","656776a7904ae00d6b91d1dd","6568aa79b4e3de66108f4dda","9","","","","","","","","","","","","5380","","{""P0_Q0"":null,""P0_Q1"":{""movein"":1,""moveout"":1,""shopping"":1,""walk"":1,""park"":1,""school"":1}}","","","","","","3","[]","","","","",""
"sliderTrial","html-slider-response","123","614194","0.0-123.0","","656776a7904ae00d6b91d1dd","6568aa79b4e3de66108f4dda","9","","","","","","","","","","","","3368","[""SV_PolicingMSA/NV_466/IMG_2_466.jpg"",""SV_PolicingMSA/NV_466/IMG_0_466.jpg"",""SV_PolicingMSA/NV_466/IMG_10_466.jpg"",""SV_PolicingMSA/NV_466/IMG_6_466.jpg"",""SV_PolicingMSA/NV_466/IMG_1_466.jpg"",""SV_PolicingMSA/NV_466/IMG_13_466.jpg"",""SV_PolicingMSA/NV_466/IMG_4_466.jpg"",""SV_PolicingMSA/NV_466/IMG_5_466.jpg""]","3","","","","","","3","","4","[""./rc_img/cop_condGroup_4_CommunitySafety_autoscaled.png"",""./rc_img/cop_condGroup_4_SafeStreets_autoscaled.png""]","3","",""
"sliderTrial","html-slider-response","124","616474","0.0-124.0","","656776a7904ae00d6b91d1dd","6568aa79b4e3de66108f4dda","9","","","","","","","","","","","","2279","[""SV_PolicingMSA/NV_466/IMG_2_466.jpg"",""SV_PolicingMSA/NV_466/IMG_0_466.jpg"",""SV_PolicingMSA/NV_466/IMG_10_466.jpg"",""SV_PolicingMSA/NV_466/IMG_6_466.jpg"",""SV_PolicingMSA/NV_466/IMG_1_466.jpg"",""SV_PolicingMSA/NV_466/IMG_13_466.jpg"",""SV_PolicingMSA/NV_466/IMG_4_466.jpg"",""SV_PolicingMSA/NV_466/IMG_5_466.jpg""]","5","","","","","","3","","4","[""./rc_img/cop_condGroup_13_SafeStreets_autoscaled.png"",""./rc_img/cop_condGroup_13_CommunitySafety_autoscaled.png""]","3","",""
"sliderTrial","html-slider-response","125","619354","0.0-125.0","","656776a7904ae00d6b91d1dd","6568aa79b4e3de66108f4dda","9","","","","","","","","","","","","2878","[""SV_PolicingMSA/NV_466/IMG_2_466.jpg"",""SV_PolicingMSA/NV_466/IMG_0_466.jpg"",""SV_PolicingMSA/NV_466/IMG_10_466.jpg"",""SV_PolicingMSA/NV_466/IMG_6_466.jpg"",""SV_PolicingMSA/NV_466/IMG_1_466.jpg"",""SV_PolicingMSA/NV_466/IMG_13_466.jpg"",""SV_PolicingMSA/NV_466/IMG_4_466.jpg"",""SV_PolicingMSA/NV_466/IMG_5_466.jpg""]","5","","","","","","3","","4","[""./rc_img/cop_condGroup_10_SafeStreets_autoscaled.png"",""./rc_img/cop_condGroup_10_CommunitySafety_autoscaled.png""]","3","",""
"sliderTrial","html-slider-response","126","621387","0.0-126.0","","656776a7904ae00d6b91d1dd","6568aa79b4e3de66108f4dda","9","","","","","","","","","","","","2032","[""SV_PolicingMSA/NV_466/IMG_2_466.jpg"",""SV_PolicingMSA/NV_466/IMG_0_466.jpg"",""SV_PolicingMSA/NV_466/IMG_10_466.jpg"",""SV_PolicingMSA/NV_466/IMG_6_466.jpg"",""SV_PolicingMSA/NV_466/IMG_1_466.jpg"",""SV_PolicingMSA/NV_466/IMG_13_466.jpg"",""SV_PolicingMSA/NV_466/IMG_4_466.jpg"",""SV_PolicingMSA/NV_466/IMG_5_466.jpg""]","2","","","","","","3","","4","[""./rc_img/cop_condGroup_6_CommunitySafety_autoscaled.png"",""./rc_img/cop_condGroup_6_SafeStreets_autoscaled.png""]","2","",""
"sliderTrial","html-slider-response","127","624170","0.0-127.0","","656776a7904ae00d6b91d1dd","6568aa79b4e3de66108f4dda","9","","","","","","","","","","","","2782","[""SV_PolicingMSA/NV_466/IMG_2_466.jpg"",""SV_PolicingMSA/NV_466/IMG_0_466.jpg"",""SV_PolicingMSA/NV_466/IMG_10_466.jpg"",""SV_PolicingMSA/NV_466/IMG_6_466.jpg"",""SV_PolicingMSA/NV_466/IMG_1_466.jpg"",""SV_PolicingMSA/NV_466/IMG_13_466.jpg"",""SV_PolicingMSA/NV_466/IMG_4_466.jpg"",""SV_PolicingMSA/NV_466/IMG_5_466.jpg""]","3","","","","","","3","","4","[""./rc_img/cop_condGroup_9_CommunitySafety_autoscaled.png"",""./rc_img/cop_condGroup_9_SafeStreets_autoscaled.png""]","3","",""
"before_SVSlide_prompt","html-button-response","128","625475","0.0-128.0","","656776a7904ae00d6b91d1dd","6568aa79b4e3de66108f4dda","9","","","","","","","","","","","","1304","Click [Next] to see the next neighborhood!","0","","","","","","","","","","","",""
"street view slide show","image-button-response","129","626484","0.0-129.0","","656776a7904ae00d6b91d1dd","6568aa79b4e3de66108f4dda","9","","","","","","","","","","","","null","stimulus/SV_PolicingMSA/NV_329/IMG_12_329.jpg","null","","","","","","2","","","","","",""
"street view slide show","image-button-response","130","627502","0.0-130.0","","656776a7904ae00d6b91d1dd","6568aa79b4e3de66108f4dda","9","","","","","","","","","","","","null","stimulus/SV_PolicingMSA/NV_329/IMG_6_329.jpg","null","","","","","","2","","","","","",""
"street view slide show","image-button-response","131","628504","0.0-131.0","","656776a7904ae00d6b91d1dd","6568aa79b4e3de66108f4dda","9","","","","","","","","","","","","null","stimulus/SV_PolicingMSA/NV_329/IMG_2_329.jpg","null","","","","","","2","","","","","",""
"street view slide show","image-button-response","132","629520","0.0-132.0","","656776a7904ae00d6b91d1dd","6568aa79b4e3de66108f4dda","9","","","","","","","","","","","","null","stimulus/SV_PolicingMSA/NV_329/IMG_10_329.jpg","null","","","","","","2","","","","","",""
"street view slide show","image-button-response","133","630523","0.0-133.0","","656776a7904ae00d6b91d1dd","6568aa79b4e3de66108f4dda","9","","","","","","","","","","","","null","stimulus/SV_PolicingMSA/NV_329/IMG_0_329.jpg","null","","","","","","2","","","","","",""
"street view slide show","image-button-response","134","631537","0.0-134.0","","656776a7904ae00d6b91d1dd","6568aa79b4e3de66108f4dda","9","","","","","","","","","","","","null","stimulus/SV_PolicingMSA/NV_329/IMG_13_329.jpg","null","","","","","","2","","","","","",""
"street view slide show","image-button-response","135","632540","0.0-135.0","","656776a7904ae00d6b91d1dd","6568aa79b4e3de66108f4dda","9","","","","","","","","","","","","null","stimulus/SV_PolicingMSA/NV_329/IMG_14_329.jpg","null","","","","","","2","","","","","",""
"street view slide show","image-button-response","136","633543","0.0-136.0","","656776a7904ae00d6b91d1dd","6568aa79b4e3de66108f4dda","9","","","","","","","","","","","","null","stimulus/SV_PolicingMSA/NV_329/IMG_1_329.jpg","null","","","","","","2","","","","","",""
"dot matrix survey1","survey","137","651448","0.0-137.0","","656776a7904ae00d6b91d1dd","6568aa79b4e3de66108f4dda","9","","","","","","","","","","","","17894","","{""P0_Q0"":null,""P0_Q1"":{""wealthy"":2,""safe"":2,""traditional"":2,""walkable"":2,""diverse"":2}}","","","","","","2","[]","","","","",""
"dot matrix survey2","survey","138","658848","0.0-138.0","","656776a7904ae00d6b91d1dd","6568aa79b4e3de66108f4dda","9","","","","","","","","","","","","7396","","{""P0_Q0"":null,""P0_Q1"":{""violence"":2,""crime"":2,""drug"":2,""schools"":2,""opportunities"":2}}","","","","","","2","[]","","","","",""
"dot matrix survey3","survey","139","665190","0.0-139.0","","656776a7904ae00d6b91d1dd","6568aa79b4e3de66108f4dda","9","","","","","","","","","","","","6338","","{""P0_Q0"":null,""P0_Q1"":{""movein"":1,""moveout"":1,""shopping"":1,""walk"":1,""park"":1,""school"":1}}","","","","","","2","[]","","","","",""
"sliderTrial","html-slider-response","140","667658","0.0-140.0","","656776a7904ae00d6b91d1dd","6568aa79b4e3de66108f4dda","9","","","","","","","","","","","","2466","[""SV_PolicingMSA/NV_329/IMG_12_329.jpg"",""SV_PolicingMSA/NV_329/IMG_6_329.jpg"",""SV_PolicingMSA/NV_329/IMG_2_329.jpg"",""SV_PolicingMSA/NV_329/IMG_10_329.jpg"",""SV_PolicingMSA/NV_329/IMG_0_329.jpg"",""SV_PolicingMSA/NV_329/IMG_13_329.jpg"",""SV_PolicingMSA/NV_329/IMG_14_329.jpg"",""SV_PolicingMSA/NV_329/IMG_1_329.jpg""]","5","","","","","","2","","4","[""./rc_img/cop_condGroup_11_SafeStreets_autoscaled.png"",""./rc_img/cop_condGroup_11_CommunitySafety_autoscaled.png""]","3","",""
"sliderTrial","html-slider-response","141","670690","0.0-141.0","","656776a7904ae00d6b91d1dd","6568aa79b4e3de66108f4dda","9","","","","","","","","","","","","3032","[""SV_PolicingMSA/NV_329/IMG_12_329.jpg"",""SV_PolicingMSA/NV_329/IMG_6_329.jpg"",""SV_PolicingMSA/NV_329/IMG_2_329.jpg"",""SV_PolicingMSA/NV_329/IMG_10_329.jpg"",""SV_PolicingMSA/NV_329/IMG_0_329.jpg"",""SV_PolicingMSA/NV_329/IMG_13_329.jpg"",""SV_PolicingMSA/NV_329/IMG_14_329.jpg"",""SV_PolicingMSA/NV_329/IMG_1_329.jpg""]","5","","","","","","2","","4","[""./rc_img/cop_condGroup_3_SafeStreets_autoscaled.png"",""./rc_img/cop_condGroup_3_CommunitySafety_autoscaled.png""]","3","",""
"sliderTrial","html-slider-response","142","674658","0.0-142.0","","656776a7904ae00d6b91d1dd","6568aa79b4e3de66108f4dda","9","","","","","","","","","","","","3967","[""SV_PolicingMSA/NV_329/IMG_12_329.jpg"",""SV_PolicingMSA/NV_329/IMG_6_329.jpg"",""SV_PolicingMSA/NV_329/IMG_2_329.jpg"",""SV_PolicingMSA/NV_329/IMG_10_329.jpg"",""SV_PolicingMSA/NV_329/IMG_0_329.jpg"",""SV_PolicingMSA/NV_329/IMG_13_329.jpg"",""SV_PolicingMSA/NV_329/IMG_14_329.jpg"",""SV_PolicingMSA/NV_329/IMG_1_329.jpg""]","5","","","","","","2","","4","[""./rc_img/cop_condGroup_7_SafeStreets_autoscaled.png"",""./rc_img/cop_condGroup_7_CommunitySafety_autoscaled.png""]","3","",""
"sliderTrial","html-slider-response","143","677305","0.0-143.0","","656776a7904ae00d6b91d1dd","6568aa79b4e3de66108f4dda","9","","","","","","","","","","","","2646","[""SV_PolicingMSA/NV_329/IMG_12_329.jpg"",""SV_PolicingMSA/NV_329/IMG_6_329.jpg"",""SV_PolicingMSA/NV_329/IMG_2_329.jpg"",""SV_PolicingMSA/NV_329/IMG_10_329.jpg"",""SV_PolicingMSA/NV_329/IMG_0_329.jpg"",""SV_PolicingMSA/NV_329/IMG_13_329.jpg"",""SV_PolicingMSA/NV_329/IMG_14_329.jpg"",""SV_PolicingMSA/NV_329/IMG_1_329.jpg""]","3","","","","","","2","","4","[""./rc_img/cop_condGroup_16_CommunitySafety_autoscaled.png"",""./rc_img/cop_condGroup_16_SafeStreets_autoscaled.png""]","3","",""
"sliderTrial","html-slider-response","144","679842","0.0-144.0","","656776a7904ae00d6b91d1dd","6568aa79b4e3de66108f4dda","9","","","","","","","","","","","","2535","[""SV_PolicingMSA/NV_329/IMG_12_329.jpg"",""SV_PolicingMSA/NV_329/IMG_6_329.jpg"",""SV_PolicingMSA/NV_329/IMG_2_329.jpg"",""SV_PolicingMSA/NV_329/IMG_10_329.jpg"",""SV_PolicingMSA/NV_329/IMG_0_329.jpg"",""SV_PolicingMSA/NV_329/IMG_13_329.jpg"",""SV_PolicingMSA/NV_329/IMG_14_329.jpg"",""SV_PolicingMSA/NV_329/IMG_1_329.jpg""]","3","","","","","","2","","4","[""./rc_img/cop_condGroup_12_CommunitySafety_autoscaled.png"",""./rc_img/cop_condGroup_12_SafeStreets_autoscaled.png""]","3","",""
"demographics","survey-html-form","145","697483","0.0-145.0","","656776a7904ae00d6b91d1dd","6568aa79b4e3de66108f4dda","9","","","","","","","","","","","","17640","","{""age"":""57"",""sex"":""female"",""gender"":""woman"",""gender-self-describe"":"""",""zipcode"":""53511""}","","","","","","","","","","","",""
"demographics-list","survey","146","731839","0.0-146.0","","656776a7904ae00d6b91d1dd","6568aa79b4e3de66108f4dda","9","","","","","","","","","","","","34336","","{""P0_Q0"":null,""race-ethnicity"":[""Middle Eastern"",""White or of European ancestry""],""education"":""High school diploma or equivalent"",""P1_Q0"":null,""ideology"":""Liberal"",""P2_Q0"":null,""num-moves"":5,""P3_Q0"":null,""social-ladder"":6}","","","","","","","[]","","","","",""
"end-survey","survey-text","147","740729","0.0-147.0","","656776a7904ae00d6b91d1dd","6568aa79b4e3de66108f4dda","9","","","","","","","","","","","","8884","","{""Q0"":""good survey""}","","","","","","","","","","","","2"
"end-survey","html-button-response","148","744858","0.0-148.0","","656776a7904ae00d6b91d1dd","6568aa79b4e3de66108f4dda","9","","","","","","","","","","","","4128","
    You've reached the end of the survey. <br><br> 
    <b>Do not close or refresh this window.</b><br>
    On the next page, you will be automatically redirected to Prolific. <br><br>

    <div class=""alert alert-warning""><b>
    </div>
","0","","","","","","","","","","","",""
