"task","trial_type","trial_index","time_elapsed","internal_node_id","subject_id","study_id","session_id","section","width","height","webaudio","browser","browser_version","mobile","os","fullscreen","vsync_rate","webcam","microphone","rt","stimulus","response","success","timeout","failed_images","failed_audio","failed_video","block","accuracy","slider_start","choices","standardized_response","correct","num_attention_checks_correct"
"pavlovia-init","pavlovia","0","1289","0.0-0.0","","656776a7904ae00d6b91d1dd","6568adea5ce04c53521c3e94","15","","","","","","","","","","","","","","","","","","","","","","","","","",""
"browser-check","browser-check","1","31537","0.0-1.0","","656776a7904ae00d6b91d1dd","6568adea5ce04c53521c3e94","15","1920","955","true","chrome","119.0.0","false","Windows 10","true","60.36","true","true","","","","","","","","","","","","","","",""
"consent","html-button-response","2","43614","0.0-2.0","","656776a7904ae00d6b91d1dd","6568adea5ce04c53521c3e94","15","","","","","","","","","","","","12076","
        <div style=""font-size: 80%; max-width:700px"">
            <h2>CONSENT FORM</h2>
        
            <div style=""text-align: left"">
            <h4>DESCRIPTION</h4>
            <p>
            You will complete a short task where you give your impressions of various neighborhoods and assign individuals to those spaces, and answer some questions about your thoughts and opinions.<br>
            The University of Michigan Institutional Review Board Health Sciences and Behavioral Sciences has determined that this study is exempt from IRB oversight.
            </p>

            <h4>TIME INVOLVEMENT</h4>
            <p>Your participation will take approximately 15 minutes. You will receive $3.15 upon completion of the study.</p>
        
            <h4>RISKS AND BENEFITS</h4>
            <p>
            The risks associated with this study are minimal. The benefits which may reasonably be expected to result from this study are none. We cannot and do not guarantee or promise that you will receive any benefits from this study.
            </p>
          
            <h4>SUBJECT'S RIGHTS</h4>
            <p>
            If you have read this form and have decided to participate in this project, please understand your participation is voluntary and you have the right to withdraw your consent or discontinue participation at any time without penalty or loss of benefits to which you are otherwise entitled. The alternative is not to participate. You have the right to refuse to answer particular questions. Your individual privacy will be maintained in all published and written data resulting from the study.
            </p>

            <h4>HUMAN SUBJECT APPROVAL</h4>
            <p>
            This study is exempt from ongoing IRB review.
            </p>

            <h4>CONTACT INFORMATION</h4>
            If you have any questions, concerns or complaints about this research, its procedures, risks and benefits, contact the Protocol Director, Nicholas Camp, npcamp@umich.edu, (443) 851-6783. <br>

            If you have questions about your rights as a research participant, or wish to obtain information, ask questions or discuss any concerns about this study with someone other than the researcher(s), please contact the following:<br><br>
            University of Michigan<br>
            Health Sciences and Behavioral Sciences Institutional Review Board (IRB-HSBS)<br>
            2800 Plymouth Road<br>
            Building 520, Room 1169Ann Arbor, MI 48109-2800<br>
            Telephone: 734-936-0933 or toll free (866) 936-0933<br>
            Fax: 734-936-1852<br>
            E-mail: irbhsbs@umich.edu<br><br>

            You can also contact the University of Michigan Compliance Hotline at 1-866-990-0111. You may also print this consent form to keep.
            <br><br>
            <div class=""alert alert-warning""><b>
            Do you consent to participate in this study? If you consent to participate in this study, please click “Accept and Continue”. If you select ""Decline and Exit"", you will be exited from the survey. <br>
            </b></div>
            </div>
        </div>
    ","1","","","","","","","","","","","",""
"","preload","3","45637","0.0-3.0","","656776a7904ae00d6b91d1dd","6568adea5ce04c53521c3e94","15","","","","","","","","","","","","","","","true","false","[]","[]","[]","","","","","","",""
"instructions","html-button-response","4","68418","0.0-4.0","","656776a7904ae00d6b91d1dd","6568adea5ce04c53521c3e94","15","","","","","","","","","","","","22780","
        <div class=""text-container"">
        <h1>Welcome to the study!</h1>
        
        <div class=""text-left"">
            <p>
                In this study, we are interested in what people can tell about spaces from Google Street View images. <br> Google Street View takes pictures of streets used for Google Earth and Google Maps. <br>You’ll see Google Street View images of different places and answer some questions about each one.<br>
            </p>
        </div>
        <img src = ""assets/img/example.png"" width = 500px, height = auto>
        <br>
    <br>
    ","0","","","","","","","","","","","",""
"instructions","html-button-response","5","74096","0.0-5.0","","656776a7904ae00d6b91d1dd","6568adea5ce04c53521c3e94","15","","","","","","","","","","","","5677","
    <div class=""text-container"">
        <div class=""text-center"">
            <p>Please remember that your answers are completely anonymous.<br>Go with your gut response- there are no right or wrong answers!</p>
        </div>
    <br>
","0","","","","","","","","","","","",""
"before_SVSlide_prompt","html-button-response","6","75890","0.0-6.0","","656776a7904ae00d6b91d1dd","6568adea5ce04c53521c3e94","15","","","","","","","","","","","","1794","Click [Next] to see the next neighborhood!","0","","","","","","","","","","","",""
"street view slide show","image-button-response","7","76893","0.0-7.0","","656776a7904ae00d6b91d1dd","6568adea5ce04c53521c3e94","15","","","","","","","","","","","","null","stimulus/SV_PolicingMSA/MA_159/IMG_7_159.jpg","null","","","","","","4","","","","","",""
"street view slide show","image-button-response","8","77902","0.0-8.0","","656776a7904ae00d6b91d1dd","6568adea5ce04c53521c3e94","15","","","","","","","","","","","","null","stimulus/SV_PolicingMSA/MA_159/IMG_14_159.jpg","null","","","","","","4","","","","","",""
"street view slide show","image-button-response","9","78914","0.0-9.0","","656776a7904ae00d6b91d1dd","6568adea5ce04c53521c3e94","15","","","","","","","","","","","","null","stimulus/SV_PolicingMSA/MA_159/IMG_4_159.jpg","null","","","","","","4","","","","","",""
"street view slide show","image-button-response","10","79920","0.0-10.0","","656776a7904ae00d6b91d1dd","6568adea5ce04c53521c3e94","15","","","","","","","","","","","","null","stimulus/SV_PolicingMSA/MA_159/IMG_11_159.jpg","null","","","","","","4","","","","","",""
"street view slide show","image-button-response","11","80934","0.0-11.0","","656776a7904ae00d6b91d1dd","6568adea5ce04c53521c3e94","15","","","","","","","","","","","","null","stimulus/SV_PolicingMSA/MA_159/IMG_10_159.jpg","null","","","","","","4","","","","","",""
"street view slide show","image-button-response","12","81936","0.0-12.0","","656776a7904ae00d6b91d1dd","6568adea5ce04c53521c3e94","15","","","","","","","","","","","","null","stimulus/SV_PolicingMSA/MA_159/IMG_5_159.jpg","null","","","","","","4","","","","","",""
"street view slide show","image-button-response","13","82951","0.0-13.0","","656776a7904ae00d6b91d1dd","6568adea5ce04c53521c3e94","15","","","","","","","","","","","","null","stimulus/SV_PolicingMSA/MA_159/IMG_13_159.jpg","null","","","","","","4","","","","","",""
"street view slide show","image-button-response","14","83966","0.0-14.0","","656776a7904ae00d6b91d1dd","6568adea5ce04c53521c3e94","15","","","","","","","","","","","","null","stimulus/SV_PolicingMSA/MA_159/IMG_9_159.jpg","null","","","","","","4","","","","","",""
"dot matrix survey1","survey","15","100139","0.0-15.0","","656776a7904ae00d6b91d1dd","6568adea5ce04c53521c3e94","15","","","","","","","","","","","","16131","","{""P0_Q0"":null,""P0_Q1"":{""wealthy"":3,""safe"":3,""walkable"":2,""traditional"":3,""diverse"":1}}","","","","","","4","[]","","","","",""
"dot matrix survey2","survey","16","112245","0.0-16.0","","656776a7904ae00d6b91d1dd","6568adea5ce04c53521c3e94","15","","","","","","","","","","","","12099","","{""P0_Q0"":null,""P0_Q1"":{""violence"":0,""drug"":0,""crime"":0,""schools"":2,""opportunities"":2}}","","","","","","4","[]","","","","",""
"dot matrix survey3","survey","17","128363","0.0-17.0","","656776a7904ae00d6b91d1dd","6568adea5ce04c53521c3e94","15","","","","","","","","","","","","16110","","{""P0_Q0"":null,""P0_Q1"":{""movein"":4,""moveout"":1,""shopping"":3,""walk"":3,""park"":3,""school"":3}}","","","","","","4","[]","","","","",""
"sliderTrial","html-slider-response","18","137524","0.0-18.0","","656776a7904ae00d6b91d1dd","6568adea5ce04c53521c3e94","15","","","","","","","","","","","","9160","[""SV_PolicingMSA/MA_159/IMG_7_159.jpg"",""SV_PolicingMSA/MA_159/IMG_14_159.jpg"",""SV_PolicingMSA/MA_159/IMG_4_159.jpg"",""SV_PolicingMSA/MA_159/IMG_11_159.jpg"",""SV_PolicingMSA/MA_159/IMG_10_159.jpg"",""SV_PolicingMSA/MA_159/IMG_5_159.jpg"",""SV_PolicingMSA/MA_159/IMG_13_159.jpg"",""SV_PolicingMSA/MA_159/IMG_9_159.jpg""]","2","","","","","","4","","4","[""./rc_img/cop_condGroup_18_CommunitySafety_autoscaled.png"",""./rc_img/cop_condGroup_18_SafeStreets_autoscaled.png""]","2","",""
"sliderTrial","html-slider-response","19","144557","0.0-19.0","","656776a7904ae00d6b91d1dd","6568adea5ce04c53521c3e94","15","","","","","","","","","","","","7032","[""SV_PolicingMSA/MA_159/IMG_7_159.jpg"",""SV_PolicingMSA/MA_159/IMG_14_159.jpg"",""SV_PolicingMSA/MA_159/IMG_4_159.jpg"",""SV_PolicingMSA/MA_159/IMG_11_159.jpg"",""SV_PolicingMSA/MA_159/IMG_10_159.jpg"",""SV_PolicingMSA/MA_159/IMG_5_159.jpg"",""SV_PolicingMSA/MA_159/IMG_13_159.jpg"",""SV_PolicingMSA/MA_159/IMG_9_159.jpg""]","7","","","","","","4","","4","[""./rc_img/cop_condGroup_14_SafeStreets_autoscaled.png"",""./rc_img/cop_condGroup_14_CommunitySafety_autoscaled.png""]","1","",""
"sliderTrial","html-slider-response","20","148514","0.0-20.0","","656776a7904ae00d6b91d1dd","6568adea5ce04c53521c3e94","15","","","","","","","","","","","","3955","[""SV_PolicingMSA/MA_159/IMG_7_159.jpg"",""SV_PolicingMSA/MA_159/IMG_14_159.jpg"",""SV_PolicingMSA/MA_159/IMG_4_159.jpg"",""SV_PolicingMSA/MA_159/IMG_11_159.jpg"",""SV_PolicingMSA/MA_159/IMG_10_159.jpg"",""SV_PolicingMSA/MA_159/IMG_5_159.jpg"",""SV_PolicingMSA/MA_159/IMG_13_159.jpg"",""SV_PolicingMSA/MA_159/IMG_9_159.jpg""]","1","","","","","","4","","4","[""./rc_img/cop_condGroup_11_CommunitySafety_autoscaled.png"",""./rc_img/cop_condGroup_11_SafeStreets_autoscaled.png""]","1","",""
"sliderTrial","html-slider-response","21","152108","0.0-21.0","","656776a7904ae00d6b91d1dd","6568adea5ce04c53521c3e94","15","","","","","","","","","","","","3593","[""SV_PolicingMSA/MA_159/IMG_7_159.jpg"",""SV_PolicingMSA/MA_159/IMG_14_159.jpg"",""SV_PolicingMSA/MA_159/IMG_4_159.jpg"",""SV_PolicingMSA/MA_159/IMG_11_159.jpg"",""SV_PolicingMSA/MA_159/IMG_10_159.jpg"",""SV_PolicingMSA/MA_159/IMG_5_159.jpg"",""SV_PolicingMSA/MA_159/IMG_13_159.jpg"",""SV_PolicingMSA/MA_159/IMG_9_159.jpg""]","3","","","","","","4","","4","[""./rc_img/cop_condGroup_17_CommunitySafety_autoscaled.png"",""./rc_img/cop_condGroup_17_SafeStreets_autoscaled.png""]","3","",""
"sliderTrial","html-slider-response","22","155410","0.0-22.0","","656776a7904ae00d6b91d1dd","6568adea5ce04c53521c3e94","15","","","","","","","","","","","","3300","[""SV_PolicingMSA/MA_159/IMG_7_159.jpg"",""SV_PolicingMSA/MA_159/IMG_14_159.jpg"",""SV_PolicingMSA/MA_159/IMG_4_159.jpg"",""SV_PolicingMSA/MA_159/IMG_11_159.jpg"",""SV_PolicingMSA/MA_159/IMG_10_159.jpg"",""SV_PolicingMSA/MA_159/IMG_5_159.jpg"",""SV_PolicingMSA/MA_159/IMG_13_159.jpg"",""SV_PolicingMSA/MA_159/IMG_9_159.jpg""]","2","","","","","","4","","4","[""./rc_img/cop_condGroup_10_CommunitySafety_autoscaled.png"",""./rc_img/cop_condGroup_10_SafeStreets_autoscaled.png""]","2","",""
"before_SVSlide_prompt","html-button-response","23","157098","0.0-23.0","","656776a7904ae00d6b91d1dd","6568adea5ce04c53521c3e94","15","","","","","","","","","","","","1687","Click [Next] to see the next neighborhood!","0","","","","","","","","","","","",""
"street view slide show","image-button-response","24","158105","0.0-24.0","","656776a7904ae00d6b91d1dd","6568adea5ce04c53521c3e94","15","","","","","","","","","","","","null","stimulus/SV_PolicingMSA/MA_185/IMG_13_185.jpg","null","","","","","","0","","","","","",""
"street view slide show","image-button-response","25","159106","0.0-25.0","","656776a7904ae00d6b91d1dd","6568adea5ce04c53521c3e94","15","","","","","","","","","","","","null","stimulus/SV_PolicingMSA/MA_185/IMG_1_185.jpg","null","","","","","","0","","","","","",""
"street view slide show","image-button-response","26","160122","0.0-26.0","","656776a7904ae00d6b91d1dd","6568adea5ce04c53521c3e94","15","","","","","","","","","","","","null","stimulus/SV_PolicingMSA/MA_185/IMG_8_185.jpg","null","","","","","","0","","","","","",""
"street view slide show","image-button-response","27","161138","0.0-27.0","","656776a7904ae00d6b91d1dd","6568adea5ce04c53521c3e94","15","","","","","","","","","","","","null","stimulus/SV_PolicingMSA/MA_185/IMG_5_185.jpg","null","","","","","","0","","","","","",""
"street view slide show","image-button-response","28","162152","0.0-28.0","","656776a7904ae00d6b91d1dd","6568adea5ce04c53521c3e94","15","","","","","","","","","","","","null","stimulus/SV_PolicingMSA/MA_185/IMG_6_185.jpg","null","","","","","","0","","","","","",""
"street view slide show","image-button-response","29","163169","0.0-29.0","","656776a7904ae00d6b91d1dd","6568adea5ce04c53521c3e94","15","","","","","","","","","","","","null","stimulus/SV_PolicingMSA/MA_185/IMG_11_185.jpg","null","","","","","","0","","","","","",""
"street view slide show","image-button-response","30","164180","0.0-30.0","","656776a7904ae00d6b91d1dd","6568adea5ce04c53521c3e94","15","","","","","","","","","","","","null","stimulus/SV_PolicingMSA/MA_185/IMG_2_185.jpg","null","","","","","","0","","","","","",""
"street view slide show","image-button-response","31","165184","0.0-31.0","","656776a7904ae00d6b91d1dd","6568adea5ce04c53521c3e94","15","","","","","","","","","","","","null","stimulus/SV_PolicingMSA/MA_185/IMG_3_185.jpg","null","","","","","","0","","","","","",""
"dot matrix survey1","survey","32","174001","0.0-32.0","","656776a7904ae00d6b91d1dd","6568adea5ce04c53521c3e94","15","","","","","","","","","","","","8810","","{""P0_Q0"":null,""P0_Q1"":{""wealthy"":1,""safe"":1,""walkable"":1,""traditional"":2,""diverse"":2}}","","","","","","0","[]","","","","",""
"dot matrix survey2","survey","33","186640","0.0-33.0","","656776a7904ae00d6b91d1dd","6568adea5ce04c53521c3e94","15","","","","","","","","","","","","12633","","{""P0_Q0"":null,""P0_Q1"":{""violence"":3,""drug"":3,""schools"":0,""crime"":3,""opportunities"":0}}","","","","","","0","[]","","","","",""
"dot matrix survey3","survey","34","199423","0.0-34.0","","656776a7904ae00d6b91d1dd","6568adea5ce04c53521c3e94","15","","","","","","","","","","","","12777","","{""P0_Q0"":null,""P0_Q1"":{""movein"":0,""moveout"":3,""shopping"":0,""walk"":0,""park"":0,""school"":0}}","","","","","","0","[]","","","","",""
"sliderTrial","html-slider-response","35","205624","0.0-35.0","","656776a7904ae00d6b91d1dd","6568adea5ce04c53521c3e94","15","","","","","","","","","","","","6200","[""SV_PolicingMSA/MA_185/IMG_13_185.jpg"",""SV_PolicingMSA/MA_185/IMG_1_185.jpg"",""SV_PolicingMSA/MA_185/IMG_8_185.jpg"",""SV_PolicingMSA/MA_185/IMG_5_185.jpg"",""SV_PolicingMSA/MA_185/IMG_6_185.jpg"",""SV_PolicingMSA/MA_185/IMG_11_185.jpg"",""SV_PolicingMSA/MA_185/IMG_2_185.jpg"",""SV_PolicingMSA/MA_185/IMG_3_185.jpg""]","3","","","","","","0","","4","[""./rc_img/cop_condGroup_16_CommunitySafety_autoscaled.png"",""./rc_img/cop_condGroup_16_SafeStreets_autoscaled.png""]","3","",""
"sliderTrial","html-slider-response","36","207589","0.0-36.0","","656776a7904ae00d6b91d1dd","6568adea5ce04c53521c3e94","15","","","","","","","","","","","","1963","[""SV_PolicingMSA/MA_185/IMG_13_185.jpg"",""SV_PolicingMSA/MA_185/IMG_1_185.jpg"",""SV_PolicingMSA/MA_185/IMG_8_185.jpg"",""SV_PolicingMSA/MA_185/IMG_5_185.jpg"",""SV_PolicingMSA/MA_185/IMG_6_185.jpg"",""SV_PolicingMSA/MA_185/IMG_11_185.jpg"",""SV_PolicingMSA/MA_185/IMG_2_185.jpg"",""SV_PolicingMSA/MA_185/IMG_3_185.jpg""]","6","","","","","","0","","4","[""./rc_img/cop_condGroup_19_SafeStreets_autoscaled.png"",""./rc_img/cop_condGroup_19_CommunitySafety_autoscaled.png""]","2","",""
"sliderTrial_attention","html-slider-response","37","217594","0.0-37.0","","656776a7904ae00d6b91d1dd","6568adea5ce04c53521c3e94","15","","","","","","","","","","","","null","[""SV_PolicingMSA/MA_185/IMG_13_185.jpg"",""SV_PolicingMSA/MA_185/IMG_1_185.jpg"",""SV_PolicingMSA/MA_185/IMG_8_185.jpg"",""SV_PolicingMSA/MA_185/IMG_5_185.jpg"",""SV_PolicingMSA/MA_185/IMG_6_185.jpg"",""SV_PolicingMSA/MA_185/IMG_11_185.jpg"",""SV_PolicingMSA/MA_185/IMG_2_185.jpg"",""SV_PolicingMSA/MA_185/IMG_3_185.jpg""]","null","","","","","","0","","4","[""./assets/img/attnchk.png"",""./assets/img/attnchk.png""]","","true",""
"sliderTrial","html-slider-response","38","221463","0.0-38.0","","656776a7904ae00d6b91d1dd","6568adea5ce04c53521c3e94","15","","","","","","","","","","","","3868","[""SV_PolicingMSA/MA_185/IMG_13_185.jpg"",""SV_PolicingMSA/MA_185/IMG_1_185.jpg"",""SV_PolicingMSA/MA_185/IMG_8_185.jpg"",""SV_PolicingMSA/MA_185/IMG_5_185.jpg"",""SV_PolicingMSA/MA_185/IMG_6_185.jpg"",""SV_PolicingMSA/MA_185/IMG_11_185.jpg"",""SV_PolicingMSA/MA_185/IMG_2_185.jpg"",""SV_PolicingMSA/MA_185/IMG_3_185.jpg""]","3","","","","","","0","","4","[""./rc_img/cop_condGroup_13_CommunitySafety_autoscaled.png"",""./rc_img/cop_condGroup_13_SafeStreets_autoscaled.png""]","3","",""
"sliderTrial","html-slider-response","39","224067","0.0-39.0","","656776a7904ae00d6b91d1dd","6568adea5ce04c53521c3e94","15","","","","","","","","","","","","2602","[""SV_PolicingMSA/MA_185/IMG_13_185.jpg"",""SV_PolicingMSA/MA_185/IMG_1_185.jpg"",""SV_PolicingMSA/MA_185/IMG_8_185.jpg"",""SV_PolicingMSA/MA_185/IMG_5_185.jpg"",""SV_PolicingMSA/MA_185/IMG_6_185.jpg"",""SV_PolicingMSA/MA_185/IMG_11_185.jpg"",""SV_PolicingMSA/MA_185/IMG_2_185.jpg"",""SV_PolicingMSA/MA_185/IMG_3_185.jpg""]","5","","","","","","0","","4","[""./rc_img/cop_condGroup_4_SafeStreets_autoscaled.png"",""./rc_img/cop_condGroup_4_CommunitySafety_autoscaled.png""]","3","",""
"sliderTrial","html-slider-response","40","226530","0.0-40.0","","656776a7904ae00d6b91d1dd","6568adea5ce04c53521c3e94","15","","","","","","","","","","","","2461","[""SV_PolicingMSA/MA_185/IMG_13_185.jpg"",""SV_PolicingMSA/MA_185/IMG_1_185.jpg"",""SV_PolicingMSA/MA_185/IMG_8_185.jpg"",""SV_PolicingMSA/MA_185/IMG_5_185.jpg"",""SV_PolicingMSA/MA_185/IMG_6_185.jpg"",""SV_PolicingMSA/MA_185/IMG_11_185.jpg"",""SV_PolicingMSA/MA_185/IMG_2_185.jpg"",""SV_PolicingMSA/MA_185/IMG_3_185.jpg""]","5","","","","","","0","","4","[""./rc_img/cop_condGroup_8_SafeStreets_autoscaled.png"",""./rc_img/cop_condGroup_8_CommunitySafety_autoscaled.png""]","3","",""
"before_SVSlide_prompt","html-button-response","41","228250","0.0-41.0","","656776a7904ae00d6b91d1dd","6568adea5ce04c53521c3e94","15","","","","","","","","","","","","1720","Click [Next] to see the next neighborhood!","0","","","","","","","","","","","",""
"street view slide show","image-button-response","42","229262","0.0-42.0","","656776a7904ae00d6b91d1dd","6568adea5ce04c53521c3e94","15","","","","","","","","","","","","null","stimulus/SV_PolicingMSA/MA_659/IMG_12_659.jpg","null","","","","","","5","","","","","",""
"street view slide show","image-button-response","43","230278","0.0-43.0","","656776a7904ae00d6b91d1dd","6568adea5ce04c53521c3e94","15","","","","","","","","","","","","null","stimulus/SV_PolicingMSA/MA_659/IMG_4_659.jpg","null","","","","","","5","","","","","",""
"street view slide show","image-button-response","44","231291","0.0-44.0","","656776a7904ae00d6b91d1dd","6568adea5ce04c53521c3e94","15","","","","","","","","","","","","null","stimulus/SV_PolicingMSA/MA_659/IMG_11_659.jpg","null","","","","","","5","","","","","",""
"street view slide show","image-button-response","45","232295","0.0-45.0","","656776a7904ae00d6b91d1dd","6568adea5ce04c53521c3e94","15","","","","","","","","","","","","null","stimulus/SV_PolicingMSA/MA_659/IMG_3_659.jpg","null","","","","","","5","","","","","",""
"street view slide show","image-button-response","46","233304","0.0-46.0","","656776a7904ae00d6b91d1dd","6568adea5ce04c53521c3e94","15","","","","","","","","","","","","null","stimulus/SV_PolicingMSA/MA_659/IMG_14_659.jpg","null","","","","","","5","","","","","",""
"street view slide show","image-button-response","47","234314","0.0-47.0","","656776a7904ae00d6b91d1dd","6568adea5ce04c53521c3e94","15","","","","","","","","","","","","null","stimulus/SV_PolicingMSA/MA_659/IMG_0_659.jpg","null","","","","","","5","","","","","",""
"street view slide show","image-button-response","48","235325","0.0-48.0","","656776a7904ae00d6b91d1dd","6568adea5ce04c53521c3e94","15","","","","","","","","","","","","null","stimulus/SV_PolicingMSA/MA_659/IMG_1_659.jpg","null","","","","","","5","","","","","",""
"street view slide show","image-button-response","49","236340","0.0-49.0","","656776a7904ae00d6b91d1dd","6568adea5ce04c53521c3e94","15","","","","","","","","","","","","null","stimulus/SV_PolicingMSA/MA_659/IMG_13_659.jpg","null","","","","","","5","","","","","",""
"dot matrix survey1","survey","50","246927","0.0-50.0","","656776a7904ae00d6b91d1dd","6568adea5ce04c53521c3e94","15","","","","","","","","","","","","10581","","{""P0_Q0"":null,""P0_Q1"":{""wealthy"":3,""safe"":3,""walkable"":3,""traditional"":3,""diverse"":1}}","","","","","","5","[]","","","","",""
"dot matrix survey2","survey","51","256711","0.0-51.0","","656776a7904ae00d6b91d1dd","6568adea5ce04c53521c3e94","15","","","","","","","","","","","","9780","","{""P0_Q0"":null,""P0_Q1"":{""violence"":0,""crime"":0,""drug"":0,""schools"":2,""opportunities"":1}}","","","","","","5","[]","","","","",""
"dot matrix survey3","survey","52","268155","0.0-52.0","","656776a7904ae00d6b91d1dd","6568adea5ce04c53521c3e94","15","","","","","","","","","","","","11437","","{""P0_Q0"":null,""P0_Q1"":{""movein"":3,""moveout"":0,""shopping"":3,""park"":3,""school"":3,""walk"":3}}","","","","","","5","[]","","","","",""
"sliderTrial","html-slider-response","53","270677","0.0-53.0","","656776a7904ae00d6b91d1dd","6568adea5ce04c53521c3e94","15","","","","","","","","","","","","2521","[""SV_PolicingMSA/MA_659/IMG_12_659.jpg"",""SV_PolicingMSA/MA_659/IMG_4_659.jpg"",""SV_PolicingMSA/MA_659/IMG_11_659.jpg"",""SV_PolicingMSA/MA_659/IMG_3_659.jpg"",""SV_PolicingMSA/MA_659/IMG_14_659.jpg"",""SV_PolicingMSA/MA_659/IMG_0_659.jpg"",""SV_PolicingMSA/MA_659/IMG_1_659.jpg"",""SV_PolicingMSA/MA_659/IMG_13_659.jpg""]","3","","","","","","5","","4","[""./rc_img/cop_condGroup_7_CommunitySafety_autoscaled.png"",""./rc_img/cop_condGroup_7_SafeStreets_autoscaled.png""]","3","",""
"sliderTrial","html-slider-response","54","272264","0.0-54.0","","656776a7904ae00d6b91d1dd","6568adea5ce04c53521c3e94","15","","","","","","","","","","","","1586","[""SV_PolicingMSA/MA_659/IMG_12_659.jpg"",""SV_PolicingMSA/MA_659/IMG_4_659.jpg"",""SV_PolicingMSA/MA_659/IMG_11_659.jpg"",""SV_PolicingMSA/MA_659/IMG_3_659.jpg"",""SV_PolicingMSA/MA_659/IMG_14_659.jpg"",""SV_PolicingMSA/MA_659/IMG_0_659.jpg"",""SV_PolicingMSA/MA_659/IMG_1_659.jpg"",""SV_PolicingMSA/MA_659/IMG_13_659.jpg""]","3","","","","","","5","","4","[""./rc_img/cop_condGroup_12_CommunitySafety_autoscaled.png"",""./rc_img/cop_condGroup_12_SafeStreets_autoscaled.png""]","3","",""
"sliderTrial","html-slider-response","55","274044","0.0-55.0","","656776a7904ae00d6b91d1dd","6568adea5ce04c53521c3e94","15","","","","","","","","","","","","1779","[""SV_PolicingMSA/MA_659/IMG_12_659.jpg"",""SV_PolicingMSA/MA_659/IMG_4_659.jpg"",""SV_PolicingMSA/MA_659/IMG_11_659.jpg"",""SV_PolicingMSA/MA_659/IMG_3_659.jpg"",""SV_PolicingMSA/MA_659/IMG_14_659.jpg"",""SV_PolicingMSA/MA_659/IMG_0_659.jpg"",""SV_PolicingMSA/MA_659/IMG_1_659.jpg"",""SV_PolicingMSA/MA_659/IMG_13_659.jpg""]","3","","","","","","5","","4","[""./rc_img/cop_condGroup_2_CommunitySafety_autoscaled.png"",""./rc_img/cop_condGroup_2_SafeStreets_autoscaled.png""]","3","",""
"sliderTrial","html-slider-response","56","276306","0.0-56.0","","656776a7904ae00d6b91d1dd","6568adea5ce04c53521c3e94","15","","","","","","","","","","","","2261","[""SV_PolicingMSA/MA_659/IMG_12_659.jpg"",""SV_PolicingMSA/MA_659/IMG_4_659.jpg"",""SV_PolicingMSA/MA_659/IMG_11_659.jpg"",""SV_PolicingMSA/MA_659/IMG_3_659.jpg"",""SV_PolicingMSA/MA_659/IMG_14_659.jpg"",""SV_PolicingMSA/MA_659/IMG_0_659.jpg"",""SV_PolicingMSA/MA_659/IMG_1_659.jpg"",""SV_PolicingMSA/MA_659/IMG_13_659.jpg""]","6","","","","","","5","","4","[""./rc_img/cop_condGroup_6_SafeStreets_autoscaled.png"",""./rc_img/cop_condGroup_6_CommunitySafety_autoscaled.png""]","2","",""
"sliderTrial","html-slider-response","57","278379","0.0-57.0","","656776a7904ae00d6b91d1dd","6568adea5ce04c53521c3e94","15","","","","","","","","","","","","2071","[""SV_PolicingMSA/MA_659/IMG_12_659.jpg"",""SV_PolicingMSA/MA_659/IMG_4_659.jpg"",""SV_PolicingMSA/MA_659/IMG_11_659.jpg"",""SV_PolicingMSA/MA_659/IMG_3_659.jpg"",""SV_PolicingMSA/MA_659/IMG_14_659.jpg"",""SV_PolicingMSA/MA_659/IMG_0_659.jpg"",""SV_PolicingMSA/MA_659/IMG_1_659.jpg"",""SV_PolicingMSA/MA_659/IMG_13_659.jpg""]","3","","","","","","5","","4","[""./rc_img/cop_condGroup_15_CommunitySafety_autoscaled.png"",""./rc_img/cop_condGroup_15_SafeStreets_autoscaled.png""]","3","",""
"before_SVSlide_prompt","html-button-response","58","280080","0.0-58.0","","656776a7904ae00d6b91d1dd","6568adea5ce04c53521c3e94","15","","","","","","","","","","","","1700","Click [Next] to see the next neighborhood!","0","","","","","","","","","","","",""
"street view slide show","image-button-response","59","281095","0.0-59.0","","656776a7904ae00d6b91d1dd","6568adea5ce04c53521c3e94","15","","","","","","","","","","","","null","stimulus/SV_PolicingMSA/MA_157/IMG_0_157.jpg","null","","","","","","3","","","","","",""
"street view slide show","image-button-response","60","282097","0.0-60.0","","656776a7904ae00d6b91d1dd","6568adea5ce04c53521c3e94","15","","","","","","","","","","","","null","stimulus/SV_PolicingMSA/MA_157/IMG_3_157.jpg","null","","","","","","3","","","","","",""
"street view slide show","image-button-response","61","283111","0.0-61.0","","656776a7904ae00d6b91d1dd","6568adea5ce04c53521c3e94","15","","","","","","","","","","","","null","stimulus/SV_PolicingMSA/MA_157/IMG_13_157.jpg","null","","","","","","3","","","","","",""
"street view slide show","image-button-response","62","284112","0.0-62.0","","656776a7904ae00d6b91d1dd","6568adea5ce04c53521c3e94","15","","","","","","","","","","","","null","stimulus/SV_PolicingMSA/MA_157/IMG_4_157.jpg","null","","","","","","3","","","","","",""
"street view slide show","image-button-response","63","285128","0.0-63.0","","656776a7904ae00d6b91d1dd","6568adea5ce04c53521c3e94","15","","","","","","","","","","","","null","stimulus/SV_PolicingMSA/MA_157/IMG_1_157.jpg","null","","","","","","3","","","","","",""
"street view slide show","image-button-response","64","286142","0.0-64.0","","656776a7904ae00d6b91d1dd","6568adea5ce04c53521c3e94","15","","","","","","","","","","","","null","stimulus/SV_PolicingMSA/MA_157/IMG_2_157.jpg","null","","","","","","3","","","","","",""
"street view slide show","image-button-response","65","287158","0.0-65.0","","656776a7904ae00d6b91d1dd","6568adea5ce04c53521c3e94","15","","","","","","","","","","","","null","stimulus/SV_PolicingMSA/MA_157/IMG_5_157.jpg","null","","","","","","3","","","","","",""
"street view slide show","image-button-response","66","288159","0.0-66.0","","656776a7904ae00d6b91d1dd","6568adea5ce04c53521c3e94","15","","","","","","","","","","","","null","stimulus/SV_PolicingMSA/MA_157/IMG_7_157.jpg","null","","","","","","3","","","","","",""
"dot matrix survey1","survey","67","296610","0.0-67.0","","656776a7904ae00d6b91d1dd","6568adea5ce04c53521c3e94","15","","","","","","","","","","","","8439","","{""P0_Q0"":null,""P0_Q1"":{""wealthy"":2,""safe"":2,""traditional"":2,""walkable"":2,""diverse"":2}}","","","","","","3","[]","","","","",""
"dot matrix survey2","survey","68","306722","0.0-68.0","","656776a7904ae00d6b91d1dd","6568adea5ce04c53521c3e94","15","","","","","","","","","","","","10108","","{""P0_Q0"":null,""P0_Q1"":{""violence"":1,""crime"":1,""drug"":1,""schools"":1,""opportunities"":1}}","","","","","","3","[]","","","","",""
"dot matrix survey3","survey","69","319673","0.0-69.0","","656776a7904ae00d6b91d1dd","6568adea5ce04c53521c3e94","15","","","","","","","","","","","","12947","","{""P0_Q0"":null,""P0_Q1"":{""movein"":2,""moveout"":2,""walk"":2,""shopping"":2,""park"":2,""school"":2}}","","","","","","3","[]","","","","",""
"sliderTrial","html-slider-response","70","322318","0.0-70.0","","656776a7904ae00d6b91d1dd","6568adea5ce04c53521c3e94","15","","","","","","","","","","","","2644","[""SV_PolicingMSA/MA_157/IMG_0_157.jpg"",""SV_PolicingMSA/MA_157/IMG_3_157.jpg"",""SV_PolicingMSA/MA_157/IMG_13_157.jpg"",""SV_PolicingMSA/MA_157/IMG_4_157.jpg"",""SV_PolicingMSA/MA_157/IMG_1_157.jpg"",""SV_PolicingMSA/MA_157/IMG_2_157.jpg"",""SV_PolicingMSA/MA_157/IMG_5_157.jpg"",""SV_PolicingMSA/MA_157/IMG_7_157.jpg""]","2","","","","","","3","","4","[""./rc_img/cop_condGroup_20_CommunitySafety_autoscaled.png"",""./rc_img/cop_condGroup_20_SafeStreets_autoscaled.png""]","2","",""
"sliderTrial","html-slider-response","71","324446","0.0-71.0","","656776a7904ae00d6b91d1dd","6568adea5ce04c53521c3e94","15","","","","","","","","","","","","2127","[""SV_PolicingMSA/MA_157/IMG_0_157.jpg"",""SV_PolicingMSA/MA_157/IMG_3_157.jpg"",""SV_PolicingMSA/MA_157/IMG_13_157.jpg"",""SV_PolicingMSA/MA_157/IMG_4_157.jpg"",""SV_PolicingMSA/MA_157/IMG_1_157.jpg"",""SV_PolicingMSA/MA_157/IMG_2_157.jpg"",""SV_PolicingMSA/MA_157/IMG_5_157.jpg"",""SV_PolicingMSA/MA_157/IMG_7_157.jpg""]","6","","","","","","3","","4","[""./rc_img/cop_condGroup_3_SafeStreets_autoscaled.png"",""./rc_img/cop_condGroup_3_CommunitySafety_autoscaled.png""]","2","",""
"sliderTrial","html-slider-response","72","326695","0.0-72.0","","656776a7904ae00d6b91d1dd","6568adea5ce04c53521c3e94","15","","","","","","","","","","","","2248","[""SV_PolicingMSA/MA_157/IMG_0_157.jpg"",""SV_PolicingMSA/MA_157/IMG_3_157.jpg"",""SV_PolicingMSA/MA_157/IMG_13_157.jpg"",""SV_PolicingMSA/MA_157/IMG_4_157.jpg"",""SV_PolicingMSA/MA_157/IMG_1_157.jpg"",""SV_PolicingMSA/MA_157/IMG_2_157.jpg"",""SV_PolicingMSA/MA_157/IMG_5_157.jpg"",""SV_PolicingMSA/MA_157/IMG_7_157.jpg""]","6","","","","","","3","","4","[""./rc_img/cop_condGroup_5_SafeStreets_autoscaled.png"",""./rc_img/cop_condGroup_5_CommunitySafety_autoscaled.png""]","2","",""
"sliderTrial","html-slider-response","73","330772","0.0-73.0","","656776a7904ae00d6b91d1dd","6568adea5ce04c53521c3e94","15","","","","","","","","","","","","4076","[""SV_PolicingMSA/MA_157/IMG_0_157.jpg"",""SV_PolicingMSA/MA_157/IMG_3_157.jpg"",""SV_PolicingMSA/MA_157/IMG_13_157.jpg"",""SV_PolicingMSA/MA_157/IMG_4_157.jpg"",""SV_PolicingMSA/MA_157/IMG_1_157.jpg"",""SV_PolicingMSA/MA_157/IMG_2_157.jpg"",""SV_PolicingMSA/MA_157/IMG_5_157.jpg"",""SV_PolicingMSA/MA_157/IMG_7_157.jpg""]","2","","","","","","3","","4","[""./rc_img/cop_condGroup_9_CommunitySafety_autoscaled.png"",""./rc_img/cop_condGroup_9_SafeStreets_autoscaled.png""]","2","",""
"sliderTrial","html-slider-response","74","333001","0.0-74.0","","656776a7904ae00d6b91d1dd","6568adea5ce04c53521c3e94","15","","","","","","","","","","","","2227","[""SV_PolicingMSA/MA_157/IMG_0_157.jpg"",""SV_PolicingMSA/MA_157/IMG_3_157.jpg"",""SV_PolicingMSA/MA_157/IMG_13_157.jpg"",""SV_PolicingMSA/MA_157/IMG_4_157.jpg"",""SV_PolicingMSA/MA_157/IMG_1_157.jpg"",""SV_PolicingMSA/MA_157/IMG_2_157.jpg"",""SV_PolicingMSA/MA_157/IMG_5_157.jpg"",""SV_PolicingMSA/MA_157/IMG_7_157.jpg""]","2","","","","","","3","","4","[""./rc_img/cop_condGroup_1_CommunitySafety_autoscaled.png"",""./rc_img/cop_condGroup_1_SafeStreets_autoscaled.png""]","2","",""
"half-way","html-button-response","75","339419","0.0-75.0","","656776a7904ae00d6b91d1dd","6568adea5ce04c53521c3e94","15","","","","","","","","","","","","6418","
    <h3>You are now half way through the study.</h3>
    <p>Please take a quick, 15-second break before you continue.</p>
    <img src='assets/img/countdown-15.gif'>
    <p>The study will automatically advance forward after the countdown is complete. <br> However, you may click ""Next"" to advance forward now if you wish.</p>
    ","0","","","","","","","","","","","",""
"before_SVSlide_prompt","html-button-response","76","341000","0.0-76.0","","656776a7904ae00d6b91d1dd","6568adea5ce04c53521c3e94","15","","","","","","","","","","","","1579","Click [Next] to see the next neighborhood!","0","","","","","","","","","","","",""
"street view slide show","image-button-response","77","342010","0.0-77.0","","656776a7904ae00d6b91d1dd","6568adea5ce04c53521c3e94","15","","","","","","","","","","","","null","stimulus/SV_PolicingMSA/MA_181/IMG_5_181.jpg","null","","","","","","3","","","","","",""
"street view slide show","image-button-response","78","343026","0.0-78.0","","656776a7904ae00d6b91d1dd","6568adea5ce04c53521c3e94","15","","","","","","","","","","","","null","stimulus/SV_PolicingMSA/MA_181/IMG_8_181.jpg","null","","","","","","3","","","","","",""
"street view slide show","image-button-response","79","344029","0.0-79.0","","656776a7904ae00d6b91d1dd","6568adea5ce04c53521c3e94","15","","","","","","","","","","","","null","stimulus/SV_PolicingMSA/MA_181/IMG_7_181.jpg","null","","","","","","3","","","","","",""
"street view slide show","image-button-response","80","345042","0.0-80.0","","656776a7904ae00d6b91d1dd","6568adea5ce04c53521c3e94","15","","","","","","","","","","","","null","stimulus/SV_PolicingMSA/MA_181/IMG_10_181.jpg","null","","","","","","3","","","","","",""
"street view slide show","image-button-response","81","346058","0.0-81.0","","656776a7904ae00d6b91d1dd","6568adea5ce04c53521c3e94","15","","","","","","","","","","","","null","stimulus/SV_PolicingMSA/MA_181/IMG_6_181.jpg","null","","","","","","3","","","","","",""
"street view slide show","image-button-response","82","347072","0.0-82.0","","656776a7904ae00d6b91d1dd","6568adea5ce04c53521c3e94","15","","","","","","","","","","","","null","stimulus/SV_PolicingMSA/MA_181/IMG_4_181.jpg","null","","","","","","3","","","","","",""
"street view slide show","image-button-response","83","348086","0.0-83.0","","656776a7904ae00d6b91d1dd","6568adea5ce04c53521c3e94","15","","","","","","","","","","","","null","stimulus/SV_PolicingMSA/MA_181/IMG_2_181.jpg","null","","","","","","3","","","","","",""
"street view slide show","image-button-response","84","349090","0.0-84.0","","656776a7904ae00d6b91d1dd","6568adea5ce04c53521c3e94","15","","","","","","","","","","","","null","stimulus/SV_PolicingMSA/MA_181/IMG_3_181.jpg","null","","","","","","3","","","","","",""
"dot matrix survey1","survey","85","358569","0.0-85.0","","656776a7904ae00d6b91d1dd","6568adea5ce04c53521c3e94","15","","","","","","","","","","","","9469","","{""P0_Q0"":null,""P0_Q1"":{""wealthy"":2,""safe"":2,""walkable"":1,""traditional"":2,""diverse"":3}}","","","","","","3","[]","","","","",""
"dot matrix survey2","survey","86","366205","0.0-86.0","","656776a7904ae00d6b91d1dd","6568adea5ce04c53521c3e94","15","","","","","","","","","","","","7631","","{""P0_Q0"":null,""P0_Q1"":{""violence"":2,""crime"":2,""drug"":2,""schools"":1,""opportunities"":1}}","","","","","","3","[]","","","","",""
"dot matrix survey3","survey","87","375352","0.0-87.0","","656776a7904ae00d6b91d1dd","6568adea5ce04c53521c3e94","15","","","","","","","","","","","","9143","","{""P0_Q0"":null,""P0_Q1"":{""movein"":2,""moveout"":2,""walk"":2,""shopping"":2,""park"":2,""school"":2}}","","","","","","3","[]","","","","",""
"sliderTrial","html-slider-response","88","378349","0.0-88.0","","656776a7904ae00d6b91d1dd","6568adea5ce04c53521c3e94","15","","","","","","","","","","","","2996","[""SV_PolicingMSA/MA_181/IMG_5_181.jpg"",""SV_PolicingMSA/MA_181/IMG_8_181.jpg"",""SV_PolicingMSA/MA_181/IMG_7_181.jpg"",""SV_PolicingMSA/MA_181/IMG_10_181.jpg"",""SV_PolicingMSA/MA_181/IMG_6_181.jpg"",""SV_PolicingMSA/MA_181/IMG_4_181.jpg"",""SV_PolicingMSA/MA_181/IMG_2_181.jpg"",""SV_PolicingMSA/MA_181/IMG_3_181.jpg""]","2","","","","","","3","","4","[""./rc_img/cop_condGroup_7_CommunitySafety_autoscaled.png"",""./rc_img/cop_condGroup_7_SafeStreets_autoscaled.png""]","2","",""
"sliderTrial","html-slider-response","89","380649","0.0-89.0","","656776a7904ae00d6b91d1dd","6568adea5ce04c53521c3e94","15","","","","","","","","","","","","2298","[""SV_PolicingMSA/MA_181/IMG_5_181.jpg"",""SV_PolicingMSA/MA_181/IMG_8_181.jpg"",""SV_PolicingMSA/MA_181/IMG_7_181.jpg"",""SV_PolicingMSA/MA_181/IMG_10_181.jpg"",""SV_PolicingMSA/MA_181/IMG_6_181.jpg"",""SV_PolicingMSA/MA_181/IMG_4_181.jpg"",""SV_PolicingMSA/MA_181/IMG_2_181.jpg"",""SV_PolicingMSA/MA_181/IMG_3_181.jpg""]","2","","","","","","3","","4","[""./rc_img/cop_condGroup_12_CommunitySafety_autoscaled.png"",""./rc_img/cop_condGroup_12_SafeStreets_autoscaled.png""]","2","",""
"sliderTrial","html-slider-response","90","383063","0.0-90.0","","656776a7904ae00d6b91d1dd","6568adea5ce04c53521c3e94","15","","","","","","","","","","","","2413","[""SV_PolicingMSA/MA_181/IMG_5_181.jpg"",""SV_PolicingMSA/MA_181/IMG_8_181.jpg"",""SV_PolicingMSA/MA_181/IMG_7_181.jpg"",""SV_PolicingMSA/MA_181/IMG_10_181.jpg"",""SV_PolicingMSA/MA_181/IMG_6_181.jpg"",""SV_PolicingMSA/MA_181/IMG_4_181.jpg"",""SV_PolicingMSA/MA_181/IMG_2_181.jpg"",""SV_PolicingMSA/MA_181/IMG_3_181.jpg""]","2","","","","","","3","","4","[""./rc_img/cop_condGroup_2_CommunitySafety_autoscaled.png"",""./rc_img/cop_condGroup_2_SafeStreets_autoscaled.png""]","2","",""
"sliderTrial","html-slider-response","91","385789","0.0-91.0","","656776a7904ae00d6b91d1dd","6568adea5ce04c53521c3e94","15","","","","","","","","","","","","2725","[""SV_PolicingMSA/MA_181/IMG_5_181.jpg"",""SV_PolicingMSA/MA_181/IMG_8_181.jpg"",""SV_PolicingMSA/MA_181/IMG_7_181.jpg"",""SV_PolicingMSA/MA_181/IMG_10_181.jpg"",""SV_PolicingMSA/MA_181/IMG_6_181.jpg"",""SV_PolicingMSA/MA_181/IMG_4_181.jpg"",""SV_PolicingMSA/MA_181/IMG_2_181.jpg"",""SV_PolicingMSA/MA_181/IMG_3_181.jpg""]","6","","","","","","3","","4","[""./rc_img/cop_condGroup_6_SafeStreets_autoscaled.png"",""./rc_img/cop_condGroup_6_CommunitySafety_autoscaled.png""]","2","",""
"sliderTrial","html-slider-response","92","387910","0.0-92.0","","656776a7904ae00d6b91d1dd","6568adea5ce04c53521c3e94","15","","","","","","","","","","","","2120","[""SV_PolicingMSA/MA_181/IMG_5_181.jpg"",""SV_PolicingMSA/MA_181/IMG_8_181.jpg"",""SV_PolicingMSA/MA_181/IMG_7_181.jpg"",""SV_PolicingMSA/MA_181/IMG_10_181.jpg"",""SV_PolicingMSA/MA_181/IMG_6_181.jpg"",""SV_PolicingMSA/MA_181/IMG_4_181.jpg"",""SV_PolicingMSA/MA_181/IMG_2_181.jpg"",""SV_PolicingMSA/MA_181/IMG_3_181.jpg""]","2","","","","","","3","","4","[""./rc_img/cop_condGroup_15_CommunitySafety_autoscaled.png"",""./rc_img/cop_condGroup_15_SafeStreets_autoscaled.png""]","2","",""
"before_SVSlide_prompt","html-button-response","93","389013","0.0-93.0","","656776a7904ae00d6b91d1dd","6568adea5ce04c53521c3e94","15","","","","","","","","","","","","1102","Click [Next] to see the next neighborhood!","0","","","","","","","","","","","",""
"street view slide show","image-button-response","94","390015","0.0-94.0","","656776a7904ae00d6b91d1dd","6568adea5ce04c53521c3e94","15","","","","","","","","","","","","null","stimulus/SV_PolicingMSA/MA_854/IMG_11_854.jpg","null","","","","","","1","","","","","",""
"street view slide show","image-button-response","95","391032","0.0-95.0","","656776a7904ae00d6b91d1dd","6568adea5ce04c53521c3e94","15","","","","","","","","","","","","null","stimulus/SV_PolicingMSA/MA_854/IMG_7_854.jpg","null","","","","","","1","","","","","",""
"street view slide show","image-button-response","96","392033","0.0-96.0","","656776a7904ae00d6b91d1dd","6568adea5ce04c53521c3e94","15","","","","","","","","","","","","null","stimulus/SV_PolicingMSA/MA_854/IMG_13_854.jpg","null","","","","","","1","","","","","",""
"street view slide show","image-button-response","97","393046","0.0-97.0","","656776a7904ae00d6b91d1dd","6568adea5ce04c53521c3e94","15","","","","","","","","","","","","null","stimulus/SV_PolicingMSA/MA_854/IMG_12_854.jpg","null","","","","","","1","","","","","",""
"street view slide show","image-button-response","98","394060","0.0-98.0","","656776a7904ae00d6b91d1dd","6568adea5ce04c53521c3e94","15","","","","","","","","","","","","null","stimulus/SV_PolicingMSA/MA_854/IMG_0_854.jpg","null","","","","","","1","","","","","",""
"street view slide show","image-button-response","99","395061","0.0-99.0","","656776a7904ae00d6b91d1dd","6568adea5ce04c53521c3e94","15","","","","","","","","","","","","null","stimulus/SV_PolicingMSA/MA_854/IMG_10_854.jpg","null","","","","","","1","","","","","",""
"street view slide show","image-button-response","100","396067","0.0-100.0","","656776a7904ae00d6b91d1dd","6568adea5ce04c53521c3e94","15","","","","","","","","","","","","null","stimulus/SV_PolicingMSA/MA_854/IMG_3_854.jpg","null","","","","","","1","","","","","",""
"street view slide show","image-button-response","101","397077","0.0-101.0","","656776a7904ae00d6b91d1dd","6568adea5ce04c53521c3e94","15","","","","","","","","","","","","null","stimulus/SV_PolicingMSA/MA_854/IMG_5_854.jpg","null","","","","","","1","","","","","",""
"dot matrix survey1","survey","102","406724","0.0-102.0","","656776a7904ae00d6b91d1dd","6568adea5ce04c53521c3e94","15","","","","","","","","","","","","9637","","{""P0_Q0"":null,""P0_Q1"":{""wealthy"":1,""walkable"":1,""safe"":1,""traditional"":1,""diverse"":3}}","","","","","","1","[]","","","","",""
"dot matrix survey2","survey","103","415578","0.0-103.0","","656776a7904ae00d6b91d1dd","6568adea5ce04c53521c3e94","15","","","","","","","","","","","","8848","","{""P0_Q0"":null,""P0_Q1"":{""violence"":3,""crime"":3,""drug"":3,""schools"":1,""opportunities"":1}}","","","","","","1","[]","","","","",""
"dot matrix survey3","survey","104","428467","0.0-104.0","","656776a7904ae00d6b91d1dd","6568adea5ce04c53521c3e94","15","","","","","","","","","","","","12884","","{""P0_Q0"":null,""P0_Q1"":{""movein"":0,""moveout"":3,""walk"":0,""shopping"":0,""park"":0,""school"":0}}","","","","","","1","[]","","","","",""
"sliderTrial","html-slider-response","105","431117","0.0-105.0","","656776a7904ae00d6b91d1dd","6568adea5ce04c53521c3e94","15","","","","","","","","","","","","2648","[""SV_PolicingMSA/MA_854/IMG_11_854.jpg"",""SV_PolicingMSA/MA_854/IMG_7_854.jpg"",""SV_PolicingMSA/MA_854/IMG_13_854.jpg"",""SV_PolicingMSA/MA_854/IMG_12_854.jpg"",""SV_PolicingMSA/MA_854/IMG_0_854.jpg"",""SV_PolicingMSA/MA_854/IMG_10_854.jpg"",""SV_PolicingMSA/MA_854/IMG_3_854.jpg"",""SV_PolicingMSA/MA_854/IMG_5_854.jpg""]","2","","","","","","1","","4","[""./rc_img/cop_condGroup_20_CommunitySafety_autoscaled.png"",""./rc_img/cop_condGroup_20_SafeStreets_autoscaled.png""]","2","",""
"sliderTrial","html-slider-response","106","433608","0.0-106.0","","656776a7904ae00d6b91d1dd","6568adea5ce04c53521c3e94","15","","","","","","","","","","","","2490","[""SV_PolicingMSA/MA_854/IMG_11_854.jpg"",""SV_PolicingMSA/MA_854/IMG_7_854.jpg"",""SV_PolicingMSA/MA_854/IMG_13_854.jpg"",""SV_PolicingMSA/MA_854/IMG_12_854.jpg"",""SV_PolicingMSA/MA_854/IMG_0_854.jpg"",""SV_PolicingMSA/MA_854/IMG_10_854.jpg"",""SV_PolicingMSA/MA_854/IMG_3_854.jpg"",""SV_PolicingMSA/MA_854/IMG_5_854.jpg""]","6","","","","","","1","","4","[""./rc_img/cop_condGroup_3_SafeStreets_autoscaled.png"",""./rc_img/cop_condGroup_3_CommunitySafety_autoscaled.png""]","2","",""
"sliderTrial_attention","html-slider-response","107","443620","0.0-107.0","","656776a7904ae00d6b91d1dd","6568adea5ce04c53521c3e94","15","","","","","","","","","","","","null","[""SV_PolicingMSA/MA_854/IMG_11_854.jpg"",""SV_PolicingMSA/MA_854/IMG_7_854.jpg"",""SV_PolicingMSA/MA_854/IMG_13_854.jpg"",""SV_PolicingMSA/MA_854/IMG_12_854.jpg"",""SV_PolicingMSA/MA_854/IMG_0_854.jpg"",""SV_PolicingMSA/MA_854/IMG_10_854.jpg"",""SV_PolicingMSA/MA_854/IMG_3_854.jpg"",""SV_PolicingMSA/MA_854/IMG_5_854.jpg""]","null","","","","","","1","","4","[""./assets/img/attnchk.png"",""./assets/img/attnchk.png""]","","true",""
"sliderTrial","html-slider-response","108","451985","0.0-108.0","","656776a7904ae00d6b91d1dd","6568adea5ce04c53521c3e94","15","","","","","","","","","","","","8364","[""SV_PolicingMSA/MA_854/IMG_11_854.jpg"",""SV_PolicingMSA/MA_854/IMG_7_854.jpg"",""SV_PolicingMSA/MA_854/IMG_13_854.jpg"",""SV_PolicingMSA/MA_854/IMG_12_854.jpg"",""SV_PolicingMSA/MA_854/IMG_0_854.jpg"",""SV_PolicingMSA/MA_854/IMG_10_854.jpg"",""SV_PolicingMSA/MA_854/IMG_3_854.jpg"",""SV_PolicingMSA/MA_854/IMG_5_854.jpg""]","6","","","","","","1","","4","[""./rc_img/cop_condGroup_5_SafeStreets_autoscaled.png"",""./rc_img/cop_condGroup_5_CommunitySafety_autoscaled.png""]","2","",""
"sliderTrial","html-slider-response","109","458639","0.0-109.0","","656776a7904ae00d6b91d1dd","6568adea5ce04c53521c3e94","15","","","","","","","","","","","","6652","[""SV_PolicingMSA/MA_854/IMG_11_854.jpg"",""SV_PolicingMSA/MA_854/IMG_7_854.jpg"",""SV_PolicingMSA/MA_854/IMG_13_854.jpg"",""SV_PolicingMSA/MA_854/IMG_12_854.jpg"",""SV_PolicingMSA/MA_854/IMG_0_854.jpg"",""SV_PolicingMSA/MA_854/IMG_10_854.jpg"",""SV_PolicingMSA/MA_854/IMG_3_854.jpg"",""SV_PolicingMSA/MA_854/IMG_5_854.jpg""]","2","","","","","","1","","4","[""./rc_img/cop_condGroup_9_CommunitySafety_autoscaled.png"",""./rc_img/cop_condGroup_9_SafeStreets_autoscaled.png""]","2","",""
"sliderTrial","html-slider-response","110","461146","0.0-110.0","","656776a7904ae00d6b91d1dd","6568adea5ce04c53521c3e94","15","","","","","","","","","","","","2505","[""SV_PolicingMSA/MA_854/IMG_11_854.jpg"",""SV_PolicingMSA/MA_854/IMG_7_854.jpg"",""SV_PolicingMSA/MA_854/IMG_13_854.jpg"",""SV_PolicingMSA/MA_854/IMG_12_854.jpg"",""SV_PolicingMSA/MA_854/IMG_0_854.jpg"",""SV_PolicingMSA/MA_854/IMG_10_854.jpg"",""SV_PolicingMSA/MA_854/IMG_3_854.jpg"",""SV_PolicingMSA/MA_854/IMG_5_854.jpg""]","2","","","","","","1","","4","[""./rc_img/cop_condGroup_1_CommunitySafety_autoscaled.png"",""./rc_img/cop_condGroup_1_SafeStreets_autoscaled.png""]","2","",""
"before_SVSlide_prompt","html-button-response","111","462369","0.0-111.0","","656776a7904ae00d6b91d1dd","6568adea5ce04c53521c3e94","15","","","","","","","","","","","","1223","Click [Next] to see the next neighborhood!","0","","","","","","","","","","","",""
"street view slide show","image-button-response","112","463373","0.0-112.0","","656776a7904ae00d6b91d1dd","6568adea5ce04c53521c3e94","15","","","","","","","","","","","","null","stimulus/SV_PolicingMSA/MA_855/IMG_11_855.jpg","null","","","","","","2","","","","","",""
"street view slide show","image-button-response","113","464386","0.0-113.0","","656776a7904ae00d6b91d1dd","6568adea5ce04c53521c3e94","15","","","","","","","","","","","","null","stimulus/SV_PolicingMSA/MA_855/IMG_14_855.jpg","null","","","","","","2","","","","","",""
"street view slide show","image-button-response","114","465403","0.0-114.0","","656776a7904ae00d6b91d1dd","6568adea5ce04c53521c3e94","15","","","","","","","","","","","","null","stimulus/SV_PolicingMSA/MA_855/IMG_12_855.jpg","null","","","","","","2","","","","","",""
"street view slide show","image-button-response","115","466417","0.0-115.0","","656776a7904ae00d6b91d1dd","6568adea5ce04c53521c3e94","15","","","","","","","","","","","","null","stimulus/SV_PolicingMSA/MA_855/IMG_9_855.jpg","null","","","","","","2","","","","","",""
"street view slide show","image-button-response","116","467418","0.0-116.0","","656776a7904ae00d6b91d1dd","6568adea5ce04c53521c3e94","15","","","","","","","","","","","","null","stimulus/SV_PolicingMSA/MA_855/IMG_1_855.jpg","null","","","","","","2","","","","","",""
"street view slide show","image-button-response","117","468420","0.0-117.0","","656776a7904ae00d6b91d1dd","6568adea5ce04c53521c3e94","15","","","","","","","","","","","","null","stimulus/SV_PolicingMSA/MA_855/IMG_5_855.jpg","null","","","","","","2","","","","","",""
"street view slide show","image-button-response","118","469428","0.0-118.0","","656776a7904ae00d6b91d1dd","6568adea5ce04c53521c3e94","15","","","","","","","","","","","","null","stimulus/SV_PolicingMSA/MA_855/IMG_0_855.jpg","null","","","","","","2","","","","","",""
"street view slide show","image-button-response","119","470430","0.0-119.0","","656776a7904ae00d6b91d1dd","6568adea5ce04c53521c3e94","15","","","","","","","","","","","","null","stimulus/SV_PolicingMSA/MA_855/IMG_8_855.jpg","null","","","","","","2","","","","","",""
"dot matrix survey1","survey","120","481499","0.0-120.0","","656776a7904ae00d6b91d1dd","6568adea5ce04c53521c3e94","15","","","","","","","","","","","","11063","","{""P0_Q0"":null,""P0_Q1"":{""wealthy"":2,""safe"":1,""walkable"":1,""traditional"":1,""diverse"":2}}","","","","","","2","[]","","","","",""
"dot matrix survey2","survey","121","489932","0.0-121.0","","656776a7904ae00d6b91d1dd","6568adea5ce04c53521c3e94","15","","","","","","","","","","","","8430","","{""P0_Q0"":null,""P0_Q1"":{""violence"":2,""crime"":2,""drug"":2,""schools"":1,""opportunities"":1}}","","","","","","2","[]","","","","",""
"dot matrix survey3","survey","122","500025","0.0-122.0","","656776a7904ae00d6b91d1dd","6568adea5ce04c53521c3e94","15","","","","","","","","","","","","10088","","{""P0_Q0"":null,""P0_Q1"":{""movein"":1,""moveout"":2,""shopping"":2,""walk"":1,""park"":1,""school"":1}}","","","","","","2","[]","","","","",""
"sliderTrial","html-slider-response","123","503451","0.0-123.0","","656776a7904ae00d6b91d1dd","6568adea5ce04c53521c3e94","15","","","","","","","","","","","","3425","[""SV_PolicingMSA/MA_855/IMG_11_855.jpg"",""SV_PolicingMSA/MA_855/IMG_14_855.jpg"",""SV_PolicingMSA/MA_855/IMG_12_855.jpg"",""SV_PolicingMSA/MA_855/IMG_9_855.jpg"",""SV_PolicingMSA/MA_855/IMG_1_855.jpg"",""SV_PolicingMSA/MA_855/IMG_5_855.jpg"",""SV_PolicingMSA/MA_855/IMG_0_855.jpg"",""SV_PolicingMSA/MA_855/IMG_8_855.jpg""]","2","","","","","","2","","4","[""./rc_img/cop_condGroup_18_CommunitySafety_autoscaled.png"",""./rc_img/cop_condGroup_18_SafeStreets_autoscaled.png""]","2","",""
"sliderTrial","html-slider-response","124","505210","0.0-124.0","","656776a7904ae00d6b91d1dd","6568adea5ce04c53521c3e94","15","","","","","","","","","","","","1757","[""SV_PolicingMSA/MA_855/IMG_11_855.jpg"",""SV_PolicingMSA/MA_855/IMG_14_855.jpg"",""SV_PolicingMSA/MA_855/IMG_12_855.jpg"",""SV_PolicingMSA/MA_855/IMG_9_855.jpg"",""SV_PolicingMSA/MA_855/IMG_1_855.jpg"",""SV_PolicingMSA/MA_855/IMG_5_855.jpg"",""SV_PolicingMSA/MA_855/IMG_0_855.jpg"",""SV_PolicingMSA/MA_855/IMG_8_855.jpg""]","6","","","","","","2","","4","[""./rc_img/cop_condGroup_14_SafeStreets_autoscaled.png"",""./rc_img/cop_condGroup_14_CommunitySafety_autoscaled.png""]","2","",""
"sliderTrial","html-slider-response","125","508071","0.0-125.0","","656776a7904ae00d6b91d1dd","6568adea5ce04c53521c3e94","15","","","","","","","","","","","","2860","[""SV_PolicingMSA/MA_855/IMG_11_855.jpg"",""SV_PolicingMSA/MA_855/IMG_14_855.jpg"",""SV_PolicingMSA/MA_855/IMG_12_855.jpg"",""SV_PolicingMSA/MA_855/IMG_9_855.jpg"",""SV_PolicingMSA/MA_855/IMG_1_855.jpg"",""SV_PolicingMSA/MA_855/IMG_5_855.jpg"",""SV_PolicingMSA/MA_855/IMG_0_855.jpg"",""SV_PolicingMSA/MA_855/IMG_8_855.jpg""]","2","","","","","","2","","4","[""./rc_img/cop_condGroup_11_CommunitySafety_autoscaled.png"",""./rc_img/cop_condGroup_11_SafeStreets_autoscaled.png""]","2","",""
"sliderTrial","html-slider-response","126","511637","0.0-126.0","","656776a7904ae00d6b91d1dd","6568adea5ce04c53521c3e94","15","","","","","","","","","","","","3565","[""SV_PolicingMSA/MA_855/IMG_11_855.jpg"",""SV_PolicingMSA/MA_855/IMG_14_855.jpg"",""SV_PolicingMSA/MA_855/IMG_12_855.jpg"",""SV_PolicingMSA/MA_855/IMG_9_855.jpg"",""SV_PolicingMSA/MA_855/IMG_1_855.jpg"",""SV_PolicingMSA/MA_855/IMG_5_855.jpg"",""SV_PolicingMSA/MA_855/IMG_0_855.jpg"",""SV_PolicingMSA/MA_855/IMG_8_855.jpg""]","3","","","","","","2","","4","[""./rc_img/cop_condGroup_17_CommunitySafety_autoscaled.png"",""./rc_img/cop_condGroup_17_SafeStreets_autoscaled.png""]","3","",""
"sliderTrial","html-slider-response","127","513977","0.0-127.0","","656776a7904ae00d6b91d1dd","6568adea5ce04c53521c3e94","15","","","","","","","","","","","","2339","[""SV_PolicingMSA/MA_855/IMG_11_855.jpg"",""SV_PolicingMSA/MA_855/IMG_14_855.jpg"",""SV_PolicingMSA/MA_855/IMG_12_855.jpg"",""SV_PolicingMSA/MA_855/IMG_9_855.jpg"",""SV_PolicingMSA/MA_855/IMG_1_855.jpg"",""SV_PolicingMSA/MA_855/IMG_5_855.jpg"",""SV_PolicingMSA/MA_855/IMG_0_855.jpg"",""SV_PolicingMSA/MA_855/IMG_8_855.jpg""]","3","","","","","","2","","4","[""./rc_img/cop_condGroup_10_CommunitySafety_autoscaled.png"",""./rc_img/cop_condGroup_10_SafeStreets_autoscaled.png""]","3","",""
"before_SVSlide_prompt","html-button-response","128","515530","0.0-128.0","","656776a7904ae00d6b91d1dd","6568adea5ce04c53521c3e94","15","","","","","","","","","","","","1552","Click [Next] to see the next neighborhood!","0","","","","","","","","","","","",""
"street view slide show","image-button-response","129","516537","0.0-129.0","","656776a7904ae00d6b91d1dd","6568adea5ce04c53521c3e94","15","","","","","","","","","","","","null","stimulus/SV_PolicingMSA/MA_1486/IMG_8_1486.jpg","null","","","","","","2","","","","","",""
"street view slide show","image-button-response","130","517553","0.0-130.0","","656776a7904ae00d6b91d1dd","6568adea5ce04c53521c3e94","15","","","","","","","","","","","","null","stimulus/SV_PolicingMSA/MA_1486/IMG_9_1486.jpg","null","","","","","","2","","","","","",""
"street view slide show","image-button-response","131","518561","0.0-131.0","","656776a7904ae00d6b91d1dd","6568adea5ce04c53521c3e94","15","","","","","","","","","","","","null","stimulus/SV_PolicingMSA/MA_1486/IMG_5_1486.jpg","null","","","","","","2","","","","","",""
"street view slide show","image-button-response","132","519563","0.0-132.0","","656776a7904ae00d6b91d1dd","6568adea5ce04c53521c3e94","15","","","","","","","","","","","","null","stimulus/SV_PolicingMSA/MA_1486/IMG_4_1486.jpg","null","","","","","","2","","","","","",""
"street view slide show","image-button-response","133","520566","0.0-133.0","","656776a7904ae00d6b91d1dd","6568adea5ce04c53521c3e94","15","","","","","","","","","","","","null","stimulus/SV_PolicingMSA/MA_1486/IMG_0_1486.jpg","null","","","","","","2","","","","","",""
"street view slide show","image-button-response","134","521568","0.0-134.0","","656776a7904ae00d6b91d1dd","6568adea5ce04c53521c3e94","15","","","","","","","","","","","","null","stimulus/SV_PolicingMSA/MA_1486/IMG_12_1486.jpg","null","","","","","","2","","","","","",""
"street view slide show","image-button-response","135","522581","0.0-135.0","","656776a7904ae00d6b91d1dd","6568adea5ce04c53521c3e94","15","","","","","","","","","","","","null","stimulus/SV_PolicingMSA/MA_1486/IMG_11_1486.jpg","null","","","","","","2","","","","","",""
"street view slide show","image-button-response","136","523597","0.0-136.0","","656776a7904ae00d6b91d1dd","6568adea5ce04c53521c3e94","15","","","","","","","","","","","","null","stimulus/SV_PolicingMSA/MA_1486/IMG_13_1486.jpg","null","","","","","","2","","","","","",""
"dot matrix survey1","survey","137","531763","0.0-137.0","","656776a7904ae00d6b91d1dd","6568adea5ce04c53521c3e94","15","","","","","","","","","","","","8161","","{""P0_Q0"":null,""P0_Q1"":{""wealthy"":1,""safe"":1,""walkable"":1,""traditional"":1,""diverse"":2}}","","","","","","2","[]","","","","",""
"dot matrix survey2","survey","138","567348","0.0-138.0","","656776a7904ae00d6b91d1dd","6568adea5ce04c53521c3e94","15","","","","","","","","","","","","35581","","{""P0_Q0"":null,""P0_Q1"":{""violence"":2,""crime"":2,""drug"":2,""schools"":1,""opportunities"":1}}","","","","","","2","[]","","","","",""
"dot matrix survey3","survey","139","582318","0.0-139.0","","656776a7904ae00d6b91d1dd","6568adea5ce04c53521c3e94","15","","","","","","","","","","","","14966","","{""P0_Q0"":null,""P0_Q1"":{""movein"":0,""moveout"":3,""shopping"":0,""park"":0,""walk"":0,""school"":0}}","","","","","","2","[]","","","","",""
"sliderTrial","html-slider-response","140","585260","0.0-140.0","","656776a7904ae00d6b91d1dd","6568adea5ce04c53521c3e94","15","","","","","","","","","","","","2940","[""SV_PolicingMSA/MA_1486/IMG_8_1486.jpg"",""SV_PolicingMSA/MA_1486/IMG_9_1486.jpg"",""SV_PolicingMSA/MA_1486/IMG_5_1486.jpg"",""SV_PolicingMSA/MA_1486/IMG_4_1486.jpg"",""SV_PolicingMSA/MA_1486/IMG_0_1486.jpg"",""SV_PolicingMSA/MA_1486/IMG_12_1486.jpg"",""SV_PolicingMSA/MA_1486/IMG_11_1486.jpg"",""SV_PolicingMSA/MA_1486/IMG_13_1486.jpg""]","3","","","","","","2","","4","[""./rc_img/cop_condGroup_16_CommunitySafety_autoscaled.png"",""./rc_img/cop_condGroup_16_SafeStreets_autoscaled.png""]","3","",""
"sliderTrial","html-slider-response","141","587730","0.0-141.0","","656776a7904ae00d6b91d1dd","6568adea5ce04c53521c3e94","15","","","","","","","","","","","","2470","[""SV_PolicingMSA/MA_1486/IMG_8_1486.jpg"",""SV_PolicingMSA/MA_1486/IMG_9_1486.jpg"",""SV_PolicingMSA/MA_1486/IMG_5_1486.jpg"",""SV_PolicingMSA/MA_1486/IMG_4_1486.jpg"",""SV_PolicingMSA/MA_1486/IMG_0_1486.jpg"",""SV_PolicingMSA/MA_1486/IMG_12_1486.jpg"",""SV_PolicingMSA/MA_1486/IMG_11_1486.jpg"",""SV_PolicingMSA/MA_1486/IMG_13_1486.jpg""]","5","","","","","","2","","4","[""./rc_img/cop_condGroup_19_SafeStreets_autoscaled.png"",""./rc_img/cop_condGroup_19_CommunitySafety_autoscaled.png""]","3","",""
"sliderTrial","html-slider-response","142","591187","0.0-142.0","","656776a7904ae00d6b91d1dd","6568adea5ce04c53521c3e94","15","","","","","","","","","","","","3456","[""SV_PolicingMSA/MA_1486/IMG_8_1486.jpg"",""SV_PolicingMSA/MA_1486/IMG_9_1486.jpg"",""SV_PolicingMSA/MA_1486/IMG_5_1486.jpg"",""SV_PolicingMSA/MA_1486/IMG_4_1486.jpg"",""SV_PolicingMSA/MA_1486/IMG_0_1486.jpg"",""SV_PolicingMSA/MA_1486/IMG_12_1486.jpg"",""SV_PolicingMSA/MA_1486/IMG_11_1486.jpg"",""SV_PolicingMSA/MA_1486/IMG_13_1486.jpg""]","3","","","","","","2","","4","[""./rc_img/cop_condGroup_13_CommunitySafety_autoscaled.png"",""./rc_img/cop_condGroup_13_SafeStreets_autoscaled.png""]","3","",""
"sliderTrial","html-slider-response","143","596371","0.0-143.0","","656776a7904ae00d6b91d1dd","6568adea5ce04c53521c3e94","15","","","","","","","","","","","","5183","[""SV_PolicingMSA/MA_1486/IMG_8_1486.jpg"",""SV_PolicingMSA/MA_1486/IMG_9_1486.jpg"",""SV_PolicingMSA/MA_1486/IMG_5_1486.jpg"",""SV_PolicingMSA/MA_1486/IMG_4_1486.jpg"",""SV_PolicingMSA/MA_1486/IMG_0_1486.jpg"",""SV_PolicingMSA/MA_1486/IMG_12_1486.jpg"",""SV_PolicingMSA/MA_1486/IMG_11_1486.jpg"",""SV_PolicingMSA/MA_1486/IMG_13_1486.jpg""]","5","","","","","","2","","4","[""./rc_img/cop_condGroup_4_SafeStreets_autoscaled.png"",""./rc_img/cop_condGroup_4_CommunitySafety_autoscaled.png""]","3","",""
"sliderTrial","html-slider-response","144","599340","0.0-144.0","","656776a7904ae00d6b91d1dd","6568adea5ce04c53521c3e94","15","","","","","","","","","","","","2967","[""SV_PolicingMSA/MA_1486/IMG_8_1486.jpg"",""SV_PolicingMSA/MA_1486/IMG_9_1486.jpg"",""SV_PolicingMSA/MA_1486/IMG_5_1486.jpg"",""SV_PolicingMSA/MA_1486/IMG_4_1486.jpg"",""SV_PolicingMSA/MA_1486/IMG_0_1486.jpg"",""SV_PolicingMSA/MA_1486/IMG_12_1486.jpg"",""SV_PolicingMSA/MA_1486/IMG_11_1486.jpg"",""SV_PolicingMSA/MA_1486/IMG_13_1486.jpg""]","5","","","","","","2","","4","[""./rc_img/cop_condGroup_8_SafeStreets_autoscaled.png"",""./rc_img/cop_condGroup_8_CommunitySafety_autoscaled.png""]","3","",""
"demographics","survey-html-form","145","629245","0.0-145.0","","656776a7904ae00d6b91d1dd","6568adea5ce04c53521c3e94","15","","","","","","","","","","","","29904","","{""age"":"""",""sex"":""female"",""gender"":""woman"",""gender-self-describe"":""Female"",""zipcode"":""85037""}","","","","","","","","","","","",""
"demographics-list","survey","146","648211","0.0-146.0","","656776a7904ae00d6b91d1dd","6568adea5ce04c53521c3e94","15","","","","","","","","","","","","18949","","{""P0_Q0"":null,""race-ethnicity"":[""Black or of African ancestry""],""education"":""High school diploma or equivalent"",""P1_Q0"":null,""ideology"":""Liberal"",""P2_Q0"":null,""num-moves"":1,""P3_Q0"":null,""social-ladder"":3}","","","","","","","[]","","","","",""
"end-survey","survey-text","147","652049","0.0-147.0","","656776a7904ae00d6b91d1dd","6568adea5ce04c53521c3e94","15","","","","","","","","","","","","3828","","{""Q0"":""""}","","","","","","","","","","","","2"
"end-survey","html-button-response","148","657345","0.0-148.0","","656776a7904ae00d6b91d1dd","6568adea5ce04c53521c3e94","15","","","","","","","","","","","","5294","
    You've reached the end of the survey. <br><br> 
    <b>Do not close or refresh this window.</b><br>
    On the next page, you will be automatically redirected to Prolific. <br><br>

    <div class=""alert alert-warning""><b>
    </div>
","0","","","","","","","","","","","",""
