"task","trial_type","trial_index","time_elapsed","internal_node_id","subject_id","study_id","session_id","section","width","height","webaudio","browser","browser_version","mobile","os","fullscreen","vsync_rate","webcam","microphone","rt","stimulus","response","success","timeout","failed_images","failed_audio","failed_video","block","accuracy","slider_start","choices","standardized_response","correct","num_attention_checks_correct"
"pavlovia-init","pavlovia","0","7188","0.0-0.0","","656776a7904ae00d6b91d1dd","6568ac32da819028e0decbaa","1","","","","","","","","","","","","","","","","","","","","","","","","","",""
"browser-check","browser-check","1","16372","0.0-1.0","","656776a7904ae00d6b91d1dd","6568ac32da819028e0decbaa","1","1536","739","true","chrome","119.0.0","false","Windows 10","true","8.28","false","true","","","","","","","","","","","","","","",""
"consent","html-button-response","2","66927","0.0-2.0","","656776a7904ae00d6b91d1dd","6568ac32da819028e0decbaa","1","","","","","","","","","","","","50554","
        <div style=""font-size: 80%; max-width:700px"">
            <h2>CONSENT FORM</h2>
        
            <div style=""text-align: left"">
            <h4>DESCRIPTION</h4>
            <p>
            You will complete a short task where you give your impressions of various neighborhoods and assign individuals to those spaces, and answer some questions about your thoughts and opinions.<br>
            The University of Michigan Institutional Review Board Health Sciences and Behavioral Sciences has determined that this study is exempt from IRB oversight.
            </p>

            <h4>TIME INVOLVEMENT</h4>
            <p>Your participation will take approximately 15 minutes. You will receive $3.15 upon completion of the study.</p>
        
            <h4>RISKS AND BENEFITS</h4>
            <p>
            The risks associated with this study are minimal. The benefits which may reasonably be expected to result from this study are none. We cannot and do not guarantee or promise that you will receive any benefits from this study.
            </p>
          
            <h4>SUBJECT'S RIGHTS</h4>
            <p>
            If you have read this form and have decided to participate in this project, please understand your participation is voluntary and you have the right to withdraw your consent or discontinue participation at any time without penalty or loss of benefits to which you are otherwise entitled. The alternative is not to participate. You have the right to refuse to answer particular questions. Your individual privacy will be maintained in all published and written data resulting from the study.
            </p>

            <h4>HUMAN SUBJECT APPROVAL</h4>
            <p>
            This study is exempt from ongoing IRB review.
            </p>

            <h4>CONTACT INFORMATION</h4>
            If you have any questions, concerns or complaints about this research, its procedures, risks and benefits, contact the Protocol Director, Nicholas Camp, npcamp@umich.edu, (443) 851-6783. <br>

            If you have questions about your rights as a research participant, or wish to obtain information, ask questions or discuss any concerns about this study with someone other than the researcher(s), please contact the following:<br><br>
            University of Michigan<br>
            Health Sciences and Behavioral Sciences Institutional Review Board (IRB-HSBS)<br>
            2800 Plymouth Road<br>
            Building 520, Room 1169Ann Arbor, MI 48109-2800<br>
            Telephone: 734-936-0933 or toll free (866) 936-0933<br>
            Fax: 734-936-1852<br>
            E-mail: irbhsbs@umich.edu<br><br>

            You can also contact the University of Michigan Compliance Hotline at 1-866-990-0111. You may also print this consent form to keep.
            <br><br>
            <div class=""alert alert-warning""><b>
            Do you consent to participate in this study? If you consent to participate in this study, please click “Accept and Continue”. If you select ""Decline and Exit"", you will be exited from the survey. <br>
            </b></div>
            </div>
        </div>
    ","1","","","","","","","","","","","",""
"","preload","3","67000","0.0-3.0","","656776a7904ae00d6b91d1dd","6568ac32da819028e0decbaa","1","","","","","","","","","","","","","","","true","false","[]","[]","[]","","","","","","",""
"instructions","html-button-response","4","69177","0.0-4.0","","656776a7904ae00d6b91d1dd","6568ac32da819028e0decbaa","1","","","","","","","","","","","","2176","
        <div class=""text-container"">
        <h1>Welcome to the study!</h1>
        
        <div class=""text-left"">
            <p>
                In this study, we are interested in what people can tell about spaces from Google Street View images. <br> Google Street View takes pictures of streets used for Google Earth and Google Maps. <br>You’ll see Google Street View images of different places and answer some questions about each one.<br>
            </p>
        </div>
        <img src = ""assets/img/example.png"" width = 500px, height = auto>
        <br>
    <br>
    ","0","","","","","","","","","","","",""
"instructions","html-button-response","5","71075","0.0-5.0","","656776a7904ae00d6b91d1dd","6568ac32da819028e0decbaa","1","","","","","","","","","","","","1897","
    <div class=""text-container"">
        <div class=""text-center"">
            <p>Please remember that your answers are completely anonymous.<br>Go with your gut response- there are no right or wrong answers!</p>
        </div>
    <br>
","0","","","","","","","","","","","",""
"before_SVSlide_prompt","html-button-response","6","72796","0.0-6.0","","656776a7904ae00d6b91d1dd","6568ac32da819028e0decbaa","1","","","","","","","","","","","","1721","Click [Next] to see the next neighborhood!","0","","","","","","","","","","","",""
"street view slide show","image-button-response","7","73799","0.0-7.0","","656776a7904ae00d6b91d1dd","6568ac32da819028e0decbaa","1","","","","","","","","","","","","null","stimulus/SV_PolicingMSA/CA_2011/IMG_0_2011.jpg","null","","","","","","2","","","","","",""
"street view slide show","image-button-response","8","74800","0.0-8.0","","656776a7904ae00d6b91d1dd","6568ac32da819028e0decbaa","1","","","","","","","","","","","","null","stimulus/SV_PolicingMSA/CA_2011/IMG_1_2011.jpg","null","","","","","","2","","","","","",""
"street view slide show","image-button-response","9","75811","0.0-9.0","","656776a7904ae00d6b91d1dd","6568ac32da819028e0decbaa","1","","","","","","","","","","","","null","stimulus/SV_PolicingMSA/CA_2011/IMG_6_2011.jpg","null","","","","","","2","","","","","",""
"street view slide show","image-button-response","10","76826","0.0-10.0","","656776a7904ae00d6b91d1dd","6568ac32da819028e0decbaa","1","","","","","","","","","","","","null","stimulus/SV_PolicingMSA/CA_2011/IMG_14_2011.jpg","null","","","","","","2","","","","","",""
"street view slide show","image-button-response","11","77835","0.0-11.0","","656776a7904ae00d6b91d1dd","6568ac32da819028e0decbaa","1","","","","","","","","","","","","null","stimulus/SV_PolicingMSA/CA_2011/IMG_9_2011.jpg","null","","","","","","2","","","","","",""
"street view slide show","image-button-response","12","78850","0.0-12.0","","656776a7904ae00d6b91d1dd","6568ac32da819028e0decbaa","1","","","","","","","","","","","","null","stimulus/SV_PolicingMSA/CA_2011/IMG_13_2011.jpg","null","","","","","","2","","","","","",""
"street view slide show","image-button-response","13","79855","0.0-13.0","","656776a7904ae00d6b91d1dd","6568ac32da819028e0decbaa","1","","","","","","","","","","","","null","stimulus/SV_PolicingMSA/CA_2011/IMG_11_2011.jpg","null","","","","","","2","","","","","",""
"street view slide show","image-button-response","14","80865","0.0-14.0","","656776a7904ae00d6b91d1dd","6568ac32da819028e0decbaa","1","","","","","","","","","","","","null","stimulus/SV_PolicingMSA/CA_2011/IMG_5_2011.jpg","null","","","","","","2","","","","","",""
"dot matrix survey1","survey","15","88974","0.0-15.0","","656776a7904ae00d6b91d1dd","6568ac32da819028e0decbaa","1","","","","","","","","","","","","8084","","{""P0_Q0"":null,""P0_Q1"":{""wealthy"":2,""safe"":2,""walkable"":2,""traditional"":2,""diverse"":2}}","","","","","","2","[]","","","","",""
"dot matrix survey2","survey","16","99534","0.0-16.0","","656776a7904ae00d6b91d1dd","6568ac32da819028e0decbaa","1","","","","","","","","","","","","10554","","{""P0_Q0"":null,""P0_Q1"":{""violence"":1,""crime"":1,""drug"":1,""schools"":2,""opportunities"":2}}","","","","","","2","[]","","","","",""
"dot matrix survey3","survey","17","110257","0.0-17.0","","656776a7904ae00d6b91d1dd","6568ac32da819028e0decbaa","1","","","","","","","","","","","","10718","","{""P0_Q0"":null,""P0_Q1"":{""movein"":2,""moveout"":1,""shopping"":2,""walk"":2,""park"":2,""school"":2}}","","","","","","2","[]","","","","",""
"sliderTrial","html-slider-response","18","113796","0.0-18.0","","656776a7904ae00d6b91d1dd","6568ac32da819028e0decbaa","1","","","","","","","","","","","","3537","[""SV_PolicingMSA/CA_2011/IMG_0_2011.jpg"",""SV_PolicingMSA/CA_2011/IMG_1_2011.jpg"",""SV_PolicingMSA/CA_2011/IMG_6_2011.jpg"",""SV_PolicingMSA/CA_2011/IMG_14_2011.jpg"",""SV_PolicingMSA/CA_2011/IMG_9_2011.jpg"",""SV_PolicingMSA/CA_2011/IMG_13_2011.jpg"",""SV_PolicingMSA/CA_2011/IMG_11_2011.jpg"",""SV_PolicingMSA/CA_2011/IMG_5_2011.jpg""]","6","","","","","","2","","4","[""./rc_img/cop_condGroup_7_SafeStreets_autoscaled.png"",""./rc_img/cop_condGroup_7_CommunitySafety_autoscaled.png""]","2","",""
"sliderTrial","html-slider-response","19","116861","0.0-19.0","","656776a7904ae00d6b91d1dd","6568ac32da819028e0decbaa","1","","","","","","","","","","","","3062","[""SV_PolicingMSA/CA_2011/IMG_0_2011.jpg"",""SV_PolicingMSA/CA_2011/IMG_1_2011.jpg"",""SV_PolicingMSA/CA_2011/IMG_6_2011.jpg"",""SV_PolicingMSA/CA_2011/IMG_14_2011.jpg"",""SV_PolicingMSA/CA_2011/IMG_9_2011.jpg"",""SV_PolicingMSA/CA_2011/IMG_13_2011.jpg"",""SV_PolicingMSA/CA_2011/IMG_11_2011.jpg"",""SV_PolicingMSA/CA_2011/IMG_5_2011.jpg""]","6","","","","","","2","","4","[""./rc_img/cop_condGroup_16_SafeStreets_autoscaled.png"",""./rc_img/cop_condGroup_16_CommunitySafety_autoscaled.png""]","2","",""
"sliderTrial","html-slider-response","20","120445","0.0-20.0","","656776a7904ae00d6b91d1dd","6568ac32da819028e0decbaa","1","","","","","","","","","","","","3582","[""SV_PolicingMSA/CA_2011/IMG_0_2011.jpg"",""SV_PolicingMSA/CA_2011/IMG_1_2011.jpg"",""SV_PolicingMSA/CA_2011/IMG_6_2011.jpg"",""SV_PolicingMSA/CA_2011/IMG_14_2011.jpg"",""SV_PolicingMSA/CA_2011/IMG_9_2011.jpg"",""SV_PolicingMSA/CA_2011/IMG_13_2011.jpg"",""SV_PolicingMSA/CA_2011/IMG_11_2011.jpg"",""SV_PolicingMSA/CA_2011/IMG_5_2011.jpg""]","1","","","","","","2","","4","[""./rc_img/cop_condGroup_11_CommunitySafety_autoscaled.png"",""./rc_img/cop_condGroup_11_SafeStreets_autoscaled.png""]","1","",""
"sliderTrial","html-slider-response","21","124143","0.0-21.0","","656776a7904ae00d6b91d1dd","6568ac32da819028e0decbaa","1","","","","","","","","","","","","3695","[""SV_PolicingMSA/CA_2011/IMG_0_2011.jpg"",""SV_PolicingMSA/CA_2011/IMG_1_2011.jpg"",""SV_PolicingMSA/CA_2011/IMG_6_2011.jpg"",""SV_PolicingMSA/CA_2011/IMG_14_2011.jpg"",""SV_PolicingMSA/CA_2011/IMG_9_2011.jpg"",""SV_PolicingMSA/CA_2011/IMG_13_2011.jpg"",""SV_PolicingMSA/CA_2011/IMG_11_2011.jpg"",""SV_PolicingMSA/CA_2011/IMG_5_2011.jpg""]","2","","","","","","2","","4","[""./rc_img/cop_condGroup_18_CommunitySafety_autoscaled.png"",""./rc_img/cop_condGroup_18_SafeStreets_autoscaled.png""]","2","",""
"sliderTrial","html-slider-response","22","127211","0.0-22.0","","656776a7904ae00d6b91d1dd","6568ac32da819028e0decbaa","1","","","","","","","","","","","","3066","[""SV_PolicingMSA/CA_2011/IMG_0_2011.jpg"",""SV_PolicingMSA/CA_2011/IMG_1_2011.jpg"",""SV_PolicingMSA/CA_2011/IMG_6_2011.jpg"",""SV_PolicingMSA/CA_2011/IMG_14_2011.jpg"",""SV_PolicingMSA/CA_2011/IMG_9_2011.jpg"",""SV_PolicingMSA/CA_2011/IMG_13_2011.jpg"",""SV_PolicingMSA/CA_2011/IMG_11_2011.jpg"",""SV_PolicingMSA/CA_2011/IMG_5_2011.jpg""]","2","","","","","","2","","4","[""./rc_img/cop_condGroup_14_CommunitySafety_autoscaled.png"",""./rc_img/cop_condGroup_14_SafeStreets_autoscaled.png""]","2","",""
"before_SVSlide_prompt","html-button-response","23","128743","0.0-23.0","","656776a7904ae00d6b91d1dd","6568ac32da819028e0decbaa","1","","","","","","","","","","","","1531","Click [Next] to see the next neighborhood!","0","","","","","","","","","","","",""
"street view slide show","image-button-response","24","129746","0.0-24.0","","656776a7904ae00d6b91d1dd","6568ac32da819028e0decbaa","1","","","","","","","","","","","","null","stimulus/SV_PolicingMSA/CA_2537/IMG_10_2537.jpg","null","","","","","","2","","","","","",""
"street view slide show","image-button-response","25","130759","0.0-25.0","","656776a7904ae00d6b91d1dd","6568ac32da819028e0decbaa","1","","","","","","","","","","","","null","stimulus/SV_PolicingMSA/CA_2537/IMG_4_2537.jpg","null","","","","","","2","","","","","",""
"street view slide show","image-button-response","26","131771","0.0-26.0","","656776a7904ae00d6b91d1dd","6568ac32da819028e0decbaa","1","","","","","","","","","","","","null","stimulus/SV_PolicingMSA/CA_2537/IMG_9_2537.jpg","null","","","","","","2","","","","","",""
"street view slide show","image-button-response","27","132783","0.0-27.0","","656776a7904ae00d6b91d1dd","6568ac32da819028e0decbaa","1","","","","","","","","","","","","null","stimulus/SV_PolicingMSA/CA_2537/IMG_8_2537.jpg","null","","","","","","2","","","","","",""
"street view slide show","image-button-response","28","133800","0.0-28.0","","656776a7904ae00d6b91d1dd","6568ac32da819028e0decbaa","1","","","","","","","","","","","","null","stimulus/SV_PolicingMSA/CA_2537/IMG_6_2537.jpg","null","","","","","","2","","","","","",""
"street view slide show","image-button-response","29","134817","0.0-29.0","","656776a7904ae00d6b91d1dd","6568ac32da819028e0decbaa","1","","","","","","","","","","","","null","stimulus/SV_PolicingMSA/CA_2537/IMG_7_2537.jpg","null","","","","","","2","","","","","",""
"street view slide show","image-button-response","30","135832","0.0-30.0","","656776a7904ae00d6b91d1dd","6568ac32da819028e0decbaa","1","","","","","","","","","","","","null","stimulus/SV_PolicingMSA/CA_2537/IMG_12_2537.jpg","null","","","","","","2","","","","","",""
"street view slide show","image-button-response","31","136838","0.0-31.0","","656776a7904ae00d6b91d1dd","6568ac32da819028e0decbaa","1","","","","","","","","","","","","null","stimulus/SV_PolicingMSA/CA_2537/IMG_2_2537.jpg","null","","","","","","2","","","","","",""
"dot matrix survey1","survey","32","164916","0.0-32.0","","656776a7904ae00d6b91d1dd","6568ac32da819028e0decbaa","1","","","","","","","","","","","","28072","","{""P0_Q0"":null,""P0_Q1"":{""wealthy"":1,""safe"":2,""walkable"":2,""traditional"":2,""diverse"":2}}","","","","","","2","[]","","","","",""
"dot matrix survey2","survey","33","173770","0.0-33.0","","656776a7904ae00d6b91d1dd","6568ac32da819028e0decbaa","1","","","","","","","","","","","","8848","","{""P0_Q0"":null,""P0_Q1"":{""violence"":1,""crime"":1,""drug"":1,""schools"":2,""opportunities"":2}}","","","","","","2","[]","","","","",""
"dot matrix survey3","survey","34","192231","0.0-34.0","","656776a7904ae00d6b91d1dd","6568ac32da819028e0decbaa","1","","","","","","","","","","","","18458","","{""P0_Q0"":null,""P0_Q1"":{""movein"":2,""moveout"":1,""shopping"":2,""walk"":2,""park"":2,""school"":2}}","","","","","","2","[]","","","","",""
"sliderTrial","html-slider-response","35","197523","0.0-35.0","","656776a7904ae00d6b91d1dd","6568ac32da819028e0decbaa","1","","","","","","","","","","","","5290","[""SV_PolicingMSA/CA_2537/IMG_10_2537.jpg"",""SV_PolicingMSA/CA_2537/IMG_4_2537.jpg"",""SV_PolicingMSA/CA_2537/IMG_9_2537.jpg"",""SV_PolicingMSA/CA_2537/IMG_8_2537.jpg"",""SV_PolicingMSA/CA_2537/IMG_6_2537.jpg"",""SV_PolicingMSA/CA_2537/IMG_7_2537.jpg"",""SV_PolicingMSA/CA_2537/IMG_12_2537.jpg"",""SV_PolicingMSA/CA_2537/IMG_2_2537.jpg""]","1","","","","","","2","","4","[""./rc_img/cop_condGroup_13_CommunitySafety_autoscaled.png"",""./rc_img/cop_condGroup_13_SafeStreets_autoscaled.png""]","1","",""
"sliderTrial","html-slider-response","36","202124","0.0-36.0","","656776a7904ae00d6b91d1dd","6568ac32da819028e0decbaa","1","","","","","","","","","","","","4599","[""SV_PolicingMSA/CA_2537/IMG_10_2537.jpg"",""SV_PolicingMSA/CA_2537/IMG_4_2537.jpg"",""SV_PolicingMSA/CA_2537/IMG_9_2537.jpg"",""SV_PolicingMSA/CA_2537/IMG_8_2537.jpg"",""SV_PolicingMSA/CA_2537/IMG_6_2537.jpg"",""SV_PolicingMSA/CA_2537/IMG_7_2537.jpg"",""SV_PolicingMSA/CA_2537/IMG_12_2537.jpg"",""SV_PolicingMSA/CA_2537/IMG_2_2537.jpg""]","1","","","","","","2","","4","[""./rc_img/cop_condGroup_20_CommunitySafety_autoscaled.png"",""./rc_img/cop_condGroup_20_SafeStreets_autoscaled.png""]","1","",""
"sliderTrial","html-slider-response","37","205393","0.0-37.0","","656776a7904ae00d6b91d1dd","6568ac32da819028e0decbaa","1","","","","","","","","","","","","3267","[""SV_PolicingMSA/CA_2537/IMG_10_2537.jpg"",""SV_PolicingMSA/CA_2537/IMG_4_2537.jpg"",""SV_PolicingMSA/CA_2537/IMG_9_2537.jpg"",""SV_PolicingMSA/CA_2537/IMG_8_2537.jpg"",""SV_PolicingMSA/CA_2537/IMG_6_2537.jpg"",""SV_PolicingMSA/CA_2537/IMG_7_2537.jpg"",""SV_PolicingMSA/CA_2537/IMG_12_2537.jpg"",""SV_PolicingMSA/CA_2537/IMG_2_2537.jpg""]","7","","","","","","2","","4","[""./rc_img/cop_condGroup_4_SafeStreets_autoscaled.png"",""./rc_img/cop_condGroup_4_CommunitySafety_autoscaled.png""]","1","",""
"sliderTrial","html-slider-response","38","210324","0.0-38.0","","656776a7904ae00d6b91d1dd","6568ac32da819028e0decbaa","1","","","","","","","","","","","","4929","[""SV_PolicingMSA/CA_2537/IMG_10_2537.jpg"",""SV_PolicingMSA/CA_2537/IMG_4_2537.jpg"",""SV_PolicingMSA/CA_2537/IMG_9_2537.jpg"",""SV_PolicingMSA/CA_2537/IMG_8_2537.jpg"",""SV_PolicingMSA/CA_2537/IMG_6_2537.jpg"",""SV_PolicingMSA/CA_2537/IMG_7_2537.jpg"",""SV_PolicingMSA/CA_2537/IMG_12_2537.jpg"",""SV_PolicingMSA/CA_2537/IMG_2_2537.jpg""]","7","","","","","","2","","4","[""./rc_img/cop_condGroup_19_SafeStreets_autoscaled.png"",""./rc_img/cop_condGroup_19_CommunitySafety_autoscaled.png""]","1","",""
"sliderTrial","html-slider-response","39","214189","0.0-39.0","","656776a7904ae00d6b91d1dd","6568ac32da819028e0decbaa","1","","","","","","","","","","","","3863","[""SV_PolicingMSA/CA_2537/IMG_10_2537.jpg"",""SV_PolicingMSA/CA_2537/IMG_4_2537.jpg"",""SV_PolicingMSA/CA_2537/IMG_9_2537.jpg"",""SV_PolicingMSA/CA_2537/IMG_8_2537.jpg"",""SV_PolicingMSA/CA_2537/IMG_6_2537.jpg"",""SV_PolicingMSA/CA_2537/IMG_7_2537.jpg"",""SV_PolicingMSA/CA_2537/IMG_12_2537.jpg"",""SV_PolicingMSA/CA_2537/IMG_2_2537.jpg""]","2","","","","","","2","","4","[""./rc_img/cop_condGroup_15_CommunitySafety_autoscaled.png"",""./rc_img/cop_condGroup_15_SafeStreets_autoscaled.png""]","2","",""
"before_SVSlide_prompt","html-button-response","40","215723","0.0-40.0","","656776a7904ae00d6b91d1dd","6568ac32da819028e0decbaa","1","","","","","","","","","","","","1532","Click [Next] to see the next neighborhood!","0","","","","","","","","","","","",""
"street view slide show","image-button-response","41","216726","0.0-41.0","","656776a7904ae00d6b91d1dd","6568ac32da819028e0decbaa","1","","","","","","","","","","","","null","stimulus/SV_PolicingMSA/CA_2009/IMG_8_2009.jpg","null","","","","","","1","","","","","",""
"street view slide show","image-button-response","42","217742","0.0-42.0","","656776a7904ae00d6b91d1dd","6568ac32da819028e0decbaa","1","","","","","","","","","","","","null","stimulus/SV_PolicingMSA/CA_2009/IMG_9_2009.jpg","null","","","","","","1","","","","","",""
"street view slide show","image-button-response","43","218758","0.0-43.0","","656776a7904ae00d6b91d1dd","6568ac32da819028e0decbaa","1","","","","","","","","","","","","null","stimulus/SV_PolicingMSA/CA_2009/IMG_1_2009.jpg","null","","","","","","1","","","","","",""
"street view slide show","image-button-response","44","219773","0.0-44.0","","656776a7904ae00d6b91d1dd","6568ac32da819028e0decbaa","1","","","","","","","","","","","","null","stimulus/SV_PolicingMSA/CA_2009/IMG_6_2009.jpg","null","","","","","","1","","","","","",""
"street view slide show","image-button-response","45","220775","0.0-45.0","","656776a7904ae00d6b91d1dd","6568ac32da819028e0decbaa","1","","","","","","","","","","","","null","stimulus/SV_PolicingMSA/CA_2009/IMG_5_2009.jpg","null","","","","","","1","","","","","",""
"street view slide show","image-button-response","46","221779","0.0-46.0","","656776a7904ae00d6b91d1dd","6568ac32da819028e0decbaa","1","","","","","","","","","","","","null","stimulus/SV_PolicingMSA/CA_2009/IMG_2_2009.jpg","null","","","","","","1","","","","","",""
"street view slide show","image-button-response","47","222790","0.0-47.0","","656776a7904ae00d6b91d1dd","6568ac32da819028e0decbaa","1","","","","","","","","","","","","null","stimulus/SV_PolicingMSA/CA_2009/IMG_0_2009.jpg","null","","","","","","1","","","","","",""
"street view slide show","image-button-response","48","223799","0.0-48.0","","656776a7904ae00d6b91d1dd","6568ac32da819028e0decbaa","1","","","","","","","","","","","","null","stimulus/SV_PolicingMSA/CA_2009/IMG_3_2009.jpg","null","","","","","","1","","","","","",""
"dot matrix survey1","survey","49","232531","0.0-49.0","","656776a7904ae00d6b91d1dd","6568ac32da819028e0decbaa","1","","","","","","","","","","","","8726","","{""P0_Q0"":null,""P0_Q1"":{""wealthy"":1,""safe"":2,""walkable"":2,""traditional"":2,""diverse"":2}}","","","","","","1","[]","","","","",""
"dot matrix survey2","survey","50","240529","0.0-50.0","","656776a7904ae00d6b91d1dd","6568ac32da819028e0decbaa","1","","","","","","","","","","","","7995","","{""P0_Q0"":null,""P0_Q1"":{""violence"":1,""crime"":1,""drug"":1,""schools"":2,""opportunities"":2}}","","","","","","1","[]","","","","",""
"dot matrix survey3","survey","51","252064","0.0-51.0","","656776a7904ae00d6b91d1dd","6568ac32da819028e0decbaa","1","","","","","","","","","","","","11530","","{""P0_Q0"":null,""P0_Q1"":{""movein"":2,""moveout"":1,""shopping"":2,""walk"":2,""park"":2,""school"":2}}","","","","","","1","[]","","","","",""
"sliderTrial","html-slider-response","52","255873","0.0-52.0","","656776a7904ae00d6b91d1dd","6568ac32da819028e0decbaa","1","","","","","","","","","","","","3808","[""SV_PolicingMSA/CA_2009/IMG_8_2009.jpg"",""SV_PolicingMSA/CA_2009/IMG_9_2009.jpg"",""SV_PolicingMSA/CA_2009/IMG_1_2009.jpg"",""SV_PolicingMSA/CA_2009/IMG_6_2009.jpg"",""SV_PolicingMSA/CA_2009/IMG_5_2009.jpg"",""SV_PolicingMSA/CA_2009/IMG_2_2009.jpg"",""SV_PolicingMSA/CA_2009/IMG_0_2009.jpg"",""SV_PolicingMSA/CA_2009/IMG_3_2009.jpg""]","1","","","","","","1","","4","[""./rc_img/cop_condGroup_10_CommunitySafety_autoscaled.png"",""./rc_img/cop_condGroup_10_SafeStreets_autoscaled.png""]","1","",""
"sliderTrial","html-slider-response","53","258955","0.0-53.0","","656776a7904ae00d6b91d1dd","6568ac32da819028e0decbaa","1","","","","","","","","","","","","3081","[""SV_PolicingMSA/CA_2009/IMG_8_2009.jpg"",""SV_PolicingMSA/CA_2009/IMG_9_2009.jpg"",""SV_PolicingMSA/CA_2009/IMG_1_2009.jpg"",""SV_PolicingMSA/CA_2009/IMG_6_2009.jpg"",""SV_PolicingMSA/CA_2009/IMG_5_2009.jpg"",""SV_PolicingMSA/CA_2009/IMG_2_2009.jpg"",""SV_PolicingMSA/CA_2009/IMG_0_2009.jpg"",""SV_PolicingMSA/CA_2009/IMG_3_2009.jpg""]","6","","","","","","1","","4","[""./rc_img/cop_condGroup_2_SafeStreets_autoscaled.png"",""./rc_img/cop_condGroup_2_CommunitySafety_autoscaled.png""]","2","",""
"sliderTrial_attention","html-slider-response","54","268970","0.0-54.0","","656776a7904ae00d6b91d1dd","6568ac32da819028e0decbaa","1","","","","","","","","","","","","null","[""SV_PolicingMSA/CA_2009/IMG_8_2009.jpg"",""SV_PolicingMSA/CA_2009/IMG_9_2009.jpg"",""SV_PolicingMSA/CA_2009/IMG_1_2009.jpg"",""SV_PolicingMSA/CA_2009/IMG_6_2009.jpg"",""SV_PolicingMSA/CA_2009/IMG_5_2009.jpg"",""SV_PolicingMSA/CA_2009/IMG_2_2009.jpg"",""SV_PolicingMSA/CA_2009/IMG_0_2009.jpg"",""SV_PolicingMSA/CA_2009/IMG_3_2009.jpg""]","null","","","","","","1","","4","[""./assets/img/attnchk.png"",""./assets/img/attnchk.png""]","","true",""
"sliderTrial","html-slider-response","55","273291","0.0-55.0","","656776a7904ae00d6b91d1dd","6568ac32da819028e0decbaa","1","","","","","","","","","","","","4318","[""SV_PolicingMSA/CA_2009/IMG_8_2009.jpg"",""SV_PolicingMSA/CA_2009/IMG_9_2009.jpg"",""SV_PolicingMSA/CA_2009/IMG_1_2009.jpg"",""SV_PolicingMSA/CA_2009/IMG_6_2009.jpg"",""SV_PolicingMSA/CA_2009/IMG_5_2009.jpg"",""SV_PolicingMSA/CA_2009/IMG_2_2009.jpg"",""SV_PolicingMSA/CA_2009/IMG_0_2009.jpg"",""SV_PolicingMSA/CA_2009/IMG_3_2009.jpg""]","6","","","","","","1","","4","[""./rc_img/cop_condGroup_6_SafeStreets_autoscaled.png"",""./rc_img/cop_condGroup_6_CommunitySafety_autoscaled.png""]","2","",""
"sliderTrial","html-slider-response","56","276871","0.0-56.0","","656776a7904ae00d6b91d1dd","6568ac32da819028e0decbaa","1","","","","","","","","","","","","3579","[""SV_PolicingMSA/CA_2009/IMG_8_2009.jpg"",""SV_PolicingMSA/CA_2009/IMG_9_2009.jpg"",""SV_PolicingMSA/CA_2009/IMG_1_2009.jpg"",""SV_PolicingMSA/CA_2009/IMG_6_2009.jpg"",""SV_PolicingMSA/CA_2009/IMG_5_2009.jpg"",""SV_PolicingMSA/CA_2009/IMG_2_2009.jpg"",""SV_PolicingMSA/CA_2009/IMG_0_2009.jpg"",""SV_PolicingMSA/CA_2009/IMG_3_2009.jpg""]","2","","","","","","1","","4","[""./rc_img/cop_condGroup_12_CommunitySafety_autoscaled.png"",""./rc_img/cop_condGroup_12_SafeStreets_autoscaled.png""]","2","",""
"sliderTrial","html-slider-response","57","281854","0.0-57.0","","656776a7904ae00d6b91d1dd","6568ac32da819028e0decbaa","1","","","","","","","","","","","","4981","[""SV_PolicingMSA/CA_2009/IMG_8_2009.jpg"",""SV_PolicingMSA/CA_2009/IMG_9_2009.jpg"",""SV_PolicingMSA/CA_2009/IMG_1_2009.jpg"",""SV_PolicingMSA/CA_2009/IMG_6_2009.jpg"",""SV_PolicingMSA/CA_2009/IMG_5_2009.jpg"",""SV_PolicingMSA/CA_2009/IMG_2_2009.jpg"",""SV_PolicingMSA/CA_2009/IMG_0_2009.jpg"",""SV_PolicingMSA/CA_2009/IMG_3_2009.jpg""]","1","","","","","","1","","4","[""./rc_img/cop_condGroup_1_CommunitySafety_autoscaled.png"",""./rc_img/cop_condGroup_1_SafeStreets_autoscaled.png""]","1","",""
"before_SVSlide_prompt","html-button-response","58","283702","0.0-58.0","","656776a7904ae00d6b91d1dd","6568ac32da819028e0decbaa","1","","","","","","","","","","","","1848","Click [Next] to see the next neighborhood!","0","","","","","","","","","","","",""
"street view slide show","image-button-response","59","284707","0.0-59.0","","656776a7904ae00d6b91d1dd","6568ac32da819028e0decbaa","1","","","","","","","","","","","","null","stimulus/SV_PolicingMSA/CA_8990/IMG_8_8990.jpg","null","","","","","","3","","","","","",""
"street view slide show","image-button-response","60","285723","0.0-60.0","","656776a7904ae00d6b91d1dd","6568ac32da819028e0decbaa","1","","","","","","","","","","","","null","stimulus/SV_PolicingMSA/CA_8990/IMG_9_8990.jpg","null","","","","","","3","","","","","",""
"street view slide show","image-button-response","61","286738","0.0-61.0","","656776a7904ae00d6b91d1dd","6568ac32da819028e0decbaa","1","","","","","","","","","","","","null","stimulus/SV_PolicingMSA/CA_8990/IMG_13_8990.jpg","null","","","","","","3","","","","","",""
"street view slide show","image-button-response","62","287752","0.0-62.0","","656776a7904ae00d6b91d1dd","6568ac32da819028e0decbaa","1","","","","","","","","","","","","null","stimulus/SV_PolicingMSA/CA_8990/IMG_5_8990.jpg","null","","","","","","3","","","","","",""
"street view slide show","image-button-response","63","288755","0.0-63.0","","656776a7904ae00d6b91d1dd","6568ac32da819028e0decbaa","1","","","","","","","","","","","","null","stimulus/SV_PolicingMSA/CA_8990/IMG_2_8990.jpg","null","","","","","","3","","","","","",""
"street view slide show","image-button-response","64","289757","0.0-64.0","","656776a7904ae00d6b91d1dd","6568ac32da819028e0decbaa","1","","","","","","","","","","","","null","stimulus/SV_PolicingMSA/CA_8990/IMG_14_8990.jpg","null","","","","","","3","","","","","",""
"street view slide show","image-button-response","65","290765","0.0-65.0","","656776a7904ae00d6b91d1dd","6568ac32da819028e0decbaa","1","","","","","","","","","","","","null","stimulus/SV_PolicingMSA/CA_8990/IMG_12_8990.jpg","null","","","","","","3","","","","","",""
"street view slide show","image-button-response","66","291773","0.0-66.0","","656776a7904ae00d6b91d1dd","6568ac32da819028e0decbaa","1","","","","","","","","","","","","null","stimulus/SV_PolicingMSA/CA_8990/IMG_10_8990.jpg","null","","","","","","3","","","","","",""
"dot matrix survey1","survey","67","302374","0.0-67.0","","656776a7904ae00d6b91d1dd","6568ac32da819028e0decbaa","1","","","","","","","","","","","","10588","","{""P0_Q0"":null,""P0_Q1"":{""wealthy"":1,""safe"":2,""walkable"":2,""traditional"":2,""diverse"":2}}","","","","","","3","[]","","","","",""
"dot matrix survey2","survey","68","311143","0.0-68.0","","656776a7904ae00d6b91d1dd","6568ac32da819028e0decbaa","1","","","","","","","","","","","","8764","","{""P0_Q0"":null,""P0_Q1"":{""violence"":1,""crime"":1,""drug"":1,""schools"":2,""opportunities"":2}}","","","","","","3","[]","","","","",""
"dot matrix survey3","survey","69","324428","0.0-69.0","","656776a7904ae00d6b91d1dd","6568ac32da819028e0decbaa","1","","","","","","","","","","","","13281","","{""P0_Q0"":null,""P0_Q1"":{""movein"":2,""moveout"":1,""shopping"":2,""walk"":2,""park"":2,""school"":2}}","","","","","","3","[]","","","","",""
"sliderTrial","html-slider-response","70","329402","0.0-70.0","","656776a7904ae00d6b91d1dd","6568ac32da819028e0decbaa","1","","","","","","","","","","","","4972","[""SV_PolicingMSA/CA_8990/IMG_8_8990.jpg"",""SV_PolicingMSA/CA_8990/IMG_9_8990.jpg"",""SV_PolicingMSA/CA_8990/IMG_13_8990.jpg"",""SV_PolicingMSA/CA_8990/IMG_5_8990.jpg"",""SV_PolicingMSA/CA_8990/IMG_2_8990.jpg"",""SV_PolicingMSA/CA_8990/IMG_14_8990.jpg"",""SV_PolicingMSA/CA_8990/IMG_12_8990.jpg"",""SV_PolicingMSA/CA_8990/IMG_10_8990.jpg""]","6","","","","","","3","","4","[""./rc_img/cop_condGroup_5_SafeStreets_autoscaled.png"",""./rc_img/cop_condGroup_5_CommunitySafety_autoscaled.png""]","2","",""
"sliderTrial","html-slider-response","71","332919","0.0-71.0","","656776a7904ae00d6b91d1dd","6568ac32da819028e0decbaa","1","","","","","","","","","","","","3515","[""SV_PolicingMSA/CA_8990/IMG_8_8990.jpg"",""SV_PolicingMSA/CA_8990/IMG_9_8990.jpg"",""SV_PolicingMSA/CA_8990/IMG_13_8990.jpg"",""SV_PolicingMSA/CA_8990/IMG_5_8990.jpg"",""SV_PolicingMSA/CA_8990/IMG_2_8990.jpg"",""SV_PolicingMSA/CA_8990/IMG_14_8990.jpg"",""SV_PolicingMSA/CA_8990/IMG_12_8990.jpg"",""SV_PolicingMSA/CA_8990/IMG_10_8990.jpg""]","1","","","","","","3","","4","[""./rc_img/cop_condGroup_9_CommunitySafety_autoscaled.png"",""./rc_img/cop_condGroup_9_SafeStreets_autoscaled.png""]","1","",""
"sliderTrial","html-slider-response","72","336717","0.0-72.0","","656776a7904ae00d6b91d1dd","6568ac32da819028e0decbaa","1","","","","","","","","","","","","3795","[""SV_PolicingMSA/CA_8990/IMG_8_8990.jpg"",""SV_PolicingMSA/CA_8990/IMG_9_8990.jpg"",""SV_PolicingMSA/CA_8990/IMG_13_8990.jpg"",""SV_PolicingMSA/CA_8990/IMG_5_8990.jpg"",""SV_PolicingMSA/CA_8990/IMG_2_8990.jpg"",""SV_PolicingMSA/CA_8990/IMG_14_8990.jpg"",""SV_PolicingMSA/CA_8990/IMG_12_8990.jpg"",""SV_PolicingMSA/CA_8990/IMG_10_8990.jpg""]","7","","","","","","3","","4","[""./rc_img/cop_condGroup_3_SafeStreets_autoscaled.png"",""./rc_img/cop_condGroup_3_CommunitySafety_autoscaled.png""]","1","",""
"sliderTrial","html-slider-response","73","340102","0.0-73.0","","656776a7904ae00d6b91d1dd","6568ac32da819028e0decbaa","1","","","","","","","","","","","","3382","[""SV_PolicingMSA/CA_8990/IMG_8_8990.jpg"",""SV_PolicingMSA/CA_8990/IMG_9_8990.jpg"",""SV_PolicingMSA/CA_8990/IMG_13_8990.jpg"",""SV_PolicingMSA/CA_8990/IMG_5_8990.jpg"",""SV_PolicingMSA/CA_8990/IMG_2_8990.jpg"",""SV_PolicingMSA/CA_8990/IMG_14_8990.jpg"",""SV_PolicingMSA/CA_8990/IMG_12_8990.jpg"",""SV_PolicingMSA/CA_8990/IMG_10_8990.jpg""]","1","","","","","","3","","4","[""./rc_img/cop_condGroup_17_CommunitySafety_autoscaled.png"",""./rc_img/cop_condGroup_17_SafeStreets_autoscaled.png""]","1","",""
"sliderTrial","html-slider-response","74","343818","0.0-74.0","","656776a7904ae00d6b91d1dd","6568ac32da819028e0decbaa","1","","","","","","","","","","","","3715","[""SV_PolicingMSA/CA_8990/IMG_8_8990.jpg"",""SV_PolicingMSA/CA_8990/IMG_9_8990.jpg"",""SV_PolicingMSA/CA_8990/IMG_13_8990.jpg"",""SV_PolicingMSA/CA_8990/IMG_5_8990.jpg"",""SV_PolicingMSA/CA_8990/IMG_2_8990.jpg"",""SV_PolicingMSA/CA_8990/IMG_14_8990.jpg"",""SV_PolicingMSA/CA_8990/IMG_12_8990.jpg"",""SV_PolicingMSA/CA_8990/IMG_10_8990.jpg""]","1","","","","","","3","","4","[""./rc_img/cop_condGroup_8_CommunitySafety_autoscaled.png"",""./rc_img/cop_condGroup_8_SafeStreets_autoscaled.png""]","1","",""
"half-way","html-button-response","75","359575","0.0-75.0","","656776a7904ae00d6b91d1dd","6568ac32da819028e0decbaa","1","","","","","","","","","","","","null","
    <h3>You are now half way through the study.</h3>
    <p>Please take a quick, 15-second break before you continue.</p>
    <img src='assets/img/countdown-15.gif'>
    <p>The study will automatically advance forward after the countdown is complete. <br> However, you may click ""Next"" to advance forward now if you wish.</p>
    ","null","","","","","","","","","","","",""
"before_SVSlide_prompt","html-button-response","76","362067","0.0-76.0","","656776a7904ae00d6b91d1dd","6568ac32da819028e0decbaa","1","","","","","","","","","","","","2491","Click [Next] to see the next neighborhood!","0","","","","","","","","","","","",""
"street view slide show","image-button-response","77","363073","0.0-77.0","","656776a7904ae00d6b91d1dd","6568ac32da819028e0decbaa","1","","","","","","","","","","","","null","stimulus/SV_PolicingMSA/CA_2534/IMG_14_2534.jpg","null","","","","","","0","","","","","",""
"street view slide show","image-button-response","78","364088","0.0-78.0","","656776a7904ae00d6b91d1dd","6568ac32da819028e0decbaa","1","","","","","","","","","","","","null","stimulus/SV_PolicingMSA/CA_2534/IMG_5_2534.jpg","null","","","","","","0","","","","","",""
"street view slide show","image-button-response","79","365095","0.0-79.0","","656776a7904ae00d6b91d1dd","6568ac32da819028e0decbaa","1","","","","","","","","","","","","null","stimulus/SV_PolicingMSA/CA_2534/IMG_1_2534.jpg","null","","","","","","0","","","","","",""
"street view slide show","image-button-response","80","366103","0.0-80.0","","656776a7904ae00d6b91d1dd","6568ac32da819028e0decbaa","1","","","","","","","","","","","","null","stimulus/SV_PolicingMSA/CA_2534/IMG_11_2534.jpg","null","","","","","","0","","","","","",""
"street view slide show","image-button-response","81","367119","0.0-81.0","","656776a7904ae00d6b91d1dd","6568ac32da819028e0decbaa","1","","","","","","","","","","","","null","stimulus/SV_PolicingMSA/CA_2534/IMG_8_2534.jpg","null","","","","","","0","","","","","",""
"street view slide show","image-button-response","82","368122","0.0-82.0","","656776a7904ae00d6b91d1dd","6568ac32da819028e0decbaa","1","","","","","","","","","","","","null","stimulus/SV_PolicingMSA/CA_2534/IMG_10_2534.jpg","null","","","","","","0","","","","","",""
"street view slide show","image-button-response","83","369124","0.0-83.0","","656776a7904ae00d6b91d1dd","6568ac32da819028e0decbaa","1","","","","","","","","","","","","null","stimulus/SV_PolicingMSA/CA_2534/IMG_4_2534.jpg","null","","","","","","0","","","","","",""
"street view slide show","image-button-response","84","370138","0.0-84.0","","656776a7904ae00d6b91d1dd","6568ac32da819028e0decbaa","1","","","","","","","","","","","","null","stimulus/SV_PolicingMSA/CA_2534/IMG_6_2534.jpg","null","","","","","","0","","","","","",""
"dot matrix survey1","survey","85","433310","0.0-85.0","","656776a7904ae00d6b91d1dd","6568ac32da819028e0decbaa","1","","","","","","","","","","","","63165","","{""P0_Q0"":null,""P0_Q1"":{""wealthy"":2,""safe"":2,""walkable"":2,""traditional"":2,""diverse"":2}}","","","","","","0","[]","","","","",""
"dot matrix survey2","survey","86","447755","0.0-86.0","","656776a7904ae00d6b91d1dd","6568ac32da819028e0decbaa","1","","","","","","","","","","","","14441","","{""P0_Q0"":null,""P0_Q1"":{""violence"":1,""crime"":1,""drug"":1,""schools"":2,""opportunities"":2}}","","","","","","0","[]","","","","",""
"dot matrix survey3","survey","87","458241","0.0-87.0","","656776a7904ae00d6b91d1dd","6568ac32da819028e0decbaa","1","","","","","","","","","","","","10481","","{""P0_Q0"":null,""P0_Q1"":{""movein"":2,""moveout"":1,""shopping"":2,""walk"":2,""park"":2,""school"":2}}","","","","","","0","[]","","","","",""
"sliderTrial","html-slider-response","88","462746","0.0-88.0","","656776a7904ae00d6b91d1dd","6568ac32da819028e0decbaa","1","","","","","","","","","","","","4503","[""SV_PolicingMSA/CA_2534/IMG_14_2534.jpg"",""SV_PolicingMSA/CA_2534/IMG_5_2534.jpg"",""SV_PolicingMSA/CA_2534/IMG_1_2534.jpg"",""SV_PolicingMSA/CA_2534/IMG_11_2534.jpg"",""SV_PolicingMSA/CA_2534/IMG_8_2534.jpg"",""SV_PolicingMSA/CA_2534/IMG_10_2534.jpg"",""SV_PolicingMSA/CA_2534/IMG_4_2534.jpg"",""SV_PolicingMSA/CA_2534/IMG_6_2534.jpg""]","1","","","","","","0","","4","[""./rc_img/cop_condGroup_13_CommunitySafety_autoscaled.png"",""./rc_img/cop_condGroup_13_SafeStreets_autoscaled.png""]","1","",""
"sliderTrial","html-slider-response","89","467525","0.0-89.0","","656776a7904ae00d6b91d1dd","6568ac32da819028e0decbaa","1","","","","","","","","","","","","4776","[""SV_PolicingMSA/CA_2534/IMG_14_2534.jpg"",""SV_PolicingMSA/CA_2534/IMG_5_2534.jpg"",""SV_PolicingMSA/CA_2534/IMG_1_2534.jpg"",""SV_PolicingMSA/CA_2534/IMG_11_2534.jpg"",""SV_PolicingMSA/CA_2534/IMG_8_2534.jpg"",""SV_PolicingMSA/CA_2534/IMG_10_2534.jpg"",""SV_PolicingMSA/CA_2534/IMG_4_2534.jpg"",""SV_PolicingMSA/CA_2534/IMG_6_2534.jpg""]","1","","","","","","0","","4","[""./rc_img/cop_condGroup_20_CommunitySafety_autoscaled.png"",""./rc_img/cop_condGroup_20_SafeStreets_autoscaled.png""]","1","",""
"sliderTrial_attention","html-slider-response","90","477538","0.0-90.0","","656776a7904ae00d6b91d1dd","6568ac32da819028e0decbaa","1","","","","","","","","","","","","null","[""SV_PolicingMSA/CA_2534/IMG_14_2534.jpg"",""SV_PolicingMSA/CA_2534/IMG_5_2534.jpg"",""SV_PolicingMSA/CA_2534/IMG_1_2534.jpg"",""SV_PolicingMSA/CA_2534/IMG_11_2534.jpg"",""SV_PolicingMSA/CA_2534/IMG_8_2534.jpg"",""SV_PolicingMSA/CA_2534/IMG_10_2534.jpg"",""SV_PolicingMSA/CA_2534/IMG_4_2534.jpg"",""SV_PolicingMSA/CA_2534/IMG_6_2534.jpg""]","null","","","","","","0","","4","[""./assets/img/attnchk.png"",""./assets/img/attnchk.png""]","","true",""
"sliderTrial","html-slider-response","91","481329","0.0-91.0","","656776a7904ae00d6b91d1dd","6568ac32da819028e0decbaa","1","","","","","","","","","","","","3788","[""SV_PolicingMSA/CA_2534/IMG_14_2534.jpg"",""SV_PolicingMSA/CA_2534/IMG_5_2534.jpg"",""SV_PolicingMSA/CA_2534/IMG_1_2534.jpg"",""SV_PolicingMSA/CA_2534/IMG_11_2534.jpg"",""SV_PolicingMSA/CA_2534/IMG_8_2534.jpg"",""SV_PolicingMSA/CA_2534/IMG_10_2534.jpg"",""SV_PolicingMSA/CA_2534/IMG_4_2534.jpg"",""SV_PolicingMSA/CA_2534/IMG_6_2534.jpg""]","7","","","","","","0","","4","[""./rc_img/cop_condGroup_4_SafeStreets_autoscaled.png"",""./rc_img/cop_condGroup_4_CommunitySafety_autoscaled.png""]","1","",""
"sliderTrial","html-slider-response","92","485245","0.0-92.0","","656776a7904ae00d6b91d1dd","6568ac32da819028e0decbaa","1","","","","","","","","","","","","3914","[""SV_PolicingMSA/CA_2534/IMG_14_2534.jpg"",""SV_PolicingMSA/CA_2534/IMG_5_2534.jpg"",""SV_PolicingMSA/CA_2534/IMG_1_2534.jpg"",""SV_PolicingMSA/CA_2534/IMG_11_2534.jpg"",""SV_PolicingMSA/CA_2534/IMG_8_2534.jpg"",""SV_PolicingMSA/CA_2534/IMG_10_2534.jpg"",""SV_PolicingMSA/CA_2534/IMG_4_2534.jpg"",""SV_PolicingMSA/CA_2534/IMG_6_2534.jpg""]","1","","","","","","0","","4","[""./rc_img/cop_condGroup_19_SafeStreets_autoscaled.png"",""./rc_img/cop_condGroup_19_CommunitySafety_autoscaled.png""]","7","",""
"sliderTrial","html-slider-response","93","489014","0.0-93.0","","656776a7904ae00d6b91d1dd","6568ac32da819028e0decbaa","1","","","","","","","","","","","","3767","[""SV_PolicingMSA/CA_2534/IMG_14_2534.jpg"",""SV_PolicingMSA/CA_2534/IMG_5_2534.jpg"",""SV_PolicingMSA/CA_2534/IMG_1_2534.jpg"",""SV_PolicingMSA/CA_2534/IMG_11_2534.jpg"",""SV_PolicingMSA/CA_2534/IMG_8_2534.jpg"",""SV_PolicingMSA/CA_2534/IMG_10_2534.jpg"",""SV_PolicingMSA/CA_2534/IMG_4_2534.jpg"",""SV_PolicingMSA/CA_2534/IMG_6_2534.jpg""]","1","","","","","","0","","4","[""./rc_img/cop_condGroup_15_CommunitySafety_autoscaled.png"",""./rc_img/cop_condGroup_15_SafeStreets_autoscaled.png""]","1","",""
"before_SVSlide_prompt","html-button-response","94","490877","0.0-94.0","","656776a7904ae00d6b91d1dd","6568ac32da819028e0decbaa","1","","","","","","","","","","","","1862","Click [Next] to see the next neighborhood!","0","","","","","","","","","","","",""
"street view slide show","image-button-response","95","491884","0.0-95.0","","656776a7904ae00d6b91d1dd","6568ac32da819028e0decbaa","1","","","","","","","","","","","","null","stimulus/SV_PolicingMSA/CA_5098/IMG_5_5098.jpg","null","","","","","","5","","","","","",""
"street view slide show","image-button-response","96","492899","0.0-96.0","","656776a7904ae00d6b91d1dd","6568ac32da819028e0decbaa","1","","","","","","","","","","","","null","stimulus/SV_PolicingMSA/CA_5098/IMG_2_5098.jpg","null","","","","","","5","","","","","",""
"street view slide show","image-button-response","97","493901","0.0-97.0","","656776a7904ae00d6b91d1dd","6568ac32da819028e0decbaa","1","","","","","","","","","","","","null","stimulus/SV_PolicingMSA/CA_5098/IMG_0_5098.jpg","null","","","","","","5","","","","","",""
"street view slide show","image-button-response","98","494916","0.0-98.0","","656776a7904ae00d6b91d1dd","6568ac32da819028e0decbaa","1","","","","","","","","","","","","null","stimulus/SV_PolicingMSA/CA_5098/IMG_14_5098.jpg","null","","","","","","5","","","","","",""
"street view slide show","image-button-response","99","495933","0.0-99.0","","656776a7904ae00d6b91d1dd","6568ac32da819028e0decbaa","1","","","","","","","","","","","","null","stimulus/SV_PolicingMSA/CA_5098/IMG_7_5098.jpg","null","","","","","","5","","","","","",""
"street view slide show","image-button-response","100","496948","0.0-100.0","","656776a7904ae00d6b91d1dd","6568ac32da819028e0decbaa","1","","","","","","","","","","","","null","stimulus/SV_PolicingMSA/CA_5098/IMG_4_5098.jpg","null","","","","","","5","","","","","",""
"street view slide show","image-button-response","101","497961","0.0-101.0","","656776a7904ae00d6b91d1dd","6568ac32da819028e0decbaa","1","","","","","","","","","","","","null","stimulus/SV_PolicingMSA/CA_5098/IMG_11_5098.jpg","null","","","","","","5","","","","","",""
"street view slide show","image-button-response","102","498963","0.0-102.0","","656776a7904ae00d6b91d1dd","6568ac32da819028e0decbaa","1","","","","","","","","","","","","null","stimulus/SV_PolicingMSA/CA_5098/IMG_13_5098.jpg","null","","","","","","5","","","","","",""
"dot matrix survey1","survey","103","508687","0.0-103.0","","656776a7904ae00d6b91d1dd","6568ac32da819028e0decbaa","1","","","","","","","","","","","","9713","","{""P0_Q0"":null,""P0_Q1"":{""wealthy"":1,""safe"":2,""walkable"":2,""traditional"":2,""diverse"":2}}","","","","","","5","[]","","","","",""
"dot matrix survey2","survey","104","520584","0.0-104.0","","656776a7904ae00d6b91d1dd","6568ac32da819028e0decbaa","1","","","","","","","","","","","","11892","","{""P0_Q0"":null,""P0_Q1"":{""violence"":1,""crime"":1,""drug"":1,""schools"":2,""opportunities"":2}}","","","","","","5","[]","","","","",""
"dot matrix survey3","survey","105","532551","0.0-105.0","","656776a7904ae00d6b91d1dd","6568ac32da819028e0decbaa","1","","","","","","","","","","","","11960","","{""P0_Q0"":null,""P0_Q1"":{""moveout"":1,""movein"":2,""shopping"":2,""walk"":2,""park"":2,""school"":2}}","","","","","","5","[]","","","","",""
"sliderTrial","html-slider-response","106","536010","0.0-106.0","","656776a7904ae00d6b91d1dd","6568ac32da819028e0decbaa","1","","","","","","","","","","","","3458","[""SV_PolicingMSA/CA_5098/IMG_5_5098.jpg"",""SV_PolicingMSA/CA_5098/IMG_2_5098.jpg"",""SV_PolicingMSA/CA_5098/IMG_0_5098.jpg"",""SV_PolicingMSA/CA_5098/IMG_14_5098.jpg"",""SV_PolicingMSA/CA_5098/IMG_7_5098.jpg"",""SV_PolicingMSA/CA_5098/IMG_4_5098.jpg"",""SV_PolicingMSA/CA_5098/IMG_11_5098.jpg"",""SV_PolicingMSA/CA_5098/IMG_13_5098.jpg""]","7","","","","","","5","","4","[""./rc_img/cop_condGroup_5_SafeStreets_autoscaled.png"",""./rc_img/cop_condGroup_5_CommunitySafety_autoscaled.png""]","1","",""
"sliderTrial","html-slider-response","107","540143","0.0-107.0","","656776a7904ae00d6b91d1dd","6568ac32da819028e0decbaa","1","","","","","","","","","","","","4131","[""SV_PolicingMSA/CA_5098/IMG_5_5098.jpg"",""SV_PolicingMSA/CA_5098/IMG_2_5098.jpg"",""SV_PolicingMSA/CA_5098/IMG_0_5098.jpg"",""SV_PolicingMSA/CA_5098/IMG_14_5098.jpg"",""SV_PolicingMSA/CA_5098/IMG_7_5098.jpg"",""SV_PolicingMSA/CA_5098/IMG_4_5098.jpg"",""SV_PolicingMSA/CA_5098/IMG_11_5098.jpg"",""SV_PolicingMSA/CA_5098/IMG_13_5098.jpg""]","1","","","","","","5","","4","[""./rc_img/cop_condGroup_9_CommunitySafety_autoscaled.png"",""./rc_img/cop_condGroup_9_SafeStreets_autoscaled.png""]","1","",""
"sliderTrial","html-slider-response","108","543460","0.0-108.0","","656776a7904ae00d6b91d1dd","6568ac32da819028e0decbaa","1","","","","","","","","","","","","3315","[""SV_PolicingMSA/CA_5098/IMG_5_5098.jpg"",""SV_PolicingMSA/CA_5098/IMG_2_5098.jpg"",""SV_PolicingMSA/CA_5098/IMG_0_5098.jpg"",""SV_PolicingMSA/CA_5098/IMG_14_5098.jpg"",""SV_PolicingMSA/CA_5098/IMG_7_5098.jpg"",""SV_PolicingMSA/CA_5098/IMG_4_5098.jpg"",""SV_PolicingMSA/CA_5098/IMG_11_5098.jpg"",""SV_PolicingMSA/CA_5098/IMG_13_5098.jpg""]","7","","","","","","5","","4","[""./rc_img/cop_condGroup_3_SafeStreets_autoscaled.png"",""./rc_img/cop_condGroup_3_CommunitySafety_autoscaled.png""]","1","",""
"sliderTrial","html-slider-response","109","546342","0.0-109.0","","656776a7904ae00d6b91d1dd","6568ac32da819028e0decbaa","1","","","","","","","","","","","","2879","[""SV_PolicingMSA/CA_5098/IMG_5_5098.jpg"",""SV_PolicingMSA/CA_5098/IMG_2_5098.jpg"",""SV_PolicingMSA/CA_5098/IMG_0_5098.jpg"",""SV_PolicingMSA/CA_5098/IMG_14_5098.jpg"",""SV_PolicingMSA/CA_5098/IMG_7_5098.jpg"",""SV_PolicingMSA/CA_5098/IMG_4_5098.jpg"",""SV_PolicingMSA/CA_5098/IMG_11_5098.jpg"",""SV_PolicingMSA/CA_5098/IMG_13_5098.jpg""]","1","","","","","","5","","4","[""./rc_img/cop_condGroup_17_CommunitySafety_autoscaled.png"",""./rc_img/cop_condGroup_17_SafeStreets_autoscaled.png""]","1","",""
"sliderTrial","html-slider-response","110","551628","0.0-110.0","","656776a7904ae00d6b91d1dd","6568ac32da819028e0decbaa","1","","","","","","","","","","","","5284","[""SV_PolicingMSA/CA_5098/IMG_5_5098.jpg"",""SV_PolicingMSA/CA_5098/IMG_2_5098.jpg"",""SV_PolicingMSA/CA_5098/IMG_0_5098.jpg"",""SV_PolicingMSA/CA_5098/IMG_14_5098.jpg"",""SV_PolicingMSA/CA_5098/IMG_7_5098.jpg"",""SV_PolicingMSA/CA_5098/IMG_4_5098.jpg"",""SV_PolicingMSA/CA_5098/IMG_11_5098.jpg"",""SV_PolicingMSA/CA_5098/IMG_13_5098.jpg""]","1","","","","","","5","","4","[""./rc_img/cop_condGroup_8_CommunitySafety_autoscaled.png"",""./rc_img/cop_condGroup_8_SafeStreets_autoscaled.png""]","1","",""
"before_SVSlide_prompt","html-button-response","111","553276","0.0-111.0","","656776a7904ae00d6b91d1dd","6568ac32da819028e0decbaa","1","","","","","","","","","","","","1647","Click [Next] to see the next neighborhood!","0","","","","","","","","","","","",""
"street view slide show","image-button-response","112","554293","0.0-112.0","","656776a7904ae00d6b91d1dd","6568ac32da819028e0decbaa","1","","","","","","","","","","","","null","stimulus/SV_PolicingMSA/CA_2555/IMG_8_2555.jpg","null","","","","","","3","","","","","",""
"street view slide show","image-button-response","113","555296","0.0-113.0","","656776a7904ae00d6b91d1dd","6568ac32da819028e0decbaa","1","","","","","","","","","","","","null","stimulus/SV_PolicingMSA/CA_2555/IMG_13_2555.jpg","null","","","","","","3","","","","","",""
"street view slide show","image-button-response","114","556310","0.0-114.0","","656776a7904ae00d6b91d1dd","6568ac32da819028e0decbaa","1","","","","","","","","","","","","null","stimulus/SV_PolicingMSA/CA_2555/IMG_3_2555.jpg","null","","","","","","3","","","","","",""
"street view slide show","image-button-response","115","557312","0.0-115.0","","656776a7904ae00d6b91d1dd","6568ac32da819028e0decbaa","1","","","","","","","","","","","","null","stimulus/SV_PolicingMSA/CA_2555/IMG_14_2555.jpg","null","","","","","","3","","","","","",""
"street view slide show","image-button-response","116","558325","0.0-116.0","","656776a7904ae00d6b91d1dd","6568ac32da819028e0decbaa","1","","","","","","","","","","","","null","stimulus/SV_PolicingMSA/CA_2555/IMG_9_2555.jpg","null","","","","","","3","","","","","",""
"street view slide show","image-button-response","117","559330","0.0-117.0","","656776a7904ae00d6b91d1dd","6568ac32da819028e0decbaa","1","","","","","","","","","","","","null","stimulus/SV_PolicingMSA/CA_2555/IMG_6_2555.jpg","null","","","","","","3","","","","","",""
"street view slide show","image-button-response","118","560346","0.0-118.0","","656776a7904ae00d6b91d1dd","6568ac32da819028e0decbaa","1","","","","","","","","","","","","null","stimulus/SV_PolicingMSA/CA_2555/IMG_2_2555.jpg","null","","","","","","3","","","","","",""
"street view slide show","image-button-response","119","561354","0.0-119.0","","656776a7904ae00d6b91d1dd","6568ac32da819028e0decbaa","1","","","","","","","","","","","","null","stimulus/SV_PolicingMSA/CA_2555/IMG_7_2555.jpg","null","","","","","","3","","","","","",""
"dot matrix survey1","survey","120","571484","0.0-120.0","","656776a7904ae00d6b91d1dd","6568ac32da819028e0decbaa","1","","","","","","","","","","","","10123","","{""P0_Q0"":null,""P0_Q1"":{""wealthy"":3,""safe"":3,""walkable"":3,""traditional"":3,""diverse"":3}}","","","","","","3","[]","","","","",""
"dot matrix survey2","survey","121","580320","0.0-121.0","","656776a7904ae00d6b91d1dd","6568ac32da819028e0decbaa","1","","","","","","","","","","","","8831","","{""P0_Q0"":null,""P0_Q1"":{""violence"":0,""crime"":0,""drug"":0,""schools"":3,""opportunities"":3}}","","","","","","3","[]","","","","",""
"dot matrix survey3","survey","122","595750","0.0-122.0","","656776a7904ae00d6b91d1dd","6568ac32da819028e0decbaa","1","","","","","","","","","","","","15425","","{""P0_Q0"":null,""P0_Q1"":{""movein"":4,""moveout"":0,""shopping"":3,""walk"":3,""park"":3,""school"":3}}","","","","","","3","[]","","","","",""
"sliderTrial","html-slider-response","123","599690","0.0-123.0","","656776a7904ae00d6b91d1dd","6568ac32da819028e0decbaa","1","","","","","","","","","","","","3939","[""SV_PolicingMSA/CA_2555/IMG_8_2555.jpg"",""SV_PolicingMSA/CA_2555/IMG_13_2555.jpg"",""SV_PolicingMSA/CA_2555/IMG_3_2555.jpg"",""SV_PolicingMSA/CA_2555/IMG_14_2555.jpg"",""SV_PolicingMSA/CA_2555/IMG_9_2555.jpg"",""SV_PolicingMSA/CA_2555/IMG_6_2555.jpg"",""SV_PolicingMSA/CA_2555/IMG_2_2555.jpg"",""SV_PolicingMSA/CA_2555/IMG_7_2555.jpg""]","1","","","","","","3","","4","[""./rc_img/cop_condGroup_10_CommunitySafety_autoscaled.png"",""./rc_img/cop_condGroup_10_SafeStreets_autoscaled.png""]","1","",""
"sliderTrial","html-slider-response","124","603041","0.0-124.0","","656776a7904ae00d6b91d1dd","6568ac32da819028e0decbaa","1","","","","","","","","","","","","3349","[""SV_PolicingMSA/CA_2555/IMG_8_2555.jpg"",""SV_PolicingMSA/CA_2555/IMG_13_2555.jpg"",""SV_PolicingMSA/CA_2555/IMG_3_2555.jpg"",""SV_PolicingMSA/CA_2555/IMG_14_2555.jpg"",""SV_PolicingMSA/CA_2555/IMG_9_2555.jpg"",""SV_PolicingMSA/CA_2555/IMG_6_2555.jpg"",""SV_PolicingMSA/CA_2555/IMG_2_2555.jpg"",""SV_PolicingMSA/CA_2555/IMG_7_2555.jpg""]","4","","","","","","3","","4","[""./rc_img/cop_condGroup_2_SafeStreets_autoscaled.png"",""./rc_img/cop_condGroup_2_CommunitySafety_autoscaled.png""]","4","",""
"sliderTrial","html-slider-response","125","607608","0.0-125.0","","656776a7904ae00d6b91d1dd","6568ac32da819028e0decbaa","1","","","","","","","","","","","","4565","[""SV_PolicingMSA/CA_2555/IMG_8_2555.jpg"",""SV_PolicingMSA/CA_2555/IMG_13_2555.jpg"",""SV_PolicingMSA/CA_2555/IMG_3_2555.jpg"",""SV_PolicingMSA/CA_2555/IMG_14_2555.jpg"",""SV_PolicingMSA/CA_2555/IMG_9_2555.jpg"",""SV_PolicingMSA/CA_2555/IMG_6_2555.jpg"",""SV_PolicingMSA/CA_2555/IMG_2_2555.jpg"",""SV_PolicingMSA/CA_2555/IMG_7_2555.jpg""]","7","","","","","","3","","4","[""./rc_img/cop_condGroup_6_SafeStreets_autoscaled.png"",""./rc_img/cop_condGroup_6_CommunitySafety_autoscaled.png""]","1","",""
"sliderTrial","html-slider-response","126","611556","0.0-126.0","","656776a7904ae00d6b91d1dd","6568ac32da819028e0decbaa","1","","","","","","","","","","","","3946","[""SV_PolicingMSA/CA_2555/IMG_8_2555.jpg"",""SV_PolicingMSA/CA_2555/IMG_13_2555.jpg"",""SV_PolicingMSA/CA_2555/IMG_3_2555.jpg"",""SV_PolicingMSA/CA_2555/IMG_14_2555.jpg"",""SV_PolicingMSA/CA_2555/IMG_9_2555.jpg"",""SV_PolicingMSA/CA_2555/IMG_6_2555.jpg"",""SV_PolicingMSA/CA_2555/IMG_2_2555.jpg"",""SV_PolicingMSA/CA_2555/IMG_7_2555.jpg""]","1","","","","","","3","","4","[""./rc_img/cop_condGroup_12_CommunitySafety_autoscaled.png"",""./rc_img/cop_condGroup_12_SafeStreets_autoscaled.png""]","1","",""
"sliderTrial","html-slider-response","127","614872","0.0-127.0","","656776a7904ae00d6b91d1dd","6568ac32da819028e0decbaa","1","","","","","","","","","","","","3313","[""SV_PolicingMSA/CA_2555/IMG_8_2555.jpg"",""SV_PolicingMSA/CA_2555/IMG_13_2555.jpg"",""SV_PolicingMSA/CA_2555/IMG_3_2555.jpg"",""SV_PolicingMSA/CA_2555/IMG_14_2555.jpg"",""SV_PolicingMSA/CA_2555/IMG_9_2555.jpg"",""SV_PolicingMSA/CA_2555/IMG_6_2555.jpg"",""SV_PolicingMSA/CA_2555/IMG_2_2555.jpg"",""SV_PolicingMSA/CA_2555/IMG_7_2555.jpg""]","1","","","","","","3","","4","[""./rc_img/cop_condGroup_1_CommunitySafety_autoscaled.png"",""./rc_img/cop_condGroup_1_SafeStreets_autoscaled.png""]","1","",""
"before_SVSlide_prompt","html-button-response","128","616740","0.0-128.0","","656776a7904ae00d6b91d1dd","6568ac32da819028e0decbaa","1","","","","","","","","","","","","1867","Click [Next] to see the next neighborhood!","0","","","","","","","","","","","",""
"street view slide show","image-button-response","129","617743","0.0-129.0","","656776a7904ae00d6b91d1dd","6568ac32da819028e0decbaa","1","","","","","","","","","","","","null","stimulus/SV_PolicingMSA/CA_8565/IMG_3_8565.jpg","null","","","","","","4","","","","","",""
"street view slide show","image-button-response","130","618758","0.0-130.0","","656776a7904ae00d6b91d1dd","6568ac32da819028e0decbaa","1","","","","","","","","","","","","null","stimulus/SV_PolicingMSA/CA_8565/IMG_12_8565.jpg","null","","","","","","4","","","","","",""
"street view slide show","image-button-response","131","619774","0.0-131.0","","656776a7904ae00d6b91d1dd","6568ac32da819028e0decbaa","1","","","","","","","","","","","","null","stimulus/SV_PolicingMSA/CA_8565/IMG_5_8565.jpg","null","","","","","","4","","","","","",""
"street view slide show","image-button-response","132","620784","0.0-132.0","","656776a7904ae00d6b91d1dd","6568ac32da819028e0decbaa","1","","","","","","","","","","","","null","stimulus/SV_PolicingMSA/CA_8565/IMG_7_8565.jpg","null","","","","","","4","","","","","",""
"street view slide show","image-button-response","133","621792","0.0-133.0","","656776a7904ae00d6b91d1dd","6568ac32da819028e0decbaa","1","","","","","","","","","","","","null","stimulus/SV_PolicingMSA/CA_8565/IMG_1_8565.jpg","null","","","","","","4","","","","","",""
"street view slide show","image-button-response","134","622793","0.0-134.0","","656776a7904ae00d6b91d1dd","6568ac32da819028e0decbaa","1","","","","","","","","","","","","null","stimulus/SV_PolicingMSA/CA_8565/IMG_2_8565.jpg","null","","","","","","4","","","","","",""
"street view slide show","image-button-response","135","623808","0.0-135.0","","656776a7904ae00d6b91d1dd","6568ac32da819028e0decbaa","1","","","","","","","","","","","","null","stimulus/SV_PolicingMSA/CA_8565/IMG_8_8565.jpg","null","","","","","","4","","","","","",""
"street view slide show","image-button-response","136","624824","0.0-136.0","","656776a7904ae00d6b91d1dd","6568ac32da819028e0decbaa","1","","","","","","","","","","","","null","stimulus/SV_PolicingMSA/CA_8565/IMG_6_8565.jpg","null","","","","","","4","","","","","",""
"dot matrix survey1","survey","137","636529","0.0-137.0","","656776a7904ae00d6b91d1dd","6568ac32da819028e0decbaa","1","","","","","","","","","","","","11694","","{""P0_Q0"":null,""P0_Q1"":{""wealthy"":2,""safe"":3,""traditional"":3,""diverse"":3,""walkable"":3}}","","","","","","4","[]","","","","",""
"dot matrix survey2","survey","138","647214","0.0-138.0","","656776a7904ae00d6b91d1dd","6568ac32da819028e0decbaa","1","","","","","","","","","","","","10682","","{""P0_Q0"":null,""P0_Q1"":{""violence"":0,""crime"":0,""drug"":0,""schools"":2,""opportunities"":2}}","","","","","","4","[]","","","","",""
"dot matrix survey3","survey","139","660462","0.0-139.0","","656776a7904ae00d6b91d1dd","6568ac32da819028e0decbaa","1","","","","","","","","","","","","13242","","{""P0_Q0"":null,""P0_Q1"":{""movein"":3,""moveout"":0,""shopping"":3,""walk"":3,""park"":3,""school"":3}}","","","","","","4","[]","","","","",""
"sliderTrial","html-slider-response","140","664304","0.0-140.0","","656776a7904ae00d6b91d1dd","6568ac32da819028e0decbaa","1","","","","","","","","","","","","3841","[""SV_PolicingMSA/CA_8565/IMG_3_8565.jpg"",""SV_PolicingMSA/CA_8565/IMG_12_8565.jpg"",""SV_PolicingMSA/CA_8565/IMG_5_8565.jpg"",""SV_PolicingMSA/CA_8565/IMG_7_8565.jpg"",""SV_PolicingMSA/CA_8565/IMG_1_8565.jpg"",""SV_PolicingMSA/CA_8565/IMG_2_8565.jpg"",""SV_PolicingMSA/CA_8565/IMG_8_8565.jpg"",""SV_PolicingMSA/CA_8565/IMG_6_8565.jpg""]","7","","","","","","4","","4","[""./rc_img/cop_condGroup_7_SafeStreets_autoscaled.png"",""./rc_img/cop_condGroup_7_CommunitySafety_autoscaled.png""]","1","",""
"sliderTrial","html-slider-response","141","667570","0.0-141.0","","656776a7904ae00d6b91d1dd","6568ac32da819028e0decbaa","1","","","","","","","","","","","","3263","[""SV_PolicingMSA/CA_8565/IMG_3_8565.jpg"",""SV_PolicingMSA/CA_8565/IMG_12_8565.jpg"",""SV_PolicingMSA/CA_8565/IMG_5_8565.jpg"",""SV_PolicingMSA/CA_8565/IMG_7_8565.jpg"",""SV_PolicingMSA/CA_8565/IMG_1_8565.jpg"",""SV_PolicingMSA/CA_8565/IMG_2_8565.jpg"",""SV_PolicingMSA/CA_8565/IMG_8_8565.jpg"",""SV_PolicingMSA/CA_8565/IMG_6_8565.jpg""]","7","","","","","","4","","4","[""./rc_img/cop_condGroup_16_SafeStreets_autoscaled.png"",""./rc_img/cop_condGroup_16_CommunitySafety_autoscaled.png""]","1","",""
"sliderTrial","html-slider-response","142","671586","0.0-142.0","","656776a7904ae00d6b91d1dd","6568ac32da819028e0decbaa","1","","","","","","","","","","","","4014","[""SV_PolicingMSA/CA_8565/IMG_3_8565.jpg"",""SV_PolicingMSA/CA_8565/IMG_12_8565.jpg"",""SV_PolicingMSA/CA_8565/IMG_5_8565.jpg"",""SV_PolicingMSA/CA_8565/IMG_7_8565.jpg"",""SV_PolicingMSA/CA_8565/IMG_1_8565.jpg"",""SV_PolicingMSA/CA_8565/IMG_2_8565.jpg"",""SV_PolicingMSA/CA_8565/IMG_8_8565.jpg"",""SV_PolicingMSA/CA_8565/IMG_6_8565.jpg""]","1","","","","","","4","","4","[""./rc_img/cop_condGroup_11_CommunitySafety_autoscaled.png"",""./rc_img/cop_condGroup_11_SafeStreets_autoscaled.png""]","1","",""
"sliderTrial","html-slider-response","143","675952","0.0-143.0","","656776a7904ae00d6b91d1dd","6568ac32da819028e0decbaa","1","","","","","","","","","","","","4365","[""SV_PolicingMSA/CA_8565/IMG_3_8565.jpg"",""SV_PolicingMSA/CA_8565/IMG_12_8565.jpg"",""SV_PolicingMSA/CA_8565/IMG_5_8565.jpg"",""SV_PolicingMSA/CA_8565/IMG_7_8565.jpg"",""SV_PolicingMSA/CA_8565/IMG_1_8565.jpg"",""SV_PolicingMSA/CA_8565/IMG_2_8565.jpg"",""SV_PolicingMSA/CA_8565/IMG_8_8565.jpg"",""SV_PolicingMSA/CA_8565/IMG_6_8565.jpg""]","1","","","","","","4","","4","[""./rc_img/cop_condGroup_18_CommunitySafety_autoscaled.png"",""./rc_img/cop_condGroup_18_SafeStreets_autoscaled.png""]","1","",""
"sliderTrial","html-slider-response","144","681237","0.0-144.0","","656776a7904ae00d6b91d1dd","6568ac32da819028e0decbaa","1","","","","","","","","","","","","5282","[""SV_PolicingMSA/CA_8565/IMG_3_8565.jpg"",""SV_PolicingMSA/CA_8565/IMG_12_8565.jpg"",""SV_PolicingMSA/CA_8565/IMG_5_8565.jpg"",""SV_PolicingMSA/CA_8565/IMG_7_8565.jpg"",""SV_PolicingMSA/CA_8565/IMG_1_8565.jpg"",""SV_PolicingMSA/CA_8565/IMG_2_8565.jpg"",""SV_PolicingMSA/CA_8565/IMG_8_8565.jpg"",""SV_PolicingMSA/CA_8565/IMG_6_8565.jpg""]","1","","","","","","4","","4","[""./rc_img/cop_condGroup_14_CommunitySafety_autoscaled.png"",""./rc_img/cop_condGroup_14_SafeStreets_autoscaled.png""]","1","",""
"demographics","survey-html-form","145","696955","0.0-145.0","","656776a7904ae00d6b91d1dd","6568ac32da819028e0decbaa","1","","","","","","","","","","","","15716","","{""age"":""30"",""sex"":""male"",""gender"":""man"",""gender-self-describe"":"""",""zipcode"":""80910""}","","","","","","","","","","","",""
"demographics-list","survey","146","721891","0.0-146.0","","656776a7904ae00d6b91d1dd","6568ac32da819028e0decbaa","1","","","","","","","","","","","","24919","","{""P0_Q0"":null,""race-ethnicity"":[""White or of European ancestry""],""education"":""Bachelor’s degree"",""P1_Q0"":null,""ideology"":""Very Liberal"",""P2_Q0"":null,""num-moves"":2,""P3_Q0"":null,""social-ladder"":7}","","","","","","","[]","","","","",""
"end-survey","survey-text","147","735670","0.0-147.0","","656776a7904ae00d6b91d1dd","6568ac32da819028e0decbaa","1","","","","","","","","","","","","13776","","{""Q0"":""none""}","","","","","","","","","","","","2"
"end-survey","html-button-response","148","740733","0.0-148.0","","656776a7904ae00d6b91d1dd","6568ac32da819028e0decbaa","1","","","","","","","","","","","","5062","
    You've reached the end of the survey. <br><br> 
    <b>Do not close or refresh this window.</b><br>
    On the next page, you will be automatically redirected to Prolific. <br><br>

    <div class=""alert alert-warning""><b>
    </div>
","0","","","","","","","","","","","",""
