"task","trial_type","trial_index","time_elapsed","internal_node_id","subject_id","study_id","session_id","section","width","height","webaudio","browser","browser_version","mobile","os","fullscreen","vsync_rate","webcam","microphone","rt","stimulus","response","success","timeout","failed_images","failed_audio","failed_video","block","accuracy","slider_start","choices","standardized_response","correct","num_attention_checks_correct"
"pavlovia-init","pavlovia","0","1135","0.0-0.0","","656776a7904ae00d6b91d1dd","6568a825529b24d236906a06","4","","","","","","","","","","","","","","","","","","","","","","","","","",""
"browser-check","browser-check","1","2132","0.0-1.0","","656776a7904ae00d6b91d1dd","6568a825529b24d236906a06","4","1536","739","true","chrome","119.0.0","false","Windows 10","true","60.57","true","true","","","","","","","","","","","","","","",""
"consent","html-button-response","2","17884","0.0-2.0","","656776a7904ae00d6b91d1dd","6568a825529b24d236906a06","4","","","","","","","","","","","","15750","
        <div style=""font-size: 80%; max-width:700px"">
            <h2>CONSENT FORM</h2>
        
            <div style=""text-align: left"">
            <h4>DESCRIPTION</h4>
            <p>
            You will complete a short task where you give your impressions of various neighborhoods and assign individuals to those spaces, and answer some questions about your thoughts and opinions.<br>
            The University of Michigan Institutional Review Board Health Sciences and Behavioral Sciences has determined that this study is exempt from IRB oversight.
            </p>

            <h4>TIME INVOLVEMENT</h4>
            <p>Your participation will take approximately 15 minutes. You will receive $3.15 upon completion of the study.</p>
        
            <h4>RISKS AND BENEFITS</h4>
            <p>
            The risks associated with this study are minimal. The benefits which may reasonably be expected to result from this study are none. We cannot and do not guarantee or promise that you will receive any benefits from this study.
            </p>
          
            <h4>SUBJECT'S RIGHTS</h4>
            <p>
            If you have read this form and have decided to participate in this project, please understand your participation is voluntary and you have the right to withdraw your consent or discontinue participation at any time without penalty or loss of benefits to which you are otherwise entitled. The alternative is not to participate. You have the right to refuse to answer particular questions. Your individual privacy will be maintained in all published and written data resulting from the study.
            </p>

            <h4>HUMAN SUBJECT APPROVAL</h4>
            <p>
            This study is exempt from ongoing IRB review.
            </p>

            <h4>CONTACT INFORMATION</h4>
            If you have any questions, concerns or complaints about this research, its procedures, risks and benefits, contact the Protocol Director, Nicholas Camp, npcamp@umich.edu, (443) 851-6783. <br>

            If you have questions about your rights as a research participant, or wish to obtain information, ask questions or discuss any concerns about this study with someone other than the researcher(s), please contact the following:<br><br>
            University of Michigan<br>
            Health Sciences and Behavioral Sciences Institutional Review Board (IRB-HSBS)<br>
            2800 Plymouth Road<br>
            Building 520, Room 1169Ann Arbor, MI 48109-2800<br>
            Telephone: 734-936-0933 or toll free (866) 936-0933<br>
            Fax: 734-936-1852<br>
            E-mail: irbhsbs@umich.edu<br><br>

            You can also contact the University of Michigan Compliance Hotline at 1-866-990-0111. You may also print this consent form to keep.
            <br><br>
            <div class=""alert alert-warning""><b>
            Do you consent to participate in this study? If you consent to participate in this study, please click “Accept and Continue”. If you select ""Decline and Exit"", you will be exited from the survey. <br>
            </b></div>
            </div>
        </div>
    ","1","","","","","","","","","","","",""
"","preload","3","20454","0.0-3.0","","656776a7904ae00d6b91d1dd","6568a825529b24d236906a06","4","","","","","","","","","","","","","","","true","false","[]","[]","[]","","","","","","",""
"instructions","html-button-response","4","28439","0.0-4.0","","656776a7904ae00d6b91d1dd","6568a825529b24d236906a06","4","","","","","","","","","","","","7984","
        <div class=""text-container"">
        <h1>Welcome to the study!</h1>
        
        <div class=""text-left"">
            <p>
                In this study, we are interested in what people can tell about spaces from Google Street View images. <br> Google Street View takes pictures of streets used for Google Earth and Google Maps. <br>You’ll see Google Street View images of different places and answer some questions about each one.<br>
            </p>
        </div>
        <img src = ""assets/img/example.png"" width = 500px, height = auto>
        <br>
    <br>
    ","0","","","","","","","","","","","",""
"instructions","html-button-response","5","37491","0.0-5.0","","656776a7904ae00d6b91d1dd","6568a825529b24d236906a06","4","","","","","","","","","","","","9051","
    <div class=""text-container"">
        <div class=""text-center"">
            <p>Please remember that your answers are completely anonymous.<br>Go with your gut response- there are no right or wrong answers!</p>
        </div>
    <br>
","0","","","","","","","","","","","",""
"before_SVSlide_prompt","html-button-response","6","41312","0.0-6.0","","656776a7904ae00d6b91d1dd","6568a825529b24d236906a06","4","","","","","","","","","","","","3821","Click [Next] to see the next neighborhood!","0","","","","","","","","","","","",""
"street view slide show","image-button-response","7","42321","0.0-7.0","","656776a7904ae00d6b91d1dd","6568a825529b24d236906a06","4","","","","","","","","","","","","null","stimulus/SV_PolicingMSA/CO_368/IMG_4_368.jpg","null","","","","","","1","","","","","",""
"street view slide show","image-button-response","8","43337","0.0-8.0","","656776a7904ae00d6b91d1dd","6568a825529b24d236906a06","4","","","","","","","","","","","","null","stimulus/SV_PolicingMSA/CO_368/IMG_7_368.jpg","null","","","","","","1","","","","","",""
"street view slide show","image-button-response","9","44367","0.0-9.0","","656776a7904ae00d6b91d1dd","6568a825529b24d236906a06","4","","","","","","","","","","","","null","stimulus/SV_PolicingMSA/CO_368/IMG_6_368.jpg","null","","","","","","1","","","","","",""
"street view slide show","image-button-response","10","45384","0.0-10.0","","656776a7904ae00d6b91d1dd","6568a825529b24d236906a06","4","","","","","","","","","","","","null","stimulus/SV_PolicingMSA/CO_368/IMG_1_368.jpg","null","","","","","","1","","","","","",""
"street view slide show","image-button-response","11","46399","0.0-11.0","","656776a7904ae00d6b91d1dd","6568a825529b24d236906a06","4","","","","","","","","","","","","null","stimulus/SV_PolicingMSA/CO_368/IMG_10_368.jpg","null","","","","","","1","","","","","",""
"street view slide show","image-button-response","12","47421","0.0-12.0","","656776a7904ae00d6b91d1dd","6568a825529b24d236906a06","4","","","","","","","","","","","","null","stimulus/SV_PolicingMSA/CO_368/IMG_9_368.jpg","null","","","","","","1","","","","","",""
"street view slide show","image-button-response","13","48431","0.0-13.0","","656776a7904ae00d6b91d1dd","6568a825529b24d236906a06","4","","","","","","","","","","","","null","stimulus/SV_PolicingMSA/CO_368/IMG_2_368.jpg","null","","","","","","1","","","","","",""
"street view slide show","image-button-response","14","49447","0.0-14.0","","656776a7904ae00d6b91d1dd","6568a825529b24d236906a06","4","","","","","","","","","","","","null","stimulus/SV_PolicingMSA/CO_368/IMG_11_368.jpg","null","","","","","","1","","","","","",""
"dot matrix survey1","survey","15","78260","0.0-15.0","","656776a7904ae00d6b91d1dd","6568a825529b24d236906a06","4","","","","","","","","","","","","28770","","{""P0_Q0"":null,""P0_Q1"":{""wealthy"":3,""safe"":1,""walkable"":2,""traditional"":2,""diverse"":2}}","","","","","","1","[]","","","","",""
"dot matrix survey2","survey","16","102061","0.0-16.0","","656776a7904ae00d6b91d1dd","6568a825529b24d236906a06","4","","","","","","","","","","","","23796","","{""P0_Q0"":null,""P0_Q1"":{""violence"":3,""crime"":2,""drug"":2,""schools"":2,""opportunities"":2}}","","","","","","1","[]","","","","",""
"dot matrix survey3","survey","17","118069","0.0-17.0","","656776a7904ae00d6b91d1dd","6568a825529b24d236906a06","4","","","","","","","","","","","","16001","","{""P0_Q0"":null,""P0_Q1"":{""movein"":0,""moveout"":2,""shopping"":1,""walk"":1,""park"":1,""school"":1}}","","","","","","1","[]","","","","",""
"sliderTrial","html-slider-response","18","127054","0.0-18.0","","656776a7904ae00d6b91d1dd","6568a825529b24d236906a06","4","","","","","","","","","","","","8983","[""SV_PolicingMSA/CO_368/IMG_4_368.jpg"",""SV_PolicingMSA/CO_368/IMG_7_368.jpg"",""SV_PolicingMSA/CO_368/IMG_6_368.jpg"",""SV_PolicingMSA/CO_368/IMG_1_368.jpg"",""SV_PolicingMSA/CO_368/IMG_10_368.jpg"",""SV_PolicingMSA/CO_368/IMG_9_368.jpg"",""SV_PolicingMSA/CO_368/IMG_2_368.jpg"",""SV_PolicingMSA/CO_368/IMG_11_368.jpg""]","5","","","","","","1","","4","[""./rc_img/cop_condGroup_18_CommunitySafety_autoscaled.png"",""./rc_img/cop_condGroup_18_SafeStreets_autoscaled.png""]","5","",""
"sliderTrial","html-slider-response","19","134891","0.0-19.0","","656776a7904ae00d6b91d1dd","6568a825529b24d236906a06","4","","","","","","","","","","","","7835","[""SV_PolicingMSA/CO_368/IMG_4_368.jpg"",""SV_PolicingMSA/CO_368/IMG_7_368.jpg"",""SV_PolicingMSA/CO_368/IMG_6_368.jpg"",""SV_PolicingMSA/CO_368/IMG_1_368.jpg"",""SV_PolicingMSA/CO_368/IMG_10_368.jpg"",""SV_PolicingMSA/CO_368/IMG_9_368.jpg"",""SV_PolicingMSA/CO_368/IMG_2_368.jpg"",""SV_PolicingMSA/CO_368/IMG_11_368.jpg""]","2","","","","","","1","","4","[""./rc_img/cop_condGroup_16_SafeStreets_autoscaled.png"",""./rc_img/cop_condGroup_16_CommunitySafety_autoscaled.png""]","6","",""
"sliderTrial","html-slider-response","20","141858","0.0-20.0","","656776a7904ae00d6b91d1dd","6568a825529b24d236906a06","4","","","","","","","","","","","","6966","[""SV_PolicingMSA/CO_368/IMG_4_368.jpg"",""SV_PolicingMSA/CO_368/IMG_7_368.jpg"",""SV_PolicingMSA/CO_368/IMG_6_368.jpg"",""SV_PolicingMSA/CO_368/IMG_1_368.jpg"",""SV_PolicingMSA/CO_368/IMG_10_368.jpg"",""SV_PolicingMSA/CO_368/IMG_9_368.jpg"",""SV_PolicingMSA/CO_368/IMG_2_368.jpg"",""SV_PolicingMSA/CO_368/IMG_11_368.jpg""]","6","","","","","","1","","4","[""./rc_img/cop_condGroup_14_CommunitySafety_autoscaled.png"",""./rc_img/cop_condGroup_14_SafeStreets_autoscaled.png""]","6","",""
"sliderTrial_attention","html-slider-response","21","151868","0.0-21.0","","656776a7904ae00d6b91d1dd","6568a825529b24d236906a06","4","","","","","","","","","","","","null","[""SV_PolicingMSA/CO_368/IMG_4_368.jpg"",""SV_PolicingMSA/CO_368/IMG_7_368.jpg"",""SV_PolicingMSA/CO_368/IMG_6_368.jpg"",""SV_PolicingMSA/CO_368/IMG_1_368.jpg"",""SV_PolicingMSA/CO_368/IMG_10_368.jpg"",""SV_PolicingMSA/CO_368/IMG_9_368.jpg"",""SV_PolicingMSA/CO_368/IMG_2_368.jpg"",""SV_PolicingMSA/CO_368/IMG_11_368.jpg""]","null","","","","","","1","","4","[""./assets/img/attnchk.png"",""./assets/img/attnchk.png""]","","true",""
"sliderTrial","html-slider-response","22","164278","0.0-22.0","","656776a7904ae00d6b91d1dd","6568a825529b24d236906a06","4","","","","","","","","","","","","12406","[""SV_PolicingMSA/CO_368/IMG_4_368.jpg"",""SV_PolicingMSA/CO_368/IMG_7_368.jpg"",""SV_PolicingMSA/CO_368/IMG_6_368.jpg"",""SV_PolicingMSA/CO_368/IMG_1_368.jpg"",""SV_PolicingMSA/CO_368/IMG_10_368.jpg"",""SV_PolicingMSA/CO_368/IMG_9_368.jpg"",""SV_PolicingMSA/CO_368/IMG_2_368.jpg"",""SV_PolicingMSA/CO_368/IMG_11_368.jpg""]","5","","","","","","1","","4","[""./rc_img/cop_condGroup_12_CommunitySafety_autoscaled.png"",""./rc_img/cop_condGroup_12_SafeStreets_autoscaled.png""]","5","",""
"sliderTrial","html-slider-response","23","171572","0.0-23.0","","656776a7904ae00d6b91d1dd","6568a825529b24d236906a06","4","","","","","","","","","","","","7293","[""SV_PolicingMSA/CO_368/IMG_4_368.jpg"",""SV_PolicingMSA/CO_368/IMG_7_368.jpg"",""SV_PolicingMSA/CO_368/IMG_6_368.jpg"",""SV_PolicingMSA/CO_368/IMG_1_368.jpg"",""SV_PolicingMSA/CO_368/IMG_10_368.jpg"",""SV_PolicingMSA/CO_368/IMG_9_368.jpg"",""SV_PolicingMSA/CO_368/IMG_2_368.jpg"",""SV_PolicingMSA/CO_368/IMG_11_368.jpg""]","5","","","","","","1","","4","[""./rc_img/cop_condGroup_2_CommunitySafety_autoscaled.png"",""./rc_img/cop_condGroup_2_SafeStreets_autoscaled.png""]","5","",""
"before_SVSlide_prompt","html-button-response","24","176942","0.0-24.0","","656776a7904ae00d6b91d1dd","6568a825529b24d236906a06","4","","","","","","","","","","","","5369","Click [Next] to see the next neighborhood!","0","","","","","","","","","","","",""
"street view slide show","image-button-response","25","177948","0.0-25.0","","656776a7904ae00d6b91d1dd","6568a825529b24d236906a06","4","","","","","","","","","","","","null","stimulus/SV_PolicingMSA/CO_572/IMG_3_572.jpg","null","","","","","","5","","","","","",""
"street view slide show","image-button-response","26","178962","0.0-26.0","","656776a7904ae00d6b91d1dd","6568a825529b24d236906a06","4","","","","","","","","","","","","null","stimulus/SV_PolicingMSA/CO_572/IMG_8_572.jpg","null","","","","","","5","","","","","",""
"street view slide show","image-button-response","27","179978","0.0-27.0","","656776a7904ae00d6b91d1dd","6568a825529b24d236906a06","4","","","","","","","","","","","","null","stimulus/SV_PolicingMSA/CO_572/IMG_14_572.jpg","null","","","","","","5","","","","","",""
"street view slide show","image-button-response","28","180994","0.0-28.0","","656776a7904ae00d6b91d1dd","6568a825529b24d236906a06","4","","","","","","","","","","","","null","stimulus/SV_PolicingMSA/CO_572/IMG_4_572.jpg","null","","","","","","5","","","","","",""
"street view slide show","image-button-response","29","182000","0.0-29.0","","656776a7904ae00d6b91d1dd","6568a825529b24d236906a06","4","","","","","","","","","","","","null","stimulus/SV_PolicingMSA/CO_572/IMG_11_572.jpg","null","","","","","","5","","","","","",""
"street view slide show","image-button-response","30","183010","0.0-30.0","","656776a7904ae00d6b91d1dd","6568a825529b24d236906a06","4","","","","","","","","","","","","null","stimulus/SV_PolicingMSA/CO_572/IMG_5_572.jpg","null","","","","","","5","","","","","",""
"street view slide show","image-button-response","31","184025","0.0-31.0","","656776a7904ae00d6b91d1dd","6568a825529b24d236906a06","4","","","","","","","","","","","","null","stimulus/SV_PolicingMSA/CO_572/IMG_1_572.jpg","null","","","","","","5","","","","","",""
"street view slide show","image-button-response","32","185041","0.0-32.0","","656776a7904ae00d6b91d1dd","6568a825529b24d236906a06","4","","","","","","","","","","","","null","stimulus/SV_PolicingMSA/CO_572/IMG_2_572.jpg","null","","","","","","5","","","","","",""
"dot matrix survey1","survey","33","200130","0.0-33.0","","656776a7904ae00d6b91d1dd","6568a825529b24d236906a06","4","","","","","","","","","","","","15067","","{""P0_Q0"":null,""P0_Q1"":{""wealthy"":2,""safe"":4,""walkable"":2,""traditional"":2,""diverse"":3}}","","","","","","5","[]","","","","",""
"dot matrix survey2","survey","34","212309","0.0-34.0","","656776a7904ae00d6b91d1dd","6568a825529b24d236906a06","4","","","","","","","","","","","","12171","","{""P0_Q0"":null,""P0_Q1"":{""violence"":1,""crime"":1,""drug"":1,""schools"":3,""opportunities"":3}}","","","","","","5","[]","","","","",""
"dot matrix survey3","survey","35","243088","0.0-35.0","","656776a7904ae00d6b91d1dd","6568a825529b24d236906a06","4","","","","","","","","","","","","30773","","{""P0_Q0"":null,""P0_Q1"":{""movein"":3,""moveout"":0,""shopping"":4,""walk"":3,""park"":4,""school"":4}}","","","","","","5","[]","","","","",""
"sliderTrial","html-slider-response","36","253773","0.0-36.0","","656776a7904ae00d6b91d1dd","6568a825529b24d236906a06","4","","","","","","","","","","","","10684","[""SV_PolicingMSA/CO_572/IMG_3_572.jpg"",""SV_PolicingMSA/CO_572/IMG_8_572.jpg"",""SV_PolicingMSA/CO_572/IMG_14_572.jpg"",""SV_PolicingMSA/CO_572/IMG_4_572.jpg"",""SV_PolicingMSA/CO_572/IMG_11_572.jpg"",""SV_PolicingMSA/CO_572/IMG_5_572.jpg"",""SV_PolicingMSA/CO_572/IMG_1_572.jpg"",""SV_PolicingMSA/CO_572/IMG_2_572.jpg""]","6","","","","","","5","","4","[""./rc_img/cop_condGroup_17_SafeStreets_autoscaled.png"",""./rc_img/cop_condGroup_17_CommunitySafety_autoscaled.png""]","2","",""
"sliderTrial","html-slider-response","37","263459","0.0-37.0","","656776a7904ae00d6b91d1dd","6568a825529b24d236906a06","4","","","","","","","","","","","","9684","[""SV_PolicingMSA/CO_572/IMG_3_572.jpg"",""SV_PolicingMSA/CO_572/IMG_8_572.jpg"",""SV_PolicingMSA/CO_572/IMG_14_572.jpg"",""SV_PolicingMSA/CO_572/IMG_4_572.jpg"",""SV_PolicingMSA/CO_572/IMG_11_572.jpg"",""SV_PolicingMSA/CO_572/IMG_5_572.jpg"",""SV_PolicingMSA/CO_572/IMG_1_572.jpg"",""SV_PolicingMSA/CO_572/IMG_2_572.jpg""]","6","","","","","","5","","4","[""./rc_img/cop_condGroup_11_SafeStreets_autoscaled.png"",""./rc_img/cop_condGroup_11_CommunitySafety_autoscaled.png""]","2","",""
"sliderTrial","html-slider-response","38","270760","0.0-38.0","","656776a7904ae00d6b91d1dd","6568a825529b24d236906a06","4","","","","","","","","","","","","7300","[""SV_PolicingMSA/CO_572/IMG_3_572.jpg"",""SV_PolicingMSA/CO_572/IMG_8_572.jpg"",""SV_PolicingMSA/CO_572/IMG_14_572.jpg"",""SV_PolicingMSA/CO_572/IMG_4_572.jpg"",""SV_PolicingMSA/CO_572/IMG_11_572.jpg"",""SV_PolicingMSA/CO_572/IMG_5_572.jpg"",""SV_PolicingMSA/CO_572/IMG_1_572.jpg"",""SV_PolicingMSA/CO_572/IMG_2_572.jpg""]","6","","","","","","5","","4","[""./rc_img/cop_condGroup_19_SafeStreets_autoscaled.png"",""./rc_img/cop_condGroup_19_CommunitySafety_autoscaled.png""]","2","",""
"sliderTrial","html-slider-response","39","274247","0.0-39.0","","656776a7904ae00d6b91d1dd","6568a825529b24d236906a06","4","","","","","","","","","","","","3486","[""SV_PolicingMSA/CO_572/IMG_3_572.jpg"",""SV_PolicingMSA/CO_572/IMG_8_572.jpg"",""SV_PolicingMSA/CO_572/IMG_14_572.jpg"",""SV_PolicingMSA/CO_572/IMG_4_572.jpg"",""SV_PolicingMSA/CO_572/IMG_11_572.jpg"",""SV_PolicingMSA/CO_572/IMG_5_572.jpg"",""SV_PolicingMSA/CO_572/IMG_1_572.jpg"",""SV_PolicingMSA/CO_572/IMG_2_572.jpg""]","2","","","","","","5","","4","[""./rc_img/cop_condGroup_20_CommunitySafety_autoscaled.png"",""./rc_img/cop_condGroup_20_SafeStreets_autoscaled.png""]","2","",""
"sliderTrial","html-slider-response","40","281876","0.0-40.0","","656776a7904ae00d6b91d1dd","6568a825529b24d236906a06","4","","","","","","","","","","","","7628","[""SV_PolicingMSA/CO_572/IMG_3_572.jpg"",""SV_PolicingMSA/CO_572/IMG_8_572.jpg"",""SV_PolicingMSA/CO_572/IMG_14_572.jpg"",""SV_PolicingMSA/CO_572/IMG_4_572.jpg"",""SV_PolicingMSA/CO_572/IMG_11_572.jpg"",""SV_PolicingMSA/CO_572/IMG_5_572.jpg"",""SV_PolicingMSA/CO_572/IMG_1_572.jpg"",""SV_PolicingMSA/CO_572/IMG_2_572.jpg""]","6","","","","","","5","","4","[""./rc_img/cop_condGroup_4_SafeStreets_autoscaled.png"",""./rc_img/cop_condGroup_4_CommunitySafety_autoscaled.png""]","2","",""
"before_SVSlide_prompt","html-button-response","41","283795","0.0-41.0","","656776a7904ae00d6b91d1dd","6568a825529b24d236906a06","4","","","","","","","","","","","","1918","Click [Next] to see the next neighborhood!","0","","","","","","","","","","","",""
"street view slide show","image-button-response","42","284805","0.0-42.0","","656776a7904ae00d6b91d1dd","6568a825529b24d236906a06","4","","","","","","","","","","","","null","stimulus/SV_PolicingMSA/CO_252/IMG_14_252.jpg","null","","","","","","0","","","","","",""
"street view slide show","image-button-response","43","285822","0.0-43.0","","656776a7904ae00d6b91d1dd","6568a825529b24d236906a06","4","","","","","","","","","","","","null","stimulus/SV_PolicingMSA/CO_252/IMG_3_252.jpg","null","","","","","","0","","","","","",""
"street view slide show","image-button-response","44","286837","0.0-44.0","","656776a7904ae00d6b91d1dd","6568a825529b24d236906a06","4","","","","","","","","","","","","null","stimulus/SV_PolicingMSA/CO_252/IMG_11_252.jpg","null","","","","","","0","","","","","",""
"street view slide show","image-button-response","45","287853","0.0-45.0","","656776a7904ae00d6b91d1dd","6568a825529b24d236906a06","4","","","","","","","","","","","","null","stimulus/SV_PolicingMSA/CO_252/IMG_6_252.jpg","null","","","","","","0","","","","","",""
"street view slide show","image-button-response","46","288869","0.0-46.0","","656776a7904ae00d6b91d1dd","6568a825529b24d236906a06","4","","","","","","","","","","","","null","stimulus/SV_PolicingMSA/CO_252/IMG_0_252.jpg","null","","","","","","0","","","","","",""
"street view slide show","image-button-response","47","289899","0.0-47.0","","656776a7904ae00d6b91d1dd","6568a825529b24d236906a06","4","","","","","","","","","","","","null","stimulus/SV_PolicingMSA/CO_252/IMG_8_252.jpg","null","","","","","","0","","","","","",""
"street view slide show","image-button-response","48","290901","0.0-48.0","","656776a7904ae00d6b91d1dd","6568a825529b24d236906a06","4","","","","","","","","","","","","null","stimulus/SV_PolicingMSA/CO_252/IMG_7_252.jpg","null","","","","","","0","","","","","",""
"street view slide show","image-button-response","49","291916","0.0-49.0","","656776a7904ae00d6b91d1dd","6568a825529b24d236906a06","4","","","","","","","","","","","","null","stimulus/SV_PolicingMSA/CO_252/IMG_12_252.jpg","null","","","","","","0","","","","","",""
"dot matrix survey1","survey","50","318265","0.0-50.0","","656776a7904ae00d6b91d1dd","6568a825529b24d236906a06","4","","","","","","","","","","","","26327","","{""P0_Q0"":null,""P0_Q1"":{""wealthy"":1,""safe"":2,""walkable"":4,""traditional"":1,""diverse"":4}}","","","","","","0","[]","","","","",""
"dot matrix survey2","survey","51","334616","0.0-51.0","","656776a7904ae00d6b91d1dd","6568a825529b24d236906a06","4","","","","","","","","","","","","16346","","{""P0_Q0"":null,""P0_Q1"":{""violence"":3,""crime"":3,""drug"":2,""schools"":2,""opportunities"":1}}","","","","","","0","[]","","","","",""
"dot matrix survey3","survey","52","352731","0.0-52.0","","656776a7904ae00d6b91d1dd","6568a825529b24d236906a06","4","","","","","","","","","","","","18107","","{""P0_Q0"":null,""P0_Q1"":{""movein"":0,""moveout"":4,""shopping"":1,""walk"":0,""park"":1,""school"":1}}","","","","","","0","[]","","","","",""
"sliderTrial_attention","html-slider-response","53","362744","0.0-53.0","","656776a7904ae00d6b91d1dd","6568a825529b24d236906a06","4","","","","","","","","","","","","null","[""SV_PolicingMSA/CO_252/IMG_14_252.jpg"",""SV_PolicingMSA/CO_252/IMG_3_252.jpg"",""SV_PolicingMSA/CO_252/IMG_11_252.jpg"",""SV_PolicingMSA/CO_252/IMG_6_252.jpg"",""SV_PolicingMSA/CO_252/IMG_0_252.jpg"",""SV_PolicingMSA/CO_252/IMG_8_252.jpg"",""SV_PolicingMSA/CO_252/IMG_7_252.jpg"",""SV_PolicingMSA/CO_252/IMG_12_252.jpg""]","null","","","","","","0","","4","[""./assets/img/attnchk.png"",""./assets/img/attnchk.png""]","","true",""
"sliderTrial","html-slider-response","54","368642","0.0-54.0","","656776a7904ae00d6b91d1dd","6568a825529b24d236906a06","4","","","","","","","","","","","","5895","[""SV_PolicingMSA/CO_252/IMG_14_252.jpg"",""SV_PolicingMSA/CO_252/IMG_3_252.jpg"",""SV_PolicingMSA/CO_252/IMG_11_252.jpg"",""SV_PolicingMSA/CO_252/IMG_6_252.jpg"",""SV_PolicingMSA/CO_252/IMG_0_252.jpg"",""SV_PolicingMSA/CO_252/IMG_8_252.jpg"",""SV_PolicingMSA/CO_252/IMG_7_252.jpg"",""SV_PolicingMSA/CO_252/IMG_12_252.jpg""]","3","","","","","","0","","4","[""./rc_img/cop_condGroup_6_SafeStreets_autoscaled.png"",""./rc_img/cop_condGroup_6_CommunitySafety_autoscaled.png""]","5","",""
"sliderTrial","html-slider-response","55","370722","0.0-55.0","","656776a7904ae00d6b91d1dd","6568a825529b24d236906a06","4","","","","","","","","","","","","2078","[""SV_PolicingMSA/CO_252/IMG_14_252.jpg"",""SV_PolicingMSA/CO_252/IMG_3_252.jpg"",""SV_PolicingMSA/CO_252/IMG_11_252.jpg"",""SV_PolicingMSA/CO_252/IMG_6_252.jpg"",""SV_PolicingMSA/CO_252/IMG_0_252.jpg"",""SV_PolicingMSA/CO_252/IMG_8_252.jpg"",""SV_PolicingMSA/CO_252/IMG_7_252.jpg"",""SV_PolicingMSA/CO_252/IMG_12_252.jpg""]","5","","","","","","0","","4","[""./rc_img/cop_condGroup_8_CommunitySafety_autoscaled.png"",""./rc_img/cop_condGroup_8_SafeStreets_autoscaled.png""]","5","",""
"sliderTrial","html-slider-response","56","372570","0.0-56.0","","656776a7904ae00d6b91d1dd","6568a825529b24d236906a06","4","","","","","","","","","","","","1847","[""SV_PolicingMSA/CO_252/IMG_14_252.jpg"",""SV_PolicingMSA/CO_252/IMG_3_252.jpg"",""SV_PolicingMSA/CO_252/IMG_11_252.jpg"",""SV_PolicingMSA/CO_252/IMG_6_252.jpg"",""SV_PolicingMSA/CO_252/IMG_0_252.jpg"",""SV_PolicingMSA/CO_252/IMG_8_252.jpg"",""SV_PolicingMSA/CO_252/IMG_7_252.jpg"",""SV_PolicingMSA/CO_252/IMG_12_252.jpg""]","5","","","","","","0","","4","[""./rc_img/cop_condGroup_15_CommunitySafety_autoscaled.png"",""./rc_img/cop_condGroup_15_SafeStreets_autoscaled.png""]","5","",""
"sliderTrial","html-slider-response","57","376213","0.0-57.0","","656776a7904ae00d6b91d1dd","6568a825529b24d236906a06","4","","","","","","","","","","","","3641","[""SV_PolicingMSA/CO_252/IMG_14_252.jpg"",""SV_PolicingMSA/CO_252/IMG_3_252.jpg"",""SV_PolicingMSA/CO_252/IMG_11_252.jpg"",""SV_PolicingMSA/CO_252/IMG_6_252.jpg"",""SV_PolicingMSA/CO_252/IMG_0_252.jpg"",""SV_PolicingMSA/CO_252/IMG_8_252.jpg"",""SV_PolicingMSA/CO_252/IMG_7_252.jpg"",""SV_PolicingMSA/CO_252/IMG_12_252.jpg""]","5","","","","","","0","","4","[""./rc_img/cop_condGroup_1_CommunitySafety_autoscaled.png"",""./rc_img/cop_condGroup_1_SafeStreets_autoscaled.png""]","5","",""
"sliderTrial","html-slider-response","58","378258","0.0-58.0","","656776a7904ae00d6b91d1dd","6568a825529b24d236906a06","4","","","","","","","","","","","","2044","[""SV_PolicingMSA/CO_252/IMG_14_252.jpg"",""SV_PolicingMSA/CO_252/IMG_3_252.jpg"",""SV_PolicingMSA/CO_252/IMG_11_252.jpg"",""SV_PolicingMSA/CO_252/IMG_6_252.jpg"",""SV_PolicingMSA/CO_252/IMG_0_252.jpg"",""SV_PolicingMSA/CO_252/IMG_8_252.jpg"",""SV_PolicingMSA/CO_252/IMG_7_252.jpg"",""SV_PolicingMSA/CO_252/IMG_12_252.jpg""]","5","","","","","","0","","4","[""./rc_img/cop_condGroup_10_CommunitySafety_autoscaled.png"",""./rc_img/cop_condGroup_10_SafeStreets_autoscaled.png""]","5","",""
"before_SVSlide_prompt","html-button-response","59","379421","0.0-59.0","","656776a7904ae00d6b91d1dd","6568a825529b24d236906a06","4","","","","","","","","","","","","1163","Click [Next] to see the next neighborhood!","0","","","","","","","","","","","",""
"street view slide show","image-button-response","60","380430","0.0-60.0","","656776a7904ae00d6b91d1dd","6568a825529b24d236906a06","4","","","","","","","","","","","","null","stimulus/SV_PolicingMSA/CO_649/IMG_11_649.jpg","null","","","","","","2","","","","","",""
"street view slide show","image-button-response","61","381446","0.0-61.0","","656776a7904ae00d6b91d1dd","6568a825529b24d236906a06","4","","","","","","","","","","","","null","stimulus/SV_PolicingMSA/CO_649/IMG_6_649.jpg","null","","","","","","2","","","","","",""
"street view slide show","image-button-response","62","382462","0.0-62.0","","656776a7904ae00d6b91d1dd","6568a825529b24d236906a06","4","","","","","","","","","","","","null","stimulus/SV_PolicingMSA/CO_649/IMG_14_649.jpg","null","","","","","","2","","","","","",""
"street view slide show","image-button-response","63","383464","0.0-63.0","","656776a7904ae00d6b91d1dd","6568a825529b24d236906a06","4","","","","","","","","","","","","null","stimulus/SV_PolicingMSA/CO_649/IMG_9_649.jpg","null","","","","","","2","","","","","",""
"street view slide show","image-button-response","64","384477","0.0-64.0","","656776a7904ae00d6b91d1dd","6568a825529b24d236906a06","4","","","","","","","","","","","","null","stimulus/SV_PolicingMSA/CO_649/IMG_12_649.jpg","null","","","","","","2","","","","","",""
"street view slide show","image-button-response","65","385494","0.0-65.0","","656776a7904ae00d6b91d1dd","6568a825529b24d236906a06","4","","","","","","","","","","","","null","stimulus/SV_PolicingMSA/CO_649/IMG_3_649.jpg","null","","","","","","2","","","","","",""
"street view slide show","image-button-response","66","386509","0.0-66.0","","656776a7904ae00d6b91d1dd","6568a825529b24d236906a06","4","","","","","","","","","","","","null","stimulus/SV_PolicingMSA/CO_649/IMG_4_649.jpg","null","","","","","","2","","","","","",""
"street view slide show","image-button-response","67","387539","0.0-67.0","","656776a7904ae00d6b91d1dd","6568a825529b24d236906a06","4","","","","","","","","","","","","null","stimulus/SV_PolicingMSA/CO_649/IMG_8_649.jpg","null","","","","","","2","","","","","",""
"dot matrix survey1","survey","68","399479","0.0-68.0","","656776a7904ae00d6b91d1dd","6568a825529b24d236906a06","4","","","","","","","","","","","","11921","","{""P0_Q0"":null,""P0_Q1"":{""wealthy"":4,""safe"":2,""walkable"":2,""traditional"":2,""diverse"":1}}","","","","","","2","[]","","","","",""
"dot matrix survey2","survey","69","407003","0.0-69.0","","656776a7904ae00d6b91d1dd","6568a825529b24d236906a06","4","","","","","","","","","","","","7518","","{""P0_Q0"":null,""P0_Q1"":{""violence"":1,""crime"":1,""drug"":1,""schools"":3,""opportunities"":4}}","","","","","","2","[]","","","","",""
"dot matrix survey3","survey","70","418161","0.0-70.0","","656776a7904ae00d6b91d1dd","6568a825529b24d236906a06","4","","","","","","","","","","","","11152","","{""P0_Q0"":null,""P0_Q1"":{""movein"":4,""moveout"":0,""shopping"":4,""walk"":2,""park"":4,""school"":4}}","","","","","","2","[]","","","","",""
"sliderTrial","html-slider-response","71","421275","0.0-71.0","","656776a7904ae00d6b91d1dd","6568a825529b24d236906a06","4","","","","","","","","","","","","3112","[""SV_PolicingMSA/CO_649/IMG_11_649.jpg"",""SV_PolicingMSA/CO_649/IMG_6_649.jpg"",""SV_PolicingMSA/CO_649/IMG_14_649.jpg"",""SV_PolicingMSA/CO_649/IMG_9_649.jpg"",""SV_PolicingMSA/CO_649/IMG_12_649.jpg"",""SV_PolicingMSA/CO_649/IMG_3_649.jpg"",""SV_PolicingMSA/CO_649/IMG_4_649.jpg"",""SV_PolicingMSA/CO_649/IMG_8_649.jpg""]","2","","","","","","2","","4","[""./rc_img/cop_condGroup_5_CommunitySafety_autoscaled.png"",""./rc_img/cop_condGroup_5_SafeStreets_autoscaled.png""]","2","",""
"sliderTrial","html-slider-response","72","423307","0.0-72.0","","656776a7904ae00d6b91d1dd","6568a825529b24d236906a06","4","","","","","","","","","","","","2030","[""SV_PolicingMSA/CO_649/IMG_11_649.jpg"",""SV_PolicingMSA/CO_649/IMG_6_649.jpg"",""SV_PolicingMSA/CO_649/IMG_14_649.jpg"",""SV_PolicingMSA/CO_649/IMG_9_649.jpg"",""SV_PolicingMSA/CO_649/IMG_12_649.jpg"",""SV_PolicingMSA/CO_649/IMG_3_649.jpg"",""SV_PolicingMSA/CO_649/IMG_4_649.jpg"",""SV_PolicingMSA/CO_649/IMG_8_649.jpg""]","5","","","","","","2","","4","[""./rc_img/cop_condGroup_9_SafeStreets_autoscaled.png"",""./rc_img/cop_condGroup_9_CommunitySafety_autoscaled.png""]","3","",""
"sliderTrial","html-slider-response","73","425054","0.0-73.0","","656776a7904ae00d6b91d1dd","6568a825529b24d236906a06","4","","","","","","","","","","","","1746","[""SV_PolicingMSA/CO_649/IMG_11_649.jpg"",""SV_PolicingMSA/CO_649/IMG_6_649.jpg"",""SV_PolicingMSA/CO_649/IMG_14_649.jpg"",""SV_PolicingMSA/CO_649/IMG_9_649.jpg"",""SV_PolicingMSA/CO_649/IMG_12_649.jpg"",""SV_PolicingMSA/CO_649/IMG_3_649.jpg"",""SV_PolicingMSA/CO_649/IMG_4_649.jpg"",""SV_PolicingMSA/CO_649/IMG_8_649.jpg""]","6","","","","","","2","","4","[""./rc_img/cop_condGroup_7_SafeStreets_autoscaled.png"",""./rc_img/cop_condGroup_7_CommunitySafety_autoscaled.png""]","2","",""
"sliderTrial","html-slider-response","74","426992","0.0-74.0","","656776a7904ae00d6b91d1dd","6568a825529b24d236906a06","4","","","","","","","","","","","","1937","[""SV_PolicingMSA/CO_649/IMG_11_649.jpg"",""SV_PolicingMSA/CO_649/IMG_6_649.jpg"",""SV_PolicingMSA/CO_649/IMG_14_649.jpg"",""SV_PolicingMSA/CO_649/IMG_9_649.jpg"",""SV_PolicingMSA/CO_649/IMG_12_649.jpg"",""SV_PolicingMSA/CO_649/IMG_3_649.jpg"",""SV_PolicingMSA/CO_649/IMG_4_649.jpg"",""SV_PolicingMSA/CO_649/IMG_8_649.jpg""]","6","","","","","","2","","4","[""./rc_img/cop_condGroup_3_SafeStreets_autoscaled.png"",""./rc_img/cop_condGroup_3_CommunitySafety_autoscaled.png""]","2","",""
"sliderTrial","html-slider-response","75","428796","0.0-75.0","","656776a7904ae00d6b91d1dd","6568a825529b24d236906a06","4","","","","","","","","","","","","1803","[""SV_PolicingMSA/CO_649/IMG_11_649.jpg"",""SV_PolicingMSA/CO_649/IMG_6_649.jpg"",""SV_PolicingMSA/CO_649/IMG_14_649.jpg"",""SV_PolicingMSA/CO_649/IMG_9_649.jpg"",""SV_PolicingMSA/CO_649/IMG_12_649.jpg"",""SV_PolicingMSA/CO_649/IMG_3_649.jpg"",""SV_PolicingMSA/CO_649/IMG_4_649.jpg"",""SV_PolicingMSA/CO_649/IMG_8_649.jpg""]","6","","","","","","2","","4","[""./rc_img/cop_condGroup_13_SafeStreets_autoscaled.png"",""./rc_img/cop_condGroup_13_CommunitySafety_autoscaled.png""]","2","",""
"half-way","html-button-response","76","444556","0.0-76.0","","656776a7904ae00d6b91d1dd","6568a825529b24d236906a06","4","","","","","","","","","","","","null","
    <h3>You are now half way through the study.</h3>
    <p>Please take a quick, 15-second break before you continue.</p>
    <img src='assets/img/countdown-15.gif'>
    <p>The study will automatically advance forward after the countdown is complete. <br> However, you may click ""Next"" to advance forward now if you wish.</p>
    ","null","","","","","","","","","","","",""
"before_SVSlide_prompt","html-button-response","77","448856","0.0-77.0","","656776a7904ae00d6b91d1dd","6568a825529b24d236906a06","4","","","","","","","","","","","","4299","Click [Next] to see the next neighborhood!","0","","","","","","","","","","","",""
"street view slide show","image-button-response","78","449869","0.0-78.0","","656776a7904ae00d6b91d1dd","6568a825529b24d236906a06","4","","","","","","","","","","","","null","stimulus/SV_PolicingMSA/CO_1325/IMG_13_1325.jpg","null","","","","","","3","","","","","",""
"street view slide show","image-button-response","79","450884","0.0-79.0","","656776a7904ae00d6b91d1dd","6568a825529b24d236906a06","4","","","","","","","","","","","","null","stimulus/SV_PolicingMSA/CO_1325/IMG_5_1325.jpg","null","","","","","","3","","","","","",""
"street view slide show","image-button-response","80","451899","0.0-80.0","","656776a7904ae00d6b91d1dd","6568a825529b24d236906a06","4","","","","","","","","","","","","null","stimulus/SV_PolicingMSA/CO_1325/IMG_3_1325.jpg","null","","","","","","3","","","","","",""
"street view slide show","image-button-response","81","452901","0.0-81.0","","656776a7904ae00d6b91d1dd","6568a825529b24d236906a06","4","","","","","","","","","","","","null","stimulus/SV_PolicingMSA/CO_1325/IMG_9_1325.jpg","null","","","","","","3","","","","","",""
"street view slide show","image-button-response","82","453915","0.0-82.0","","656776a7904ae00d6b91d1dd","6568a825529b24d236906a06","4","","","","","","","","","","","","null","stimulus/SV_PolicingMSA/CO_1325/IMG_14_1325.jpg","null","","","","","","3","","","","","",""
"street view slide show","image-button-response","83","454930","0.0-83.0","","656776a7904ae00d6b91d1dd","6568a825529b24d236906a06","4","","","","","","","","","","","","null","stimulus/SV_PolicingMSA/CO_1325/IMG_11_1325.jpg","null","","","","","","3","","","","","",""
"street view slide show","image-button-response","84","455932","0.0-84.0","","656776a7904ae00d6b91d1dd","6568a825529b24d236906a06","4","","","","","","","","","","","","null","stimulus/SV_PolicingMSA/CO_1325/IMG_1_1325.jpg","null","","","","","","3","","","","","",""
"street view slide show","image-button-response","85","456947","0.0-85.0","","656776a7904ae00d6b91d1dd","6568a825529b24d236906a06","4","","","","","","","","","","","","null","stimulus/SV_PolicingMSA/CO_1325/IMG_8_1325.jpg","null","","","","","","3","","","","","",""
"dot matrix survey1","survey","86","466970","0.0-86.0","","656776a7904ae00d6b91d1dd","6568a825529b24d236906a06","4","","","","","","","","","","","","10006","","{""P0_Q0"":null,""P0_Q1"":{""wealthy"":2,""safe"":2,""walkable"":0,""traditional"":4,""diverse"":2}}","","","","","","3","[]","","","","",""
"dot matrix survey2","survey","87","476295","0.0-87.0","","656776a7904ae00d6b91d1dd","6568a825529b24d236906a06","4","","","","","","","","","","","","9321","","{""P0_Q0"":null,""P0_Q1"":{""violence"":2,""crime"":2,""drug"":1,""schools"":3,""opportunities"":2}}","","","","","","3","[]","","","","",""
"dot matrix survey3","survey","88","487549","0.0-88.0","","656776a7904ae00d6b91d1dd","6568a825529b24d236906a06","4","","","","","","","","","","","","11251","","{""P0_Q0"":null,""P0_Q1"":{""movein"":2,""moveout"":1,""shopping"":2,""walk"":1,""park"":2,""school"":3}}","","","","","","3","[]","","","","",""
"sliderTrial","html-slider-response","89","490831","0.0-89.0","","656776a7904ae00d6b91d1dd","6568a825529b24d236906a06","4","","","","","","","","","","","","3280","[""SV_PolicingMSA/CO_1325/IMG_13_1325.jpg"",""SV_PolicingMSA/CO_1325/IMG_5_1325.jpg"",""SV_PolicingMSA/CO_1325/IMG_3_1325.jpg"",""SV_PolicingMSA/CO_1325/IMG_9_1325.jpg"",""SV_PolicingMSA/CO_1325/IMG_14_1325.jpg"",""SV_PolicingMSA/CO_1325/IMG_11_1325.jpg"",""SV_PolicingMSA/CO_1325/IMG_1_1325.jpg"",""SV_PolicingMSA/CO_1325/IMG_8_1325.jpg""]","3","","","","","","3","","4","[""./rc_img/cop_condGroup_18_CommunitySafety_autoscaled.png"",""./rc_img/cop_condGroup_18_SafeStreets_autoscaled.png""]","3","",""
"sliderTrial","html-slider-response","90","492664","0.0-90.0","","656776a7904ae00d6b91d1dd","6568a825529b24d236906a06","4","","","","","","","","","","","","1831","[""SV_PolicingMSA/CO_1325/IMG_13_1325.jpg"",""SV_PolicingMSA/CO_1325/IMG_5_1325.jpg"",""SV_PolicingMSA/CO_1325/IMG_3_1325.jpg"",""SV_PolicingMSA/CO_1325/IMG_9_1325.jpg"",""SV_PolicingMSA/CO_1325/IMG_14_1325.jpg"",""SV_PolicingMSA/CO_1325/IMG_11_1325.jpg"",""SV_PolicingMSA/CO_1325/IMG_1_1325.jpg"",""SV_PolicingMSA/CO_1325/IMG_8_1325.jpg""]","5","","","","","","3","","4","[""./rc_img/cop_condGroup_16_SafeStreets_autoscaled.png"",""./rc_img/cop_condGroup_16_CommunitySafety_autoscaled.png""]","3","",""
"sliderTrial","html-slider-response","91","494498","0.0-91.0","","656776a7904ae00d6b91d1dd","6568a825529b24d236906a06","4","","","","","","","","","","","","1833","[""SV_PolicingMSA/CO_1325/IMG_13_1325.jpg"",""SV_PolicingMSA/CO_1325/IMG_5_1325.jpg"",""SV_PolicingMSA/CO_1325/IMG_3_1325.jpg"",""SV_PolicingMSA/CO_1325/IMG_9_1325.jpg"",""SV_PolicingMSA/CO_1325/IMG_14_1325.jpg"",""SV_PolicingMSA/CO_1325/IMG_11_1325.jpg"",""SV_PolicingMSA/CO_1325/IMG_1_1325.jpg"",""SV_PolicingMSA/CO_1325/IMG_8_1325.jpg""]","3","","","","","","3","","4","[""./rc_img/cop_condGroup_14_CommunitySafety_autoscaled.png"",""./rc_img/cop_condGroup_14_SafeStreets_autoscaled.png""]","3","",""
"sliderTrial","html-slider-response","92","496528","0.0-92.0","","656776a7904ae00d6b91d1dd","6568a825529b24d236906a06","4","","","","","","","","","","","","2029","[""SV_PolicingMSA/CO_1325/IMG_13_1325.jpg"",""SV_PolicingMSA/CO_1325/IMG_5_1325.jpg"",""SV_PolicingMSA/CO_1325/IMG_3_1325.jpg"",""SV_PolicingMSA/CO_1325/IMG_9_1325.jpg"",""SV_PolicingMSA/CO_1325/IMG_14_1325.jpg"",""SV_PolicingMSA/CO_1325/IMG_11_1325.jpg"",""SV_PolicingMSA/CO_1325/IMG_1_1325.jpg"",""SV_PolicingMSA/CO_1325/IMG_8_1325.jpg""]","3","","","","","","3","","4","[""./rc_img/cop_condGroup_12_CommunitySafety_autoscaled.png"",""./rc_img/cop_condGroup_12_SafeStreets_autoscaled.png""]","3","",""
"sliderTrial","html-slider-response","93","498318","0.0-93.0","","656776a7904ae00d6b91d1dd","6568a825529b24d236906a06","4","","","","","","","","","","","","1788","[""SV_PolicingMSA/CO_1325/IMG_13_1325.jpg"",""SV_PolicingMSA/CO_1325/IMG_5_1325.jpg"",""SV_PolicingMSA/CO_1325/IMG_3_1325.jpg"",""SV_PolicingMSA/CO_1325/IMG_9_1325.jpg"",""SV_PolicingMSA/CO_1325/IMG_14_1325.jpg"",""SV_PolicingMSA/CO_1325/IMG_11_1325.jpg"",""SV_PolicingMSA/CO_1325/IMG_1_1325.jpg"",""SV_PolicingMSA/CO_1325/IMG_8_1325.jpg""]","3","","","","","","3","","4","[""./rc_img/cop_condGroup_2_CommunitySafety_autoscaled.png"",""./rc_img/cop_condGroup_2_SafeStreets_autoscaled.png""]","3","",""
"before_SVSlide_prompt","html-button-response","94","501253","0.0-94.0","","656776a7904ae00d6b91d1dd","6568a825529b24d236906a06","4","","","","","","","","","","","","2933","Click [Next] to see the next neighborhood!","0","","","","","","","","","","","",""
"street view slide show","image-button-response","95","502259","0.0-95.0","","656776a7904ae00d6b91d1dd","6568a825529b24d236906a06","4","","","","","","","","","","","","null","stimulus/SV_PolicingMSA/CO_1308/IMG_4_1308.jpg","null","","","","","","3","","","","","",""
"street view slide show","image-button-response","96","503274","0.0-96.0","","656776a7904ae00d6b91d1dd","6568a825529b24d236906a06","4","","","","","","","","","","","","null","stimulus/SV_PolicingMSA/CO_1308/IMG_3_1308.jpg","null","","","","","","3","","","","","",""
"street view slide show","image-button-response","97","504290","0.0-97.0","","656776a7904ae00d6b91d1dd","6568a825529b24d236906a06","4","","","","","","","","","","","","null","stimulus/SV_PolicingMSA/CO_1308/IMG_8_1308.jpg","null","","","","","","3","","","","","",""
"street view slide show","image-button-response","98","505306","0.0-98.0","","656776a7904ae00d6b91d1dd","6568a825529b24d236906a06","4","","","","","","","","","","","","null","stimulus/SV_PolicingMSA/CO_1308/IMG_14_1308.jpg","null","","","","","","3","","","","","",""
"street view slide show","image-button-response","99","506321","0.0-99.0","","656776a7904ae00d6b91d1dd","6568a825529b24d236906a06","4","","","","","","","","","","","","null","stimulus/SV_PolicingMSA/CO_1308/IMG_0_1308.jpg","null","","","","","","3","","","","","",""
"street view slide show","image-button-response","100","507337","0.0-100.0","","656776a7904ae00d6b91d1dd","6568a825529b24d236906a06","4","","","","","","","","","","","","null","stimulus/SV_PolicingMSA/CO_1308/IMG_2_1308.jpg","null","","","","","","3","","","","","",""
"street view slide show","image-button-response","101","508347","0.0-101.0","","656776a7904ae00d6b91d1dd","6568a825529b24d236906a06","4","","","","","","","","","","","","null","stimulus/SV_PolicingMSA/CO_1308/IMG_13_1308.jpg","null","","","","","","3","","","","","",""
"street view slide show","image-button-response","102","509359","0.0-102.0","","656776a7904ae00d6b91d1dd","6568a825529b24d236906a06","4","","","","","","","","","","","","null","stimulus/SV_PolicingMSA/CO_1308/IMG_11_1308.jpg","null","","","","","","3","","","","","",""
"dot matrix survey1","survey","103","528052","0.0-103.0","","656776a7904ae00d6b91d1dd","6568a825529b24d236906a06","4","","","","","","","","","","","","18682","","{""P0_Q0"":null,""P0_Q1"":{""wealthy"":2,""safe"":2,""walkable"":4,""traditional"":1,""diverse"":2}}","","","","","","3","[]","","","","",""
"dot matrix survey2","survey","104","545460","0.0-104.0","","656776a7904ae00d6b91d1dd","6568a825529b24d236906a06","4","","","","","","","","","","","","17404","","{""P0_Q0"":null,""P0_Q1"":{""violence"":1,""crime"":2,""drug"":1,""schools"":2,""opportunities"":3}}","","","","","","3","[]","","","","",""
"dot matrix survey3","survey","105","554963","0.0-105.0","","656776a7904ae00d6b91d1dd","6568a825529b24d236906a06","4","","","","","","","","","","","","9497","","{""P0_Q0"":null,""P0_Q1"":{""movein"":2,""moveout"":2,""shopping"":2,""walk"":1,""park"":2,""school"":2}}","","","","","","3","[]","","","","",""
"sliderTrial","html-slider-response","106","560448","0.0-106.0","","656776a7904ae00d6b91d1dd","6568a825529b24d236906a06","4","","","","","","","","","","","","5483","[""SV_PolicingMSA/CO_1308/IMG_4_1308.jpg"",""SV_PolicingMSA/CO_1308/IMG_3_1308.jpg"",""SV_PolicingMSA/CO_1308/IMG_8_1308.jpg"",""SV_PolicingMSA/CO_1308/IMG_14_1308.jpg"",""SV_PolicingMSA/CO_1308/IMG_0_1308.jpg"",""SV_PolicingMSA/CO_1308/IMG_2_1308.jpg"",""SV_PolicingMSA/CO_1308/IMG_13_1308.jpg"",""SV_PolicingMSA/CO_1308/IMG_11_1308.jpg""]","3","","","","","","3","","4","[""./rc_img/cop_condGroup_17_SafeStreets_autoscaled.png"",""./rc_img/cop_condGroup_17_CommunitySafety_autoscaled.png""]","5","",""
"sliderTrial","html-slider-response","107","566949","0.0-107.0","","656776a7904ae00d6b91d1dd","6568a825529b24d236906a06","4","","","","","","","","","","","","6499","[""SV_PolicingMSA/CO_1308/IMG_4_1308.jpg"",""SV_PolicingMSA/CO_1308/IMG_3_1308.jpg"",""SV_PolicingMSA/CO_1308/IMG_8_1308.jpg"",""SV_PolicingMSA/CO_1308/IMG_14_1308.jpg"",""SV_PolicingMSA/CO_1308/IMG_0_1308.jpg"",""SV_PolicingMSA/CO_1308/IMG_2_1308.jpg"",""SV_PolicingMSA/CO_1308/IMG_13_1308.jpg"",""SV_PolicingMSA/CO_1308/IMG_11_1308.jpg""]","3","","","","","","3","","4","[""./rc_img/cop_condGroup_11_SafeStreets_autoscaled.png"",""./rc_img/cop_condGroup_11_CommunitySafety_autoscaled.png""]","5","",""
"sliderTrial","html-slider-response","108","569507","0.0-108.0","","656776a7904ae00d6b91d1dd","6568a825529b24d236906a06","4","","","","","","","","","","","","2557","[""SV_PolicingMSA/CO_1308/IMG_4_1308.jpg"",""SV_PolicingMSA/CO_1308/IMG_3_1308.jpg"",""SV_PolicingMSA/CO_1308/IMG_8_1308.jpg"",""SV_PolicingMSA/CO_1308/IMG_14_1308.jpg"",""SV_PolicingMSA/CO_1308/IMG_0_1308.jpg"",""SV_PolicingMSA/CO_1308/IMG_2_1308.jpg"",""SV_PolicingMSA/CO_1308/IMG_13_1308.jpg"",""SV_PolicingMSA/CO_1308/IMG_11_1308.jpg""]","3","","","","","","3","","4","[""./rc_img/cop_condGroup_19_SafeStreets_autoscaled.png"",""./rc_img/cop_condGroup_19_CommunitySafety_autoscaled.png""]","5","",""
"sliderTrial","html-slider-response","109","571660","0.0-109.0","","656776a7904ae00d6b91d1dd","6568a825529b24d236906a06","4","","","","","","","","","","","","2152","[""SV_PolicingMSA/CO_1308/IMG_4_1308.jpg"",""SV_PolicingMSA/CO_1308/IMG_3_1308.jpg"",""SV_PolicingMSA/CO_1308/IMG_8_1308.jpg"",""SV_PolicingMSA/CO_1308/IMG_14_1308.jpg"",""SV_PolicingMSA/CO_1308/IMG_0_1308.jpg"",""SV_PolicingMSA/CO_1308/IMG_2_1308.jpg"",""SV_PolicingMSA/CO_1308/IMG_13_1308.jpg"",""SV_PolicingMSA/CO_1308/IMG_11_1308.jpg""]","6","","","","","","3","","4","[""./rc_img/cop_condGroup_20_CommunitySafety_autoscaled.png"",""./rc_img/cop_condGroup_20_SafeStreets_autoscaled.png""]","6","",""
"sliderTrial","html-slider-response","110","573848","0.0-110.0","","656776a7904ae00d6b91d1dd","6568a825529b24d236906a06","4","","","","","","","","","","","","2187","[""SV_PolicingMSA/CO_1308/IMG_4_1308.jpg"",""SV_PolicingMSA/CO_1308/IMG_3_1308.jpg"",""SV_PolicingMSA/CO_1308/IMG_8_1308.jpg"",""SV_PolicingMSA/CO_1308/IMG_14_1308.jpg"",""SV_PolicingMSA/CO_1308/IMG_0_1308.jpg"",""SV_PolicingMSA/CO_1308/IMG_2_1308.jpg"",""SV_PolicingMSA/CO_1308/IMG_13_1308.jpg"",""SV_PolicingMSA/CO_1308/IMG_11_1308.jpg""]","3","","","","","","3","","4","[""./rc_img/cop_condGroup_4_SafeStreets_autoscaled.png"",""./rc_img/cop_condGroup_4_CommunitySafety_autoscaled.png""]","5","",""
"before_SVSlide_prompt","html-button-response","111","575109","0.0-111.0","","656776a7904ae00d6b91d1dd","6568a825529b24d236906a06","4","","","","","","","","","","","","1260","Click [Next] to see the next neighborhood!","0","","","","","","","","","","","",""
"street view slide show","image-button-response","112","576120","0.0-112.0","","656776a7904ae00d6b91d1dd","6568a825529b24d236906a06","4","","","","","","","","","","","","null","stimulus/SV_PolicingMSA/CO_674/IMG_8_674.jpg","null","","","","","","4","","","","","",""
"street view slide show","image-button-response","113","577134","0.0-113.0","","656776a7904ae00d6b91d1dd","6568a825529b24d236906a06","4","","","","","","","","","","","","null","stimulus/SV_PolicingMSA/CO_674/IMG_4_674.jpg","null","","","","","","4","","","","","",""
"street view slide show","image-button-response","114","578149","0.0-114.0","","656776a7904ae00d6b91d1dd","6568a825529b24d236906a06","4","","","","","","","","","","","","null","stimulus/SV_PolicingMSA/CO_674/IMG_13_674.jpg","null","","","","","","4","","","","","",""
"street view slide show","image-button-response","115","579165","0.0-115.0","","656776a7904ae00d6b91d1dd","6568a825529b24d236906a06","4","","","","","","","","","","","","null","stimulus/SV_PolicingMSA/CO_674/IMG_7_674.jpg","null","","","","","","4","","","","","",""
"street view slide show","image-button-response","116","580182","0.0-116.0","","656776a7904ae00d6b91d1dd","6568a825529b24d236906a06","4","","","","","","","","","","","","null","stimulus/SV_PolicingMSA/CO_674/IMG_0_674.jpg","null","","","","","","4","","","","","",""
"street view slide show","image-button-response","117","581212","0.0-117.0","","656776a7904ae00d6b91d1dd","6568a825529b24d236906a06","4","","","","","","","","","","","","null","stimulus/SV_PolicingMSA/CO_674/IMG_2_674.jpg","null","","","","","","4","","","","","",""
"street view slide show","image-button-response","118","582228","0.0-118.0","","656776a7904ae00d6b91d1dd","6568a825529b24d236906a06","4","","","","","","","","","","","","null","stimulus/SV_PolicingMSA/CO_674/IMG_10_674.jpg","null","","","","","","4","","","","","",""
"street view slide show","image-button-response","119","583243","0.0-119.0","","656776a7904ae00d6b91d1dd","6568a825529b24d236906a06","4","","","","","","","","","","","","null","stimulus/SV_PolicingMSA/CO_674/IMG_14_674.jpg","null","","","","","","4","","","","","",""
"dot matrix survey1","survey","120","617253","0.0-120.0","","656776a7904ae00d6b91d1dd","6568a825529b24d236906a06","4","","","","","","","","","","","","33991","","{""P0_Q0"":null,""P0_Q1"":{""wealthy"":4,""safe"":2,""walkable"":2,""traditional"":4,""diverse"":1}}","","","","","","4","[]","","","","",""
"dot matrix survey2","survey","121","624731","0.0-121.0","","656776a7904ae00d6b91d1dd","6568a825529b24d236906a06","4","","","","","","","","","","","","7468","","{""P0_Q0"":null,""P0_Q1"":{""violence"":1,""crime"":2,""drug"":1,""schools"":3,""opportunities"":3}}","","","","","","4","[]","","","","",""
"dot matrix survey3","survey","122","634721","0.0-122.0","","656776a7904ae00d6b91d1dd","6568a825529b24d236906a06","4","","","","","","","","","","","","9985","","{""P0_Q0"":null,""P0_Q1"":{""movein"":2,""moveout"":1,""shopping"":3,""walk"":0,""park"":3,""school"":3}}","","","","","","4","[]","","","","",""
"sliderTrial","html-slider-response","123","636951","0.0-123.0","","656776a7904ae00d6b91d1dd","6568a825529b24d236906a06","4","","","","","","","","","","","","2228","[""SV_PolicingMSA/CO_674/IMG_8_674.jpg"",""SV_PolicingMSA/CO_674/IMG_4_674.jpg"",""SV_PolicingMSA/CO_674/IMG_13_674.jpg"",""SV_PolicingMSA/CO_674/IMG_7_674.jpg"",""SV_PolicingMSA/CO_674/IMG_0_674.jpg"",""SV_PolicingMSA/CO_674/IMG_2_674.jpg"",""SV_PolicingMSA/CO_674/IMG_10_674.jpg"",""SV_PolicingMSA/CO_674/IMG_14_674.jpg""]","3","","","","","","4","","4","[""./rc_img/cop_condGroup_5_CommunitySafety_autoscaled.png"",""./rc_img/cop_condGroup_5_SafeStreets_autoscaled.png""]","3","",""
"sliderTrial","html-slider-response","124","638554","0.0-124.0","","656776a7904ae00d6b91d1dd","6568a825529b24d236906a06","4","","","","","","","","","","","","1601","[""SV_PolicingMSA/CO_674/IMG_8_674.jpg"",""SV_PolicingMSA/CO_674/IMG_4_674.jpg"",""SV_PolicingMSA/CO_674/IMG_13_674.jpg"",""SV_PolicingMSA/CO_674/IMG_7_674.jpg"",""SV_PolicingMSA/CO_674/IMG_0_674.jpg"",""SV_PolicingMSA/CO_674/IMG_2_674.jpg"",""SV_PolicingMSA/CO_674/IMG_10_674.jpg"",""SV_PolicingMSA/CO_674/IMG_14_674.jpg""]","5","","","","","","4","","4","[""./rc_img/cop_condGroup_9_SafeStreets_autoscaled.png"",""./rc_img/cop_condGroup_9_CommunitySafety_autoscaled.png""]","3","",""
"sliderTrial","html-slider-response","125","640679","0.0-125.0","","656776a7904ae00d6b91d1dd","6568a825529b24d236906a06","4","","","","","","","","","","","","2124","[""SV_PolicingMSA/CO_674/IMG_8_674.jpg"",""SV_PolicingMSA/CO_674/IMG_4_674.jpg"",""SV_PolicingMSA/CO_674/IMG_13_674.jpg"",""SV_PolicingMSA/CO_674/IMG_7_674.jpg"",""SV_PolicingMSA/CO_674/IMG_0_674.jpg"",""SV_PolicingMSA/CO_674/IMG_2_674.jpg"",""SV_PolicingMSA/CO_674/IMG_10_674.jpg"",""SV_PolicingMSA/CO_674/IMG_14_674.jpg""]","6","","","","","","4","","4","[""./rc_img/cop_condGroup_7_SafeStreets_autoscaled.png"",""./rc_img/cop_condGroup_7_CommunitySafety_autoscaled.png""]","2","",""
"sliderTrial","html-slider-response","126","642501","0.0-126.0","","656776a7904ae00d6b91d1dd","6568a825529b24d236906a06","4","","","","","","","","","","","","1820","[""SV_PolicingMSA/CO_674/IMG_8_674.jpg"",""SV_PolicingMSA/CO_674/IMG_4_674.jpg"",""SV_PolicingMSA/CO_674/IMG_13_674.jpg"",""SV_PolicingMSA/CO_674/IMG_7_674.jpg"",""SV_PolicingMSA/CO_674/IMG_0_674.jpg"",""SV_PolicingMSA/CO_674/IMG_2_674.jpg"",""SV_PolicingMSA/CO_674/IMG_10_674.jpg"",""SV_PolicingMSA/CO_674/IMG_14_674.jpg""]","6","","","","","","4","","4","[""./rc_img/cop_condGroup_3_SafeStreets_autoscaled.png"",""./rc_img/cop_condGroup_3_CommunitySafety_autoscaled.png""]","2","",""
"sliderTrial","html-slider-response","127","644309","0.0-127.0","","656776a7904ae00d6b91d1dd","6568a825529b24d236906a06","4","","","","","","","","","","","","1806","[""SV_PolicingMSA/CO_674/IMG_8_674.jpg"",""SV_PolicingMSA/CO_674/IMG_4_674.jpg"",""SV_PolicingMSA/CO_674/IMG_13_674.jpg"",""SV_PolicingMSA/CO_674/IMG_7_674.jpg"",""SV_PolicingMSA/CO_674/IMG_0_674.jpg"",""SV_PolicingMSA/CO_674/IMG_2_674.jpg"",""SV_PolicingMSA/CO_674/IMG_10_674.jpg"",""SV_PolicingMSA/CO_674/IMG_14_674.jpg""]","6","","","","","","4","","4","[""./rc_img/cop_condGroup_13_SafeStreets_autoscaled.png"",""./rc_img/cop_condGroup_13_CommunitySafety_autoscaled.png""]","2","",""
"before_SVSlide_prompt","html-button-response","128","645524","0.0-128.0","","656776a7904ae00d6b91d1dd","6568a825529b24d236906a06","4","","","","","","","","","","","","1214","Click [Next] to see the next neighborhood!","0","","","","","","","","","","","",""
"street view slide show","image-button-response","129","646525","0.0-129.0","","656776a7904ae00d6b91d1dd","6568a825529b24d236906a06","4","","","","","","","","","","","","null","stimulus/SV_PolicingMSA/CO_543/IMG_10_543.jpg","null","","","","","","2","","","","","",""
"street view slide show","image-button-response","130","647541","0.0-130.0","","656776a7904ae00d6b91d1dd","6568a825529b24d236906a06","4","","","","","","","","","","","","null","stimulus/SV_PolicingMSA/CO_543/IMG_6_543.jpg","null","","","","","","2","","","","","",""
"street view slide show","image-button-response","131","648555","0.0-131.0","","656776a7904ae00d6b91d1dd","6568a825529b24d236906a06","4","","","","","","","","","","","","null","stimulus/SV_PolicingMSA/CO_543/IMG_14_543.jpg","null","","","","","","2","","","","","",""
"street view slide show","image-button-response","132","649557","0.0-132.0","","656776a7904ae00d6b91d1dd","6568a825529b24d236906a06","4","","","","","","","","","","","","null","stimulus/SV_PolicingMSA/CO_543/IMG_0_543.jpg","null","","","","","","2","","","","","",""
"street view slide show","image-button-response","133","650571","0.0-133.0","","656776a7904ae00d6b91d1dd","6568a825529b24d236906a06","4","","","","","","","","","","","","null","stimulus/SV_PolicingMSA/CO_543/IMG_5_543.jpg","null","","","","","","2","","","","","",""
"street view slide show","image-button-response","134","651587","0.0-134.0","","656776a7904ae00d6b91d1dd","6568a825529b24d236906a06","4","","","","","","","","","","","","null","stimulus/SV_PolicingMSA/CO_543/IMG_9_543.jpg","null","","","","","","2","","","","","",""
"street view slide show","image-button-response","135","652612","0.0-135.0","","656776a7904ae00d6b91d1dd","6568a825529b24d236906a06","4","","","","","","","","","","","","null","stimulus/SV_PolicingMSA/CO_543/IMG_1_543.jpg","null","","","","","","2","","","","","",""
"street view slide show","image-button-response","136","653634","0.0-136.0","","656776a7904ae00d6b91d1dd","6568a825529b24d236906a06","4","","","","","","","","","","","","null","stimulus/SV_PolicingMSA/CO_543/IMG_13_543.jpg","null","","","","","","2","","","","","",""
"dot matrix survey1","survey","137","692580","0.0-137.0","","656776a7904ae00d6b91d1dd","6568a825529b24d236906a06","4","","","","","","","","","","","","38934","","{""P0_Q0"":null,""P0_Q1"":{""wealthy"":1,""safe"":2,""walkable"":2,""traditional"":4,""diverse"":2}}","","","","","","2","[]","","","","",""
"dot matrix survey2","survey","138","699556","0.0-138.0","","656776a7904ae00d6b91d1dd","6568a825529b24d236906a06","4","","","","","","","","","","","","6971","","{""P0_Q0"":null,""P0_Q1"":{""violence"":2,""crime"":2,""drug"":1,""schools"":2,""opportunities"":2}}","","","","","","2","[]","","","","",""
"dot matrix survey3","survey","139","709894","0.0-139.0","","656776a7904ae00d6b91d1dd","6568a825529b24d236906a06","4","","","","","","","","","","","","10333","","{""P0_Q0"":null,""P0_Q1"":{""movein"":1,""moveout"":3,""shopping"":2,""walk"":0,""park"":2,""school"":2}}","","","","","","2","[]","","","","",""
"sliderTrial","html-slider-response","140","713192","0.0-140.0","","656776a7904ae00d6b91d1dd","6568a825529b24d236906a06","4","","","","","","","","","","","","3296","[""SV_PolicingMSA/CO_543/IMG_10_543.jpg"",""SV_PolicingMSA/CO_543/IMG_6_543.jpg"",""SV_PolicingMSA/CO_543/IMG_14_543.jpg"",""SV_PolicingMSA/CO_543/IMG_0_543.jpg"",""SV_PolicingMSA/CO_543/IMG_5_543.jpg"",""SV_PolicingMSA/CO_543/IMG_9_543.jpg"",""SV_PolicingMSA/CO_543/IMG_1_543.jpg"",""SV_PolicingMSA/CO_543/IMG_13_543.jpg""]","4","","","","","","2","","4","[""./rc_img/cop_condGroup_6_SafeStreets_autoscaled.png"",""./rc_img/cop_condGroup_6_CommunitySafety_autoscaled.png""]","4","",""
"sliderTrial","html-slider-response","141","715358","0.0-141.0","","656776a7904ae00d6b91d1dd","6568a825529b24d236906a06","4","","","","","","","","","","","","2165","[""SV_PolicingMSA/CO_543/IMG_10_543.jpg"",""SV_PolicingMSA/CO_543/IMG_6_543.jpg"",""SV_PolicingMSA/CO_543/IMG_14_543.jpg"",""SV_PolicingMSA/CO_543/IMG_0_543.jpg"",""SV_PolicingMSA/CO_543/IMG_5_543.jpg"",""SV_PolicingMSA/CO_543/IMG_9_543.jpg"",""SV_PolicingMSA/CO_543/IMG_1_543.jpg"",""SV_PolicingMSA/CO_543/IMG_13_543.jpg""]","5","","","","","","2","","4","[""./rc_img/cop_condGroup_8_CommunitySafety_autoscaled.png"",""./rc_img/cop_condGroup_8_SafeStreets_autoscaled.png""]","5","",""
"sliderTrial","html-slider-response","142","717109","0.0-142.0","","656776a7904ae00d6b91d1dd","6568a825529b24d236906a06","4","","","","","","","","","","","","1749","[""SV_PolicingMSA/CO_543/IMG_10_543.jpg"",""SV_PolicingMSA/CO_543/IMG_6_543.jpg"",""SV_PolicingMSA/CO_543/IMG_14_543.jpg"",""SV_PolicingMSA/CO_543/IMG_0_543.jpg"",""SV_PolicingMSA/CO_543/IMG_5_543.jpg"",""SV_PolicingMSA/CO_543/IMG_9_543.jpg"",""SV_PolicingMSA/CO_543/IMG_1_543.jpg"",""SV_PolicingMSA/CO_543/IMG_13_543.jpg""]","5","","","","","","2","","4","[""./rc_img/cop_condGroup_15_CommunitySafety_autoscaled.png"",""./rc_img/cop_condGroup_15_SafeStreets_autoscaled.png""]","5","",""
"sliderTrial","html-slider-response","143","718896","0.0-143.0","","656776a7904ae00d6b91d1dd","6568a825529b24d236906a06","4","","","","","","","","","","","","1786","[""SV_PolicingMSA/CO_543/IMG_10_543.jpg"",""SV_PolicingMSA/CO_543/IMG_6_543.jpg"",""SV_PolicingMSA/CO_543/IMG_14_543.jpg"",""SV_PolicingMSA/CO_543/IMG_0_543.jpg"",""SV_PolicingMSA/CO_543/IMG_5_543.jpg"",""SV_PolicingMSA/CO_543/IMG_9_543.jpg"",""SV_PolicingMSA/CO_543/IMG_1_543.jpg"",""SV_PolicingMSA/CO_543/IMG_13_543.jpg""]","5","","","","","","2","","4","[""./rc_img/cop_condGroup_1_CommunitySafety_autoscaled.png"",""./rc_img/cop_condGroup_1_SafeStreets_autoscaled.png""]","5","",""
"sliderTrial","html-slider-response","144","720972","0.0-144.0","","656776a7904ae00d6b91d1dd","6568a825529b24d236906a06","4","","","","","","","","","","","","2074","[""SV_PolicingMSA/CO_543/IMG_10_543.jpg"",""SV_PolicingMSA/CO_543/IMG_6_543.jpg"",""SV_PolicingMSA/CO_543/IMG_14_543.jpg"",""SV_PolicingMSA/CO_543/IMG_0_543.jpg"",""SV_PolicingMSA/CO_543/IMG_5_543.jpg"",""SV_PolicingMSA/CO_543/IMG_9_543.jpg"",""SV_PolicingMSA/CO_543/IMG_1_543.jpg"",""SV_PolicingMSA/CO_543/IMG_13_543.jpg""]","6","","","","","","2","","4","[""./rc_img/cop_condGroup_10_CommunitySafety_autoscaled.png"",""./rc_img/cop_condGroup_10_SafeStreets_autoscaled.png""]","6","",""
"demographics","survey-html-form","145","731424","0.0-145.0","","656776a7904ae00d6b91d1dd","6568a825529b24d236906a06","4","","","","","","","","","","","","10451","","{""age"":""39"",""sex"":""female"",""gender"":""woman"",""gender-self-describe"":"""",""zipcode"":""77562""}","","","","","","","","","","","",""
"demographics-list","survey","146","769315","0.0-146.0","","656776a7904ae00d6b91d1dd","6568a825529b24d236906a06","4","","","","","","","","","","","","37868","","{""P0_Q0"":null,""race-ethnicity"":[""White or of European ancestry""],""education"":""Bachelor’s degree"",""P1_Q0"":null,""ideology"":""Conservative"",""P2_Q0"":null,""num-moves"":1,""P3_Q0"":null,""social-ladder"":6}","","","","","","","[]","","","","",""
"end-survey","survey-text","147","771942","0.0-147.0","","656776a7904ae00d6b91d1dd","6568a825529b24d236906a06","4","","","","","","","","","","","","2617","","{""Q0"":""""}","","","","","","","","","","","","2"
"end-survey","html-button-response","148","774541","0.0-148.0","","656776a7904ae00d6b91d1dd","6568a825529b24d236906a06","4","","","","","","","","","","","","2598","
    You've reached the end of the survey. <br><br> 
    <b>Do not close or refresh this window.</b><br>
    On the next page, you will be automatically redirected to Prolific. <br><br>

    <div class=""alert alert-warning""><b>
    </div>
","0","","","","","","","","","","","",""
