"task","trial_type","trial_index","time_elapsed","internal_node_id","subject_id","study_id","session_id","section","width","height","webaudio","browser","browser_version","mobile","os","fullscreen","vsync_rate","webcam","microphone","rt","stimulus","response","success","timeout","failed_images","failed_audio","failed_video","block","accuracy","slider_start","choices","standardized_response","correct","num_attention_checks_correct"
"pavlovia-init","pavlovia","0","1058","0.0-0.0","","656776a7904ae00d6b91d1dd","6568ad1ef4db36474a5c1bf9","4","","","","","","","","","","","","","","","","","","","","","","","","","",""
"browser-check","browser-check","1","2071","0.0-1.0","","656776a7904ae00d6b91d1dd","6568ad1ef4db36474a5c1bf9","4","1280","563","true","chrome","118.0.0","false","Windows 10","true","59.67","true","true","","","","","","","","","","","","","","",""
"consent","html-button-response","2","6681","0.0-2.0","","656776a7904ae00d6b91d1dd","6568ad1ef4db36474a5c1bf9","4","","","","","","","","","","","","4608","
        <div style=""font-size: 80%; max-width:700px"">
            <h2>CONSENT FORM</h2>
        
            <div style=""text-align: left"">
            <h4>DESCRIPTION</h4>
            <p>
            You will complete a short task where you give your impressions of various neighborhoods and assign individuals to those spaces, and answer some questions about your thoughts and opinions.<br>
            The University of Michigan Institutional Review Board Health Sciences and Behavioral Sciences has determined that this study is exempt from IRB oversight.
            </p>

            <h4>TIME INVOLVEMENT</h4>
            <p>Your participation will take approximately 15 minutes. You will receive $3.15 upon completion of the study.</p>
        
            <h4>RISKS AND BENEFITS</h4>
            <p>
            The risks associated with this study are minimal. The benefits which may reasonably be expected to result from this study are none. We cannot and do not guarantee or promise that you will receive any benefits from this study.
            </p>
          
            <h4>SUBJECT'S RIGHTS</h4>
            <p>
            If you have read this form and have decided to participate in this project, please understand your participation is voluntary and you have the right to withdraw your consent or discontinue participation at any time without penalty or loss of benefits to which you are otherwise entitled. The alternative is not to participate. You have the right to refuse to answer particular questions. Your individual privacy will be maintained in all published and written data resulting from the study.
            </p>

            <h4>HUMAN SUBJECT APPROVAL</h4>
            <p>
            This study is exempt from ongoing IRB review.
            </p>

            <h4>CONTACT INFORMATION</h4>
            If you have any questions, concerns or complaints about this research, its procedures, risks and benefits, contact the Protocol Director, Nicholas Camp, npcamp@umich.edu, (443) 851-6783. <br>

            If you have questions about your rights as a research participant, or wish to obtain information, ask questions or discuss any concerns about this study with someone other than the researcher(s), please contact the following:<br><br>
            University of Michigan<br>
            Health Sciences and Behavioral Sciences Institutional Review Board (IRB-HSBS)<br>
            2800 Plymouth Road<br>
            Building 520, Room 1169Ann Arbor, MI 48109-2800<br>
            Telephone: 734-936-0933 or toll free (866) 936-0933<br>
            Fax: 734-936-1852<br>
            E-mail: irbhsbs@umich.edu<br><br>

            You can also contact the University of Michigan Compliance Hotline at 1-866-990-0111. You may also print this consent form to keep.
            <br><br>
            <div class=""alert alert-warning""><b>
            Do you consent to participate in this study? If you consent to participate in this study, please click “Accept and Continue”. If you select ""Decline and Exit"", you will be exited from the survey. <br>
            </b></div>
            </div>
        </div>
    ","1","","","","","","","","","","","",""
"","preload","3","8340","0.0-3.0","","656776a7904ae00d6b91d1dd","6568ad1ef4db36474a5c1bf9","4","","","","","","","","","","","","","","","true","false","[]","[]","[]","","","","","","",""
"instructions","html-button-response","4","19419","0.0-4.0","","656776a7904ae00d6b91d1dd","6568ad1ef4db36474a5c1bf9","4","","","","","","","","","","","","11077","
        <div class=""text-container"">
        <h1>Welcome to the study!</h1>
        
        <div class=""text-left"">
            <p>
                In this study, we are interested in what people can tell about spaces from Google Street View images. <br> Google Street View takes pictures of streets used for Google Earth and Google Maps. <br>You’ll see Google Street View images of different places and answer some questions about each one.<br>
            </p>
        </div>
        <img src = ""assets/img/example.png"" width = 500px, height = auto>
        <br>
    <br>
    ","0","","","","","","","","","","","",""
"instructions","html-button-response","5","22787","0.0-5.0","","656776a7904ae00d6b91d1dd","6568ad1ef4db36474a5c1bf9","4","","","","","","","","","","","","3367","
    <div class=""text-container"">
        <div class=""text-center"">
            <p>Please remember that your answers are completely anonymous.<br>Go with your gut response- there are no right or wrong answers!</p>
        </div>
    <br>
","0","","","","","","","","","","","",""
"before_SVSlide_prompt","html-button-response","6","24165","0.0-6.0","","656776a7904ae00d6b91d1dd","6568ad1ef4db36474a5c1bf9","4","","","","","","","","","","","","1378","Click [Next] to see the next neighborhood!","0","","","","","","","","","","","",""
"street view slide show","image-button-response","7","25173","0.0-7.0","","656776a7904ae00d6b91d1dd","6568ad1ef4db36474a5c1bf9","4","","","","","","","","","","","","null","stimulus/SV_PolicingMSA/CO_572/IMG_3_572.jpg","null","","","","","","5","","","","","",""
"street view slide show","image-button-response","8","26178","0.0-8.0","","656776a7904ae00d6b91d1dd","6568ad1ef4db36474a5c1bf9","4","","","","","","","","","","","","null","stimulus/SV_PolicingMSA/CO_572/IMG_8_572.jpg","null","","","","","","5","","","","","",""
"street view slide show","image-button-response","9","27188","0.0-9.0","","656776a7904ae00d6b91d1dd","6568ad1ef4db36474a5c1bf9","4","","","","","","","","","","","","null","stimulus/SV_PolicingMSA/CO_572/IMG_14_572.jpg","null","","","","","","5","","","","","",""
"street view slide show","image-button-response","10","28192","0.0-10.0","","656776a7904ae00d6b91d1dd","6568ad1ef4db36474a5c1bf9","4","","","","","","","","","","","","null","stimulus/SV_PolicingMSA/CO_572/IMG_4_572.jpg","null","","","","","","5","","","","","",""
"street view slide show","image-button-response","11","29202","0.0-11.0","","656776a7904ae00d6b91d1dd","6568ad1ef4db36474a5c1bf9","4","","","","","","","","","","","","null","stimulus/SV_PolicingMSA/CO_572/IMG_11_572.jpg","null","","","","","","5","","","","","",""
"street view slide show","image-button-response","12","30210","0.0-12.0","","656776a7904ae00d6b91d1dd","6568ad1ef4db36474a5c1bf9","4","","","","","","","","","","","","null","stimulus/SV_PolicingMSA/CO_572/IMG_5_572.jpg","null","","","","","","5","","","","","",""
"street view slide show","image-button-response","13","31219","0.0-13.0","","656776a7904ae00d6b91d1dd","6568ad1ef4db36474a5c1bf9","4","","","","","","","","","","","","null","stimulus/SV_PolicingMSA/CO_572/IMG_1_572.jpg","null","","","","","","5","","","","","",""
"street view slide show","image-button-response","14","32230","0.0-14.0","","656776a7904ae00d6b91d1dd","6568ad1ef4db36474a5c1bf9","4","","","","","","","","","","","","null","stimulus/SV_PolicingMSA/CO_572/IMG_2_572.jpg","null","","","","","","5","","","","","",""
"dot matrix survey1","survey","15","49268","0.0-15.0","","656776a7904ae00d6b91d1dd","6568ad1ef4db36474a5c1bf9","4","","","","","","","","","","","","16964","","{""P0_Q0"":null,""P0_Q1"":{""wealthy"":1,""safe"":4,""walkable"":4,""traditional"":4,""diverse"":3}}","","","","","","5","[]","","","","",""
"dot matrix survey2","survey","16","62917","0.0-16.0","","656776a7904ae00d6b91d1dd","6568ad1ef4db36474a5c1bf9","4","","","","","","","","","","","","13643","","{""P0_Q0"":null,""P0_Q1"":{""violence"":0,""crime"":0,""drug"":0,""schools"":3,""opportunities"":3}}","","","","","","5","[]","","","","",""
"dot matrix survey3","survey","17","76199","0.0-17.0","","656776a7904ae00d6b91d1dd","6568ad1ef4db36474a5c1bf9","4","","","","","","","","","","","","13267","","{""P0_Q0"":null,""P0_Q1"":{""movein"":4,""moveout"":0,""shopping"":4,""walk"":4,""park"":4,""school"":4}}","","","","","","5","[]","","","","",""
"sliderTrial","html-slider-response","18","87880","0.0-18.0","","656776a7904ae00d6b91d1dd","6568ad1ef4db36474a5c1bf9","4","","","","","","","","","","","","11679","[""SV_PolicingMSA/CO_572/IMG_3_572.jpg"",""SV_PolicingMSA/CO_572/IMG_8_572.jpg"",""SV_PolicingMSA/CO_572/IMG_14_572.jpg"",""SV_PolicingMSA/CO_572/IMG_4_572.jpg"",""SV_PolicingMSA/CO_572/IMG_11_572.jpg"",""SV_PolicingMSA/CO_572/IMG_5_572.jpg"",""SV_PolicingMSA/CO_572/IMG_1_572.jpg"",""SV_PolicingMSA/CO_572/IMG_2_572.jpg""]","4","","","","","","5","","4","[""./rc_img/cop_condGroup_19_SafeStreets_autoscaled.png"",""./rc_img/cop_condGroup_19_CommunitySafety_autoscaled.png""]","4","",""
"sliderTrial","html-slider-response","19","94334","0.0-19.0","","656776a7904ae00d6b91d1dd","6568ad1ef4db36474a5c1bf9","4","","","","","","","","","","","","6452","[""SV_PolicingMSA/CO_572/IMG_3_572.jpg"",""SV_PolicingMSA/CO_572/IMG_8_572.jpg"",""SV_PolicingMSA/CO_572/IMG_14_572.jpg"",""SV_PolicingMSA/CO_572/IMG_4_572.jpg"",""SV_PolicingMSA/CO_572/IMG_11_572.jpg"",""SV_PolicingMSA/CO_572/IMG_5_572.jpg"",""SV_PolicingMSA/CO_572/IMG_1_572.jpg"",""SV_PolicingMSA/CO_572/IMG_2_572.jpg""]","4","","","","","","5","","4","[""./rc_img/cop_condGroup_9_SafeStreets_autoscaled.png"",""./rc_img/cop_condGroup_9_CommunitySafety_autoscaled.png""]","4","",""
"sliderTrial","html-slider-response","20","97630","0.0-20.0","","656776a7904ae00d6b91d1dd","6568ad1ef4db36474a5c1bf9","4","","","","","","","","","","","","3295","[""SV_PolicingMSA/CO_572/IMG_3_572.jpg"",""SV_PolicingMSA/CO_572/IMG_8_572.jpg"",""SV_PolicingMSA/CO_572/IMG_14_572.jpg"",""SV_PolicingMSA/CO_572/IMG_4_572.jpg"",""SV_PolicingMSA/CO_572/IMG_11_572.jpg"",""SV_PolicingMSA/CO_572/IMG_5_572.jpg"",""SV_PolicingMSA/CO_572/IMG_1_572.jpg"",""SV_PolicingMSA/CO_572/IMG_2_572.jpg""]","4","","","","","","5","","4","[""./rc_img/cop_condGroup_8_SafeStreets_autoscaled.png"",""./rc_img/cop_condGroup_8_CommunitySafety_autoscaled.png""]","4","",""
"sliderTrial","html-slider-response","21","100944","0.0-21.0","","656776a7904ae00d6b91d1dd","6568ad1ef4db36474a5c1bf9","4","","","","","","","","","","","","3312","[""SV_PolicingMSA/CO_572/IMG_3_572.jpg"",""SV_PolicingMSA/CO_572/IMG_8_572.jpg"",""SV_PolicingMSA/CO_572/IMG_14_572.jpg"",""SV_PolicingMSA/CO_572/IMG_4_572.jpg"",""SV_PolicingMSA/CO_572/IMG_11_572.jpg"",""SV_PolicingMSA/CO_572/IMG_5_572.jpg"",""SV_PolicingMSA/CO_572/IMG_1_572.jpg"",""SV_PolicingMSA/CO_572/IMG_2_572.jpg""]","4","","","","","","5","","4","[""./rc_img/cop_condGroup_14_CommunitySafety_autoscaled.png"",""./rc_img/cop_condGroup_14_SafeStreets_autoscaled.png""]","4","",""
"sliderTrial","html-slider-response","22","105996","0.0-22.0","","656776a7904ae00d6b91d1dd","6568ad1ef4db36474a5c1bf9","4","","","","","","","","","","","","5050","[""SV_PolicingMSA/CO_572/IMG_3_572.jpg"",""SV_PolicingMSA/CO_572/IMG_8_572.jpg"",""SV_PolicingMSA/CO_572/IMG_14_572.jpg"",""SV_PolicingMSA/CO_572/IMG_4_572.jpg"",""SV_PolicingMSA/CO_572/IMG_11_572.jpg"",""SV_PolicingMSA/CO_572/IMG_5_572.jpg"",""SV_PolicingMSA/CO_572/IMG_1_572.jpg"",""SV_PolicingMSA/CO_572/IMG_2_572.jpg""]","4","","","","","","5","","4","[""./rc_img/cop_condGroup_7_SafeStreets_autoscaled.png"",""./rc_img/cop_condGroup_7_CommunitySafety_autoscaled.png""]","4","",""
"before_SVSlide_prompt","html-button-response","23","107751","0.0-23.0","","656776a7904ae00d6b91d1dd","6568ad1ef4db36474a5c1bf9","4","","","","","","","","","","","","1754","Click [Next] to see the next neighborhood!","0","","","","","","","","","","","",""
"street view slide show","image-button-response","24","108754","0.0-24.0","","656776a7904ae00d6b91d1dd","6568ad1ef4db36474a5c1bf9","4","","","","","","","","","","","","null","stimulus/SV_PolicingMSA/CO_1325/IMG_13_1325.jpg","null","","","","","","3","","","","","",""
"street view slide show","image-button-response","25","109771","0.0-25.0","","656776a7904ae00d6b91d1dd","6568ad1ef4db36474a5c1bf9","4","","","","","","","","","","","","null","stimulus/SV_PolicingMSA/CO_1325/IMG_5_1325.jpg","null","","","","","","3","","","","","",""
"street view slide show","image-button-response","26","110790","0.0-26.0","","656776a7904ae00d6b91d1dd","6568ad1ef4db36474a5c1bf9","4","","","","","","","","","","","","null","stimulus/SV_PolicingMSA/CO_1325/IMG_3_1325.jpg","null","","","","","","3","","","","","",""
"street view slide show","image-button-response","27","111806","0.0-27.0","","656776a7904ae00d6b91d1dd","6568ad1ef4db36474a5c1bf9","4","","","","","","","","","","","","null","stimulus/SV_PolicingMSA/CO_1325/IMG_9_1325.jpg","null","","","","","","3","","","","","",""
"street view slide show","image-button-response","28","112819","0.0-28.0","","656776a7904ae00d6b91d1dd","6568ad1ef4db36474a5c1bf9","4","","","","","","","","","","","","null","stimulus/SV_PolicingMSA/CO_1325/IMG_14_1325.jpg","null","","","","","","3","","","","","",""
"street view slide show","image-button-response","29","113825","0.0-29.0","","656776a7904ae00d6b91d1dd","6568ad1ef4db36474a5c1bf9","4","","","","","","","","","","","","null","stimulus/SV_PolicingMSA/CO_1325/IMG_11_1325.jpg","null","","","","","","3","","","","","",""
"street view slide show","image-button-response","30","114836","0.0-30.0","","656776a7904ae00d6b91d1dd","6568ad1ef4db36474a5c1bf9","4","","","","","","","","","","","","null","stimulus/SV_PolicingMSA/CO_1325/IMG_1_1325.jpg","null","","","","","","3","","","","","",""
"street view slide show","image-button-response","31","115843","0.0-31.0","","656776a7904ae00d6b91d1dd","6568ad1ef4db36474a5c1bf9","4","","","","","","","","","","","","null","stimulus/SV_PolicingMSA/CO_1325/IMG_8_1325.jpg","null","","","","","","3","","","","","",""
"dot matrix survey1","survey","32","130859","0.0-32.0","","656776a7904ae00d6b91d1dd","6568ad1ef4db36474a5c1bf9","4","","","","","","","","","","","","15003","","{""P0_Q0"":null,""P0_Q1"":{""wealthy"":2,""safe"":4,""walkable"":1,""traditional"":4,""diverse"":3}}","","","","","","3","[]","","","","",""
"dot matrix survey2","survey","33","141382","0.0-33.0","","656776a7904ae00d6b91d1dd","6568ad1ef4db36474a5c1bf9","4","","","","","","","","","","","","10504","","{""P0_Q0"":null,""P0_Q1"":{""violence"":0,""crime"":0,""drug"":0,""schools"":4,""opportunities"":4}}","","","","","","3","[]","","","","",""
"dot matrix survey3","survey","34","155030","0.0-34.0","","656776a7904ae00d6b91d1dd","6568ad1ef4db36474a5c1bf9","4","","","","","","","","","","","","13644","","{""P0_Q0"":null,""P0_Q1"":{""movein"":3,""moveout"":0,""shopping"":4,""walk"":4,""park"":4,""school"":4}}","","","","","","3","[]","","","","",""
"sliderTrial","html-slider-response","35","158074","0.0-35.0","","656776a7904ae00d6b91d1dd","6568ad1ef4db36474a5c1bf9","4","","","","","","","","","","","","3042","[""SV_PolicingMSA/CO_1325/IMG_13_1325.jpg"",""SV_PolicingMSA/CO_1325/IMG_5_1325.jpg"",""SV_PolicingMSA/CO_1325/IMG_3_1325.jpg"",""SV_PolicingMSA/CO_1325/IMG_9_1325.jpg"",""SV_PolicingMSA/CO_1325/IMG_14_1325.jpg"",""SV_PolicingMSA/CO_1325/IMG_11_1325.jpg"",""SV_PolicingMSA/CO_1325/IMG_1_1325.jpg"",""SV_PolicingMSA/CO_1325/IMG_8_1325.jpg""]","4","","","","","","3","","4","[""./rc_img/cop_condGroup_17_CommunitySafety_autoscaled.png"",""./rc_img/cop_condGroup_17_SafeStreets_autoscaled.png""]","4","",""
"sliderTrial","html-slider-response","36","160874","0.0-36.0","","656776a7904ae00d6b91d1dd","6568ad1ef4db36474a5c1bf9","4","","","","","","","","","","","","2798","[""SV_PolicingMSA/CO_1325/IMG_13_1325.jpg"",""SV_PolicingMSA/CO_1325/IMG_5_1325.jpg"",""SV_PolicingMSA/CO_1325/IMG_3_1325.jpg"",""SV_PolicingMSA/CO_1325/IMG_9_1325.jpg"",""SV_PolicingMSA/CO_1325/IMG_14_1325.jpg"",""SV_PolicingMSA/CO_1325/IMG_11_1325.jpg"",""SV_PolicingMSA/CO_1325/IMG_1_1325.jpg"",""SV_PolicingMSA/CO_1325/IMG_8_1325.jpg""]","4","","","","","","3","","4","[""./rc_img/cop_condGroup_18_CommunitySafety_autoscaled.png"",""./rc_img/cop_condGroup_18_SafeStreets_autoscaled.png""]","4","",""
"sliderTrial","html-slider-response","37","163821","0.0-37.0","","656776a7904ae00d6b91d1dd","6568ad1ef4db36474a5c1bf9","4","","","","","","","","","","","","2944","[""SV_PolicingMSA/CO_1325/IMG_13_1325.jpg"",""SV_PolicingMSA/CO_1325/IMG_5_1325.jpg"",""SV_PolicingMSA/CO_1325/IMG_3_1325.jpg"",""SV_PolicingMSA/CO_1325/IMG_9_1325.jpg"",""SV_PolicingMSA/CO_1325/IMG_14_1325.jpg"",""SV_PolicingMSA/CO_1325/IMG_11_1325.jpg"",""SV_PolicingMSA/CO_1325/IMG_1_1325.jpg"",""SV_PolicingMSA/CO_1325/IMG_8_1325.jpg""]","4","","","","","","3","","4","[""./rc_img/cop_condGroup_10_CommunitySafety_autoscaled.png"",""./rc_img/cop_condGroup_10_SafeStreets_autoscaled.png""]","4","",""
"sliderTrial","html-slider-response","38","167025","0.0-38.0","","656776a7904ae00d6b91d1dd","6568ad1ef4db36474a5c1bf9","4","","","","","","","","","","","","3203","[""SV_PolicingMSA/CO_1325/IMG_13_1325.jpg"",""SV_PolicingMSA/CO_1325/IMG_5_1325.jpg"",""SV_PolicingMSA/CO_1325/IMG_3_1325.jpg"",""SV_PolicingMSA/CO_1325/IMG_9_1325.jpg"",""SV_PolicingMSA/CO_1325/IMG_14_1325.jpg"",""SV_PolicingMSA/CO_1325/IMG_11_1325.jpg"",""SV_PolicingMSA/CO_1325/IMG_1_1325.jpg"",""SV_PolicingMSA/CO_1325/IMG_8_1325.jpg""]","4","","","","","","3","","4","[""./rc_img/cop_condGroup_2_CommunitySafety_autoscaled.png"",""./rc_img/cop_condGroup_2_SafeStreets_autoscaled.png""]","4","",""
"sliderTrial","html-slider-response","39","171455","0.0-39.0","","656776a7904ae00d6b91d1dd","6568ad1ef4db36474a5c1bf9","4","","","","","","","","","","","","4426","[""SV_PolicingMSA/CO_1325/IMG_13_1325.jpg"",""SV_PolicingMSA/CO_1325/IMG_5_1325.jpg"",""SV_PolicingMSA/CO_1325/IMG_3_1325.jpg"",""SV_PolicingMSA/CO_1325/IMG_9_1325.jpg"",""SV_PolicingMSA/CO_1325/IMG_14_1325.jpg"",""SV_PolicingMSA/CO_1325/IMG_11_1325.jpg"",""SV_PolicingMSA/CO_1325/IMG_1_1325.jpg"",""SV_PolicingMSA/CO_1325/IMG_8_1325.jpg""]","4","","","","","","3","","4","[""./rc_img/cop_condGroup_1_SafeStreets_autoscaled.png"",""./rc_img/cop_condGroup_1_CommunitySafety_autoscaled.png""]","4","",""
"before_SVSlide_prompt","html-button-response","40","172559","0.0-40.0","","656776a7904ae00d6b91d1dd","6568ad1ef4db36474a5c1bf9","4","","","","","","","","","","","","1103","Click [Next] to see the next neighborhood!","0","","","","","","","","","","","",""
"street view slide show","image-button-response","41","173574","0.0-41.0","","656776a7904ae00d6b91d1dd","6568ad1ef4db36474a5c1bf9","4","","","","","","","","","","","","null","stimulus/SV_PolicingMSA/CO_252/IMG_14_252.jpg","null","","","","","","0","","","","","",""
"street view slide show","image-button-response","42","174584","0.0-42.0","","656776a7904ae00d6b91d1dd","6568ad1ef4db36474a5c1bf9","4","","","","","","","","","","","","null","stimulus/SV_PolicingMSA/CO_252/IMG_3_252.jpg","null","","","","","","0","","","","","",""
"street view slide show","image-button-response","43","175598","0.0-43.0","","656776a7904ae00d6b91d1dd","6568ad1ef4db36474a5c1bf9","4","","","","","","","","","","","","null","stimulus/SV_PolicingMSA/CO_252/IMG_11_252.jpg","null","","","","","","0","","","","","",""
"street view slide show","image-button-response","44","176613","0.0-44.0","","656776a7904ae00d6b91d1dd","6568ad1ef4db36474a5c1bf9","4","","","","","","","","","","","","null","stimulus/SV_PolicingMSA/CO_252/IMG_6_252.jpg","null","","","","","","0","","","","","",""
"street view slide show","image-button-response","45","177616","0.0-45.0","","656776a7904ae00d6b91d1dd","6568ad1ef4db36474a5c1bf9","4","","","","","","","","","","","","null","stimulus/SV_PolicingMSA/CO_252/IMG_0_252.jpg","null","","","","","","0","","","","","",""
"street view slide show","image-button-response","46","178628","0.0-46.0","","656776a7904ae00d6b91d1dd","6568ad1ef4db36474a5c1bf9","4","","","","","","","","","","","","null","stimulus/SV_PolicingMSA/CO_252/IMG_8_252.jpg","null","","","","","","0","","","","","",""
"street view slide show","image-button-response","47","179632","0.0-47.0","","656776a7904ae00d6b91d1dd","6568ad1ef4db36474a5c1bf9","4","","","","","","","","","","","","null","stimulus/SV_PolicingMSA/CO_252/IMG_7_252.jpg","null","","","","","","0","","","","","",""
"street view slide show","image-button-response","48","180647","0.0-48.0","","656776a7904ae00d6b91d1dd","6568ad1ef4db36474a5c1bf9","4","","","","","","","","","","","","null","stimulus/SV_PolicingMSA/CO_252/IMG_12_252.jpg","null","","","","","","0","","","","","",""
"dot matrix survey1","survey","49","196903","0.0-49.0","","656776a7904ae00d6b91d1dd","6568ad1ef4db36474a5c1bf9","4","","","","","","","","","","","","16240","","{""P0_Q0"":null,""P0_Q1"":{""wealthy"":0,""safe"":2,""walkable"":3,""diverse"":4,""traditional"":4}}","","","","","","0","[]","","","","",""
"dot matrix survey2","survey","50","207588","0.0-50.0","","656776a7904ae00d6b91d1dd","6568ad1ef4db36474a5c1bf9","4","","","","","","","","","","","","10671","","{""P0_Q0"":null,""P0_Q1"":{""violence"":2,""crime"":2,""drug"":2,""schools"":1,""opportunities"":1}}","","","","","","0","[]","","","","",""
"dot matrix survey3","survey","51","226562","0.0-51.0","","656776a7904ae00d6b91d1dd","6568ad1ef4db36474a5c1bf9","4","","","","","","","","","","","","18970","","{""P0_Q0"":null,""P0_Q1"":{""movein"":1,""moveout"":4,""shopping"":1,""walk"":0,""park"":2,""school"":1}}","","","","","","0","[]","","","","",""
"sliderTrial","html-slider-response","52","229151","0.0-52.0","","656776a7904ae00d6b91d1dd","6568ad1ef4db36474a5c1bf9","4","","","","","","","","","","","","2588","[""SV_PolicingMSA/CO_252/IMG_14_252.jpg"",""SV_PolicingMSA/CO_252/IMG_3_252.jpg"",""SV_PolicingMSA/CO_252/IMG_11_252.jpg"",""SV_PolicingMSA/CO_252/IMG_6_252.jpg"",""SV_PolicingMSA/CO_252/IMG_0_252.jpg"",""SV_PolicingMSA/CO_252/IMG_8_252.jpg"",""SV_PolicingMSA/CO_252/IMG_7_252.jpg"",""SV_PolicingMSA/CO_252/IMG_12_252.jpg""]","4","","","","","","0","","4","[""./rc_img/cop_condGroup_6_SafeStreets_autoscaled.png"",""./rc_img/cop_condGroup_6_CommunitySafety_autoscaled.png""]","4","",""
"sliderTrial","html-slider-response","53","231603","0.0-53.0","","656776a7904ae00d6b91d1dd","6568ad1ef4db36474a5c1bf9","4","","","","","","","","","","","","2451","[""SV_PolicingMSA/CO_252/IMG_14_252.jpg"",""SV_PolicingMSA/CO_252/IMG_3_252.jpg"",""SV_PolicingMSA/CO_252/IMG_11_252.jpg"",""SV_PolicingMSA/CO_252/IMG_6_252.jpg"",""SV_PolicingMSA/CO_252/IMG_0_252.jpg"",""SV_PolicingMSA/CO_252/IMG_8_252.jpg"",""SV_PolicingMSA/CO_252/IMG_7_252.jpg"",""SV_PolicingMSA/CO_252/IMG_12_252.jpg""]","4","","","","","","0","","4","[""./rc_img/cop_condGroup_20_CommunitySafety_autoscaled.png"",""./rc_img/cop_condGroup_20_SafeStreets_autoscaled.png""]","4","",""
"sliderTrial_attention","html-slider-response","54","241616","0.0-54.0","","656776a7904ae00d6b91d1dd","6568ad1ef4db36474a5c1bf9","4","","","","","","","","","","","","null","[""SV_PolicingMSA/CO_252/IMG_14_252.jpg"",""SV_PolicingMSA/CO_252/IMG_3_252.jpg"",""SV_PolicingMSA/CO_252/IMG_11_252.jpg"",""SV_PolicingMSA/CO_252/IMG_6_252.jpg"",""SV_PolicingMSA/CO_252/IMG_0_252.jpg"",""SV_PolicingMSA/CO_252/IMG_8_252.jpg"",""SV_PolicingMSA/CO_252/IMG_7_252.jpg"",""SV_PolicingMSA/CO_252/IMG_12_252.jpg""]","null","","","","","","0","","4","[""./assets/img/attnchk.png"",""./assets/img/attnchk.png""]","","true",""
"sliderTrial","html-slider-response","55","246145","0.0-55.0","","656776a7904ae00d6b91d1dd","6568ad1ef4db36474a5c1bf9","4","","","","","","","","","","","","4525","[""SV_PolicingMSA/CO_252/IMG_14_252.jpg"",""SV_PolicingMSA/CO_252/IMG_3_252.jpg"",""SV_PolicingMSA/CO_252/IMG_11_252.jpg"",""SV_PolicingMSA/CO_252/IMG_6_252.jpg"",""SV_PolicingMSA/CO_252/IMG_0_252.jpg"",""SV_PolicingMSA/CO_252/IMG_8_252.jpg"",""SV_PolicingMSA/CO_252/IMG_7_252.jpg"",""SV_PolicingMSA/CO_252/IMG_12_252.jpg""]","4","","","","","","0","","4","[""./rc_img/cop_condGroup_4_CommunitySafety_autoscaled.png"",""./rc_img/cop_condGroup_4_SafeStreets_autoscaled.png""]","4","",""
"sliderTrial","html-slider-response","56","249394","0.0-56.0","","656776a7904ae00d6b91d1dd","6568ad1ef4db36474a5c1bf9","4","","","","","","","","","","","","3246","[""SV_PolicingMSA/CO_252/IMG_14_252.jpg"",""SV_PolicingMSA/CO_252/IMG_3_252.jpg"",""SV_PolicingMSA/CO_252/IMG_11_252.jpg"",""SV_PolicingMSA/CO_252/IMG_6_252.jpg"",""SV_PolicingMSA/CO_252/IMG_0_252.jpg"",""SV_PolicingMSA/CO_252/IMG_8_252.jpg"",""SV_PolicingMSA/CO_252/IMG_7_252.jpg"",""SV_PolicingMSA/CO_252/IMG_12_252.jpg""]","4","","","","","","0","","4","[""./rc_img/cop_condGroup_15_SafeStreets_autoscaled.png"",""./rc_img/cop_condGroup_15_CommunitySafety_autoscaled.png""]","4","",""
"sliderTrial","html-slider-response","57","252381","0.0-57.0","","656776a7904ae00d6b91d1dd","6568ad1ef4db36474a5c1bf9","4","","","","","","","","","","","","2986","[""SV_PolicingMSA/CO_252/IMG_14_252.jpg"",""SV_PolicingMSA/CO_252/IMG_3_252.jpg"",""SV_PolicingMSA/CO_252/IMG_11_252.jpg"",""SV_PolicingMSA/CO_252/IMG_6_252.jpg"",""SV_PolicingMSA/CO_252/IMG_0_252.jpg"",""SV_PolicingMSA/CO_252/IMG_8_252.jpg"",""SV_PolicingMSA/CO_252/IMG_7_252.jpg"",""SV_PolicingMSA/CO_252/IMG_12_252.jpg""]","4","","","","","","0","","4","[""./rc_img/cop_condGroup_16_CommunitySafety_autoscaled.png"",""./rc_img/cop_condGroup_16_SafeStreets_autoscaled.png""]","4","",""
"before_SVSlide_prompt","html-button-response","58","253711","0.0-58.0","","656776a7904ae00d6b91d1dd","6568ad1ef4db36474a5c1bf9","4","","","","","","","","","","","","1328","Click [Next] to see the next neighborhood!","0","","","","","","","","","","","",""
"street view slide show","image-button-response","59","254720","0.0-59.0","","656776a7904ae00d6b91d1dd","6568ad1ef4db36474a5c1bf9","4","","","","","","","","","","","","null","stimulus/SV_PolicingMSA/CO_368/IMG_4_368.jpg","null","","","","","","1","","","","","",""
"street view slide show","image-button-response","60","255731","0.0-60.0","","656776a7904ae00d6b91d1dd","6568ad1ef4db36474a5c1bf9","4","","","","","","","","","","","","null","stimulus/SV_PolicingMSA/CO_368/IMG_7_368.jpg","null","","","","","","1","","","","","",""
"street view slide show","image-button-response","61","256744","0.0-61.0","","656776a7904ae00d6b91d1dd","6568ad1ef4db36474a5c1bf9","4","","","","","","","","","","","","null","stimulus/SV_PolicingMSA/CO_368/IMG_6_368.jpg","null","","","","","","1","","","","","",""
"street view slide show","image-button-response","62","257760","0.0-62.0","","656776a7904ae00d6b91d1dd","6568ad1ef4db36474a5c1bf9","4","","","","","","","","","","","","null","stimulus/SV_PolicingMSA/CO_368/IMG_1_368.jpg","null","","","","","","1","","","","","",""
"street view slide show","image-button-response","63","258771","0.0-63.0","","656776a7904ae00d6b91d1dd","6568ad1ef4db36474a5c1bf9","4","","","","","","","","","","","","null","stimulus/SV_PolicingMSA/CO_368/IMG_10_368.jpg","null","","","","","","1","","","","","",""
"street view slide show","image-button-response","64","259779","0.0-64.0","","656776a7904ae00d6b91d1dd","6568ad1ef4db36474a5c1bf9","4","","","","","","","","","","","","null","stimulus/SV_PolicingMSA/CO_368/IMG_9_368.jpg","null","","","","","","1","","","","","",""
"street view slide show","image-button-response","65","260792","0.0-65.0","","656776a7904ae00d6b91d1dd","6568ad1ef4db36474a5c1bf9","4","","","","","","","","","","","","null","stimulus/SV_PolicingMSA/CO_368/IMG_2_368.jpg","null","","","","","","1","","","","","",""
"street view slide show","image-button-response","66","261804","0.0-66.0","","656776a7904ae00d6b91d1dd","6568ad1ef4db36474a5c1bf9","4","","","","","","","","","","","","null","stimulus/SV_PolicingMSA/CO_368/IMG_11_368.jpg","null","","","","","","1","","","","","",""
"dot matrix survey1","survey","67","272193","0.0-67.0","","656776a7904ae00d6b91d1dd","6568ad1ef4db36474a5c1bf9","4","","","","","","","","","","","","10372","","{""P0_Q0"":null,""P0_Q1"":{""wealthy"":0,""safe"":1,""walkable"":2,""traditional"":3,""diverse"":4}}","","","","","","1","[]","","","","",""
"dot matrix survey2","survey","68","278982","0.0-68.0","","656776a7904ae00d6b91d1dd","6568ad1ef4db36474a5c1bf9","4","","","","","","","","","","","","6786","","{""P0_Q0"":null,""P0_Q1"":{""violence"":3,""crime"":3,""drug"":3,""schools"":0,""opportunities"":0}}","","","","","","1","[]","","","","",""
"dot matrix survey3","survey","69","291170","0.0-69.0","","656776a7904ae00d6b91d1dd","6568ad1ef4db36474a5c1bf9","4","","","","","","","","","","","","12184","","{""P0_Q0"":null,""P0_Q1"":{""movein"":0,""moveout"":4,""shopping"":1,""walk"":1,""park"":1,""school"":0}}","","","","","","1","[]","","","","",""
"sliderTrial","html-slider-response","70","294679","0.0-70.0","","656776a7904ae00d6b91d1dd","6568ad1ef4db36474a5c1bf9","4","","","","","","","","","","","","3508","[""SV_PolicingMSA/CO_368/IMG_4_368.jpg"",""SV_PolicingMSA/CO_368/IMG_7_368.jpg"",""SV_PolicingMSA/CO_368/IMG_6_368.jpg"",""SV_PolicingMSA/CO_368/IMG_1_368.jpg"",""SV_PolicingMSA/CO_368/IMG_10_368.jpg"",""SV_PolicingMSA/CO_368/IMG_9_368.jpg"",""SV_PolicingMSA/CO_368/IMG_2_368.jpg"",""SV_PolicingMSA/CO_368/IMG_11_368.jpg""]","4","","","","","","1","","4","[""./rc_img/cop_condGroup_17_CommunitySafety_autoscaled.png"",""./rc_img/cop_condGroup_17_SafeStreets_autoscaled.png""]","4","",""
"sliderTrial","html-slider-response","71","297240","0.0-71.0","","656776a7904ae00d6b91d1dd","6568ad1ef4db36474a5c1bf9","4","","","","","","","","","","","","2558","[""SV_PolicingMSA/CO_368/IMG_4_368.jpg"",""SV_PolicingMSA/CO_368/IMG_7_368.jpg"",""SV_PolicingMSA/CO_368/IMG_6_368.jpg"",""SV_PolicingMSA/CO_368/IMG_1_368.jpg"",""SV_PolicingMSA/CO_368/IMG_10_368.jpg"",""SV_PolicingMSA/CO_368/IMG_9_368.jpg"",""SV_PolicingMSA/CO_368/IMG_2_368.jpg"",""SV_PolicingMSA/CO_368/IMG_11_368.jpg""]","4","","","","","","1","","4","[""./rc_img/cop_condGroup_18_CommunitySafety_autoscaled.png"",""./rc_img/cop_condGroup_18_SafeStreets_autoscaled.png""]","4","",""
"sliderTrial","html-slider-response","72","299958","0.0-72.0","","656776a7904ae00d6b91d1dd","6568ad1ef4db36474a5c1bf9","4","","","","","","","","","","","","2717","[""SV_PolicingMSA/CO_368/IMG_4_368.jpg"",""SV_PolicingMSA/CO_368/IMG_7_368.jpg"",""SV_PolicingMSA/CO_368/IMG_6_368.jpg"",""SV_PolicingMSA/CO_368/IMG_1_368.jpg"",""SV_PolicingMSA/CO_368/IMG_10_368.jpg"",""SV_PolicingMSA/CO_368/IMG_9_368.jpg"",""SV_PolicingMSA/CO_368/IMG_2_368.jpg"",""SV_PolicingMSA/CO_368/IMG_11_368.jpg""]","4","","","","","","1","","4","[""./rc_img/cop_condGroup_10_CommunitySafety_autoscaled.png"",""./rc_img/cop_condGroup_10_SafeStreets_autoscaled.png""]","4","",""
"sliderTrial_attention","html-slider-response","73","309961","0.0-73.0","","656776a7904ae00d6b91d1dd","6568ad1ef4db36474a5c1bf9","4","","","","","","","","","","","","null","[""SV_PolicingMSA/CO_368/IMG_4_368.jpg"",""SV_PolicingMSA/CO_368/IMG_7_368.jpg"",""SV_PolicingMSA/CO_368/IMG_6_368.jpg"",""SV_PolicingMSA/CO_368/IMG_1_368.jpg"",""SV_PolicingMSA/CO_368/IMG_10_368.jpg"",""SV_PolicingMSA/CO_368/IMG_9_368.jpg"",""SV_PolicingMSA/CO_368/IMG_2_368.jpg"",""SV_PolicingMSA/CO_368/IMG_11_368.jpg""]","null","","","","","","1","","4","[""./assets/img/attnchk.png"",""./assets/img/attnchk.png""]","","true",""
"sliderTrial","html-slider-response","74","313376","0.0-74.0","","656776a7904ae00d6b91d1dd","6568ad1ef4db36474a5c1bf9","4","","","","","","","","","","","","3411","[""SV_PolicingMSA/CO_368/IMG_4_368.jpg"",""SV_PolicingMSA/CO_368/IMG_7_368.jpg"",""SV_PolicingMSA/CO_368/IMG_6_368.jpg"",""SV_PolicingMSA/CO_368/IMG_1_368.jpg"",""SV_PolicingMSA/CO_368/IMG_10_368.jpg"",""SV_PolicingMSA/CO_368/IMG_9_368.jpg"",""SV_PolicingMSA/CO_368/IMG_2_368.jpg"",""SV_PolicingMSA/CO_368/IMG_11_368.jpg""]","4","","","","","","1","","4","[""./rc_img/cop_condGroup_2_CommunitySafety_autoscaled.png"",""./rc_img/cop_condGroup_2_SafeStreets_autoscaled.png""]","4","",""
"sliderTrial","html-slider-response","75","316426","0.0-75.0","","656776a7904ae00d6b91d1dd","6568ad1ef4db36474a5c1bf9","4","","","","","","","","","","","","3048","[""SV_PolicingMSA/CO_368/IMG_4_368.jpg"",""SV_PolicingMSA/CO_368/IMG_7_368.jpg"",""SV_PolicingMSA/CO_368/IMG_6_368.jpg"",""SV_PolicingMSA/CO_368/IMG_1_368.jpg"",""SV_PolicingMSA/CO_368/IMG_10_368.jpg"",""SV_PolicingMSA/CO_368/IMG_9_368.jpg"",""SV_PolicingMSA/CO_368/IMG_2_368.jpg"",""SV_PolicingMSA/CO_368/IMG_11_368.jpg""]","4","","","","","","1","","4","[""./rc_img/cop_condGroup_1_SafeStreets_autoscaled.png"",""./rc_img/cop_condGroup_1_CommunitySafety_autoscaled.png""]","4","",""
"half-way","html-button-response","76","326684","0.0-76.0","","656776a7904ae00d6b91d1dd","6568ad1ef4db36474a5c1bf9","4","","","","","","","","","","","","10254","
    <h3>You are now half way through the study.</h3>
    <p>Please take a quick, 15-second break before you continue.</p>
    <img src='assets/img/countdown-15.gif'>
    <p>The study will automatically advance forward after the countdown is complete. <br> However, you may click ""Next"" to advance forward now if you wish.</p>
    ","0","","","","","","","","","","","",""
"before_SVSlide_prompt","html-button-response","77","327908","0.0-77.0","","656776a7904ae00d6b91d1dd","6568ad1ef4db36474a5c1bf9","4","","","","","","","","","","","","1222","Click [Next] to see the next neighborhood!","0","","","","","","","","","","","",""
"street view slide show","image-button-response","78","328922","0.0-78.0","","656776a7904ae00d6b91d1dd","6568ad1ef4db36474a5c1bf9","4","","","","","","","","","","","","null","stimulus/SV_PolicingMSA/CO_674/IMG_8_674.jpg","null","","","","","","4","","","","","",""
"street view slide show","image-button-response","79","329938","0.0-79.0","","656776a7904ae00d6b91d1dd","6568ad1ef4db36474a5c1bf9","4","","","","","","","","","","","","null","stimulus/SV_PolicingMSA/CO_674/IMG_4_674.jpg","null","","","","","","4","","","","","",""
"street view slide show","image-button-response","80","330940","0.0-80.0","","656776a7904ae00d6b91d1dd","6568ad1ef4db36474a5c1bf9","4","","","","","","","","","","","","null","stimulus/SV_PolicingMSA/CO_674/IMG_13_674.jpg","null","","","","","","4","","","","","",""
"street view slide show","image-button-response","81","331948","0.0-81.0","","656776a7904ae00d6b91d1dd","6568ad1ef4db36474a5c1bf9","4","","","","","","","","","","","","null","stimulus/SV_PolicingMSA/CO_674/IMG_7_674.jpg","null","","","","","","4","","","","","",""
"street view slide show","image-button-response","82","332960","0.0-82.0","","656776a7904ae00d6b91d1dd","6568ad1ef4db36474a5c1bf9","4","","","","","","","","","","","","null","stimulus/SV_PolicingMSA/CO_674/IMG_0_674.jpg","null","","","","","","4","","","","","",""
"street view slide show","image-button-response","83","333976","0.0-83.0","","656776a7904ae00d6b91d1dd","6568ad1ef4db36474a5c1bf9","4","","","","","","","","","","","","null","stimulus/SV_PolicingMSA/CO_674/IMG_2_674.jpg","null","","","","","","4","","","","","",""
"street view slide show","image-button-response","84","334992","0.0-84.0","","656776a7904ae00d6b91d1dd","6568ad1ef4db36474a5c1bf9","4","","","","","","","","","","","","null","stimulus/SV_PolicingMSA/CO_674/IMG_10_674.jpg","null","","","","","","4","","","","","",""
"street view slide show","image-button-response","85","336003","0.0-85.0","","656776a7904ae00d6b91d1dd","6568ad1ef4db36474a5c1bf9","4","","","","","","","","","","","","null","stimulus/SV_PolicingMSA/CO_674/IMG_14_674.jpg","null","","","","","","4","","","","","",""
"dot matrix survey1","survey","86","352983","0.0-86.0","","656776a7904ae00d6b91d1dd","6568ad1ef4db36474a5c1bf9","4","","","","","","","","","","","","16972","","{""P0_Q0"":null,""P0_Q1"":{""wealthy"":1,""safe"":2,""walkable"":4,""traditional"":3,""diverse"":4}}","","","","","","4","[]","","","","",""
"dot matrix survey2","survey","87","366553","0.0-87.0","","656776a7904ae00d6b91d1dd","6568ad1ef4db36474a5c1bf9","4","","","","","","","","","","","","13558","","{""P0_Q0"":null,""P0_Q1"":{""violence"":3,""crime"":3,""drug"":3,""schools"":1,""opportunities"":1}}","","","","","","4","[]","","","","",""
"dot matrix survey3","survey","88","380024","0.0-88.0","","656776a7904ae00d6b91d1dd","6568ad1ef4db36474a5c1bf9","4","","","","","","","","","","","","13465","","{""P0_Q0"":null,""P0_Q1"":{""movein"":1,""moveout"":4,""shopping"":2,""walk"":1,""park"":1,""school"":0}}","","","","","","4","[]","","","","",""
"sliderTrial","html-slider-response","89","383385","0.0-89.0","","656776a7904ae00d6b91d1dd","6568ad1ef4db36474a5c1bf9","4","","","","","","","","","","","","3360","[""SV_PolicingMSA/CO_674/IMG_8_674.jpg"",""SV_PolicingMSA/CO_674/IMG_4_674.jpg"",""SV_PolicingMSA/CO_674/IMG_13_674.jpg"",""SV_PolicingMSA/CO_674/IMG_7_674.jpg"",""SV_PolicingMSA/CO_674/IMG_0_674.jpg"",""SV_PolicingMSA/CO_674/IMG_2_674.jpg"",""SV_PolicingMSA/CO_674/IMG_10_674.jpg"",""SV_PolicingMSA/CO_674/IMG_14_674.jpg""]","4","","","","","","4","","4","[""./rc_img/cop_condGroup_11_SafeStreets_autoscaled.png"",""./rc_img/cop_condGroup_11_CommunitySafety_autoscaled.png""]","4","",""
"sliderTrial","html-slider-response","90","386617","0.0-90.0","","656776a7904ae00d6b91d1dd","6568ad1ef4db36474a5c1bf9","4","","","","","","","","","","","","3231","[""SV_PolicingMSA/CO_674/IMG_8_674.jpg"",""SV_PolicingMSA/CO_674/IMG_4_674.jpg"",""SV_PolicingMSA/CO_674/IMG_13_674.jpg"",""SV_PolicingMSA/CO_674/IMG_7_674.jpg"",""SV_PolicingMSA/CO_674/IMG_0_674.jpg"",""SV_PolicingMSA/CO_674/IMG_2_674.jpg"",""SV_PolicingMSA/CO_674/IMG_10_674.jpg"",""SV_PolicingMSA/CO_674/IMG_14_674.jpg""]","4","","","","","","4","","4","[""./rc_img/cop_condGroup_12_SafeStreets_autoscaled.png"",""./rc_img/cop_condGroup_12_CommunitySafety_autoscaled.png""]","4","",""
"sliderTrial","html-slider-response","91","389990","0.0-91.0","","656776a7904ae00d6b91d1dd","6568ad1ef4db36474a5c1bf9","4","","","","","","","","","","","","3370","[""SV_PolicingMSA/CO_674/IMG_8_674.jpg"",""SV_PolicingMSA/CO_674/IMG_4_674.jpg"",""SV_PolicingMSA/CO_674/IMG_13_674.jpg"",""SV_PolicingMSA/CO_674/IMG_7_674.jpg"",""SV_PolicingMSA/CO_674/IMG_0_674.jpg"",""SV_PolicingMSA/CO_674/IMG_2_674.jpg"",""SV_PolicingMSA/CO_674/IMG_10_674.jpg"",""SV_PolicingMSA/CO_674/IMG_14_674.jpg""]","4","","","","","","4","","4","[""./rc_img/cop_condGroup_13_CommunitySafety_autoscaled.png"",""./rc_img/cop_condGroup_13_SafeStreets_autoscaled.png""]","4","",""
"sliderTrial","html-slider-response","92","393248","0.0-92.0","","656776a7904ae00d6b91d1dd","6568ad1ef4db36474a5c1bf9","4","","","","","","","","","","","","3256","[""SV_PolicingMSA/CO_674/IMG_8_674.jpg"",""SV_PolicingMSA/CO_674/IMG_4_674.jpg"",""SV_PolicingMSA/CO_674/IMG_13_674.jpg"",""SV_PolicingMSA/CO_674/IMG_7_674.jpg"",""SV_PolicingMSA/CO_674/IMG_0_674.jpg"",""SV_PolicingMSA/CO_674/IMG_2_674.jpg"",""SV_PolicingMSA/CO_674/IMG_10_674.jpg"",""SV_PolicingMSA/CO_674/IMG_14_674.jpg""]","4","","","","","","4","","4","[""./rc_img/cop_condGroup_5_SafeStreets_autoscaled.png"",""./rc_img/cop_condGroup_5_CommunitySafety_autoscaled.png""]","4","",""
"sliderTrial","html-slider-response","93","397168","0.0-93.0","","656776a7904ae00d6b91d1dd","6568ad1ef4db36474a5c1bf9","4","","","","","","","","","","","","3918","[""SV_PolicingMSA/CO_674/IMG_8_674.jpg"",""SV_PolicingMSA/CO_674/IMG_4_674.jpg"",""SV_PolicingMSA/CO_674/IMG_13_674.jpg"",""SV_PolicingMSA/CO_674/IMG_7_674.jpg"",""SV_PolicingMSA/CO_674/IMG_0_674.jpg"",""SV_PolicingMSA/CO_674/IMG_2_674.jpg"",""SV_PolicingMSA/CO_674/IMG_10_674.jpg"",""SV_PolicingMSA/CO_674/IMG_14_674.jpg""]","4","","","","","","4","","4","[""./rc_img/cop_condGroup_3_CommunitySafety_autoscaled.png"",""./rc_img/cop_condGroup_3_SafeStreets_autoscaled.png""]","4","",""
"before_SVSlide_prompt","html-button-response","94","398482","0.0-94.0","","656776a7904ae00d6b91d1dd","6568ad1ef4db36474a5c1bf9","4","","","","","","","","","","","","1313","Click [Next] to see the next neighborhood!","0","","","","","","","","","","","",""
"street view slide show","image-button-response","95","399496","0.0-95.0","","656776a7904ae00d6b91d1dd","6568ad1ef4db36474a5c1bf9","4","","","","","","","","","","","","null","stimulus/SV_PolicingMSA/CO_543/IMG_10_543.jpg","null","","","","","","2","","","","","",""
"street view slide show","image-button-response","96","400502","0.0-96.0","","656776a7904ae00d6b91d1dd","6568ad1ef4db36474a5c1bf9","4","","","","","","","","","","","","null","stimulus/SV_PolicingMSA/CO_543/IMG_6_543.jpg","null","","","","","","2","","","","","",""
"street view slide show","image-button-response","97","401520","0.0-97.0","","656776a7904ae00d6b91d1dd","6568ad1ef4db36474a5c1bf9","4","","","","","","","","","","","","null","stimulus/SV_PolicingMSA/CO_543/IMG_14_543.jpg","null","","","","","","2","","","","","",""
"street view slide show","image-button-response","98","402524","0.0-98.0","","656776a7904ae00d6b91d1dd","6568ad1ef4db36474a5c1bf9","4","","","","","","","","","","","","null","stimulus/SV_PolicingMSA/CO_543/IMG_0_543.jpg","null","","","","","","2","","","","","",""
"street view slide show","image-button-response","99","403535","0.0-99.0","","656776a7904ae00d6b91d1dd","6568ad1ef4db36474a5c1bf9","4","","","","","","","","","","","","null","stimulus/SV_PolicingMSA/CO_543/IMG_5_543.jpg","null","","","","","","2","","","","","",""
"street view slide show","image-button-response","100","404546","0.0-100.0","","656776a7904ae00d6b91d1dd","6568ad1ef4db36474a5c1bf9","4","","","","","","","","","","","","null","stimulus/SV_PolicingMSA/CO_543/IMG_9_543.jpg","null","","","","","","2","","","","","",""
"street view slide show","image-button-response","101","405556","0.0-101.0","","656776a7904ae00d6b91d1dd","6568ad1ef4db36474a5c1bf9","4","","","","","","","","","","","","null","stimulus/SV_PolicingMSA/CO_543/IMG_1_543.jpg","null","","","","","","2","","","","","",""
"street view slide show","image-button-response","102","406571","0.0-102.0","","656776a7904ae00d6b91d1dd","6568ad1ef4db36474a5c1bf9","4","","","","","","","","","","","","null","stimulus/SV_PolicingMSA/CO_543/IMG_13_543.jpg","null","","","","","","2","","","","","",""
"dot matrix survey1","survey","103","418044","0.0-103.0","","656776a7904ae00d6b91d1dd","6568ad1ef4db36474a5c1bf9","4","","","","","","","","","","","","11465","","{""P0_Q0"":null,""P0_Q1"":{""wealthy"":1,""safe"":2,""walkable"":3,""traditional"":3,""diverse"":4}}","","","","","","2","[]","","","","",""
"dot matrix survey2","survey","104","431847","0.0-104.0","","656776a7904ae00d6b91d1dd","6568ad1ef4db36474a5c1bf9","4","","","","","","","","","","","","13795","","{""P0_Q0"":null,""P0_Q1"":{""violence"":2,""crime"":2,""drug"":2,""schools"":0,""opportunities"":0}}","","","","","","2","[]","","","","",""
"dot matrix survey3","survey","105","447103","0.0-105.0","","656776a7904ae00d6b91d1dd","6568ad1ef4db36474a5c1bf9","4","","","","","","","","","","","","15247","","{""P0_Q0"":null,""P0_Q1"":{""movein"":0,""moveout"":4,""shopping"":1,""walk"":0,""park"":1,""school"":0}}","","","","","","2","[]","","","","",""
"sliderTrial","html-slider-response","106","449816","0.0-106.0","","656776a7904ae00d6b91d1dd","6568ad1ef4db36474a5c1bf9","4","","","","","","","","","","","","2712","[""SV_PolicingMSA/CO_543/IMG_10_543.jpg"",""SV_PolicingMSA/CO_543/IMG_6_543.jpg"",""SV_PolicingMSA/CO_543/IMG_14_543.jpg"",""SV_PolicingMSA/CO_543/IMG_0_543.jpg"",""SV_PolicingMSA/CO_543/IMG_5_543.jpg"",""SV_PolicingMSA/CO_543/IMG_9_543.jpg"",""SV_PolicingMSA/CO_543/IMG_1_543.jpg"",""SV_PolicingMSA/CO_543/IMG_13_543.jpg""]","4","","","","","","2","","4","[""./rc_img/cop_condGroup_6_SafeStreets_autoscaled.png"",""./rc_img/cop_condGroup_6_CommunitySafety_autoscaled.png""]","4","",""
"sliderTrial","html-slider-response","107","453110","0.0-107.0","","656776a7904ae00d6b91d1dd","6568ad1ef4db36474a5c1bf9","4","","","","","","","","","","","","3293","[""SV_PolicingMSA/CO_543/IMG_10_543.jpg"",""SV_PolicingMSA/CO_543/IMG_6_543.jpg"",""SV_PolicingMSA/CO_543/IMG_14_543.jpg"",""SV_PolicingMSA/CO_543/IMG_0_543.jpg"",""SV_PolicingMSA/CO_543/IMG_5_543.jpg"",""SV_PolicingMSA/CO_543/IMG_9_543.jpg"",""SV_PolicingMSA/CO_543/IMG_1_543.jpg"",""SV_PolicingMSA/CO_543/IMG_13_543.jpg""]","4","","","","","","2","","4","[""./rc_img/cop_condGroup_20_CommunitySafety_autoscaled.png"",""./rc_img/cop_condGroup_20_SafeStreets_autoscaled.png""]","4","",""
"sliderTrial","html-slider-response","108","455901","0.0-108.0","","656776a7904ae00d6b91d1dd","6568ad1ef4db36474a5c1bf9","4","","","","","","","","","","","","2789","[""SV_PolicingMSA/CO_543/IMG_10_543.jpg"",""SV_PolicingMSA/CO_543/IMG_6_543.jpg"",""SV_PolicingMSA/CO_543/IMG_14_543.jpg"",""SV_PolicingMSA/CO_543/IMG_0_543.jpg"",""SV_PolicingMSA/CO_543/IMG_5_543.jpg"",""SV_PolicingMSA/CO_543/IMG_9_543.jpg"",""SV_PolicingMSA/CO_543/IMG_1_543.jpg"",""SV_PolicingMSA/CO_543/IMG_13_543.jpg""]","5","","","","","","2","","4","[""./rc_img/cop_condGroup_4_CommunitySafety_autoscaled.png"",""./rc_img/cop_condGroup_4_SafeStreets_autoscaled.png""]","5","",""
"sliderTrial","html-slider-response","109","459133","0.0-109.0","","656776a7904ae00d6b91d1dd","6568ad1ef4db36474a5c1bf9","4","","","","","","","","","","","","3230","[""SV_PolicingMSA/CO_543/IMG_10_543.jpg"",""SV_PolicingMSA/CO_543/IMG_6_543.jpg"",""SV_PolicingMSA/CO_543/IMG_14_543.jpg"",""SV_PolicingMSA/CO_543/IMG_0_543.jpg"",""SV_PolicingMSA/CO_543/IMG_5_543.jpg"",""SV_PolicingMSA/CO_543/IMG_9_543.jpg"",""SV_PolicingMSA/CO_543/IMG_1_543.jpg"",""SV_PolicingMSA/CO_543/IMG_13_543.jpg""]","5","","","","","","2","","4","[""./rc_img/cop_condGroup_15_SafeStreets_autoscaled.png"",""./rc_img/cop_condGroup_15_CommunitySafety_autoscaled.png""]","3","",""
"sliderTrial","html-slider-response","110","462289","0.0-110.0","","656776a7904ae00d6b91d1dd","6568ad1ef4db36474a5c1bf9","4","","","","","","","","","","","","3153","[""SV_PolicingMSA/CO_543/IMG_10_543.jpg"",""SV_PolicingMSA/CO_543/IMG_6_543.jpg"",""SV_PolicingMSA/CO_543/IMG_14_543.jpg"",""SV_PolicingMSA/CO_543/IMG_0_543.jpg"",""SV_PolicingMSA/CO_543/IMG_5_543.jpg"",""SV_PolicingMSA/CO_543/IMG_9_543.jpg"",""SV_PolicingMSA/CO_543/IMG_1_543.jpg"",""SV_PolicingMSA/CO_543/IMG_13_543.jpg""]","5","","","","","","2","","4","[""./rc_img/cop_condGroup_16_CommunitySafety_autoscaled.png"",""./rc_img/cop_condGroup_16_SafeStreets_autoscaled.png""]","5","",""
"before_SVSlide_prompt","html-button-response","111","463463","0.0-111.0","","656776a7904ae00d6b91d1dd","6568ad1ef4db36474a5c1bf9","4","","","","","","","","","","","","1173","Click [Next] to see the next neighborhood!","0","","","","","","","","","","","",""
"street view slide show","image-button-response","112","464472","0.0-112.0","","656776a7904ae00d6b91d1dd","6568ad1ef4db36474a5c1bf9","4","","","","","","","","","","","","null","stimulus/SV_PolicingMSA/CO_1308/IMG_4_1308.jpg","null","","","","","","3","","","","","",""
"street view slide show","image-button-response","113","465488","0.0-113.0","","656776a7904ae00d6b91d1dd","6568ad1ef4db36474a5c1bf9","4","","","","","","","","","","","","null","stimulus/SV_PolicingMSA/CO_1308/IMG_3_1308.jpg","null","","","","","","3","","","","","",""
"street view slide show","image-button-response","114","466503","0.0-114.0","","656776a7904ae00d6b91d1dd","6568ad1ef4db36474a5c1bf9","4","","","","","","","","","","","","null","stimulus/SV_PolicingMSA/CO_1308/IMG_8_1308.jpg","null","","","","","","3","","","","","",""
"street view slide show","image-button-response","115","467508","0.0-115.0","","656776a7904ae00d6b91d1dd","6568ad1ef4db36474a5c1bf9","4","","","","","","","","","","","","null","stimulus/SV_PolicingMSA/CO_1308/IMG_14_1308.jpg","null","","","","","","3","","","","","",""
"street view slide show","image-button-response","116","468523","0.0-116.0","","656776a7904ae00d6b91d1dd","6568ad1ef4db36474a5c1bf9","4","","","","","","","","","","","","null","stimulus/SV_PolicingMSA/CO_1308/IMG_0_1308.jpg","null","","","","","","3","","","","","",""
"street view slide show","image-button-response","117","469530","0.0-117.0","","656776a7904ae00d6b91d1dd","6568ad1ef4db36474a5c1bf9","4","","","","","","","","","","","","null","stimulus/SV_PolicingMSA/CO_1308/IMG_2_1308.jpg","null","","","","","","3","","","","","",""
"street view slide show","image-button-response","118","470534","0.0-118.0","","656776a7904ae00d6b91d1dd","6568ad1ef4db36474a5c1bf9","4","","","","","","","","","","","","null","stimulus/SV_PolicingMSA/CO_1308/IMG_13_1308.jpg","null","","","","","","3","","","","","",""
"street view slide show","image-button-response","119","471538","0.0-119.0","","656776a7904ae00d6b91d1dd","6568ad1ef4db36474a5c1bf9","4","","","","","","","","","","","","null","stimulus/SV_PolicingMSA/CO_1308/IMG_11_1308.jpg","null","","","","","","3","","","","","",""
"dot matrix survey1","survey","120","481723","0.0-120.0","","656776a7904ae00d6b91d1dd","6568ad1ef4db36474a5c1bf9","4","","","","","","","","","","","","10176","","{""P0_Q0"":null,""P0_Q1"":{""wealthy"":3,""safe"":2,""walkable"":4,""traditional"":2,""diverse"":4}}","","","","","","3","[]","","","","",""
"dot matrix survey2","survey","121","489982","0.0-121.0","","656776a7904ae00d6b91d1dd","6568ad1ef4db36474a5c1bf9","4","","","","","","","","","","","","8255","","{""P0_Q0"":null,""P0_Q1"":{""violence"":3,""crime"":3,""drug"":3,""schools"":4,""opportunities"":4}}","","","","","","3","[]","","","","",""
"dot matrix survey3","survey","122","506756","0.0-122.0","","656776a7904ae00d6b91d1dd","6568ad1ef4db36474a5c1bf9","4","","","","","","","","","","","","16771","","{""P0_Q0"":null,""P0_Q1"":{""movein"":0,""moveout"":4,""shopping"":4,""walk"":3,""park"":3,""school"":3}}","","","","","","3","[]","","","","",""
"sliderTrial","html-slider-response","123","509622","0.0-123.0","","656776a7904ae00d6b91d1dd","6568ad1ef4db36474a5c1bf9","4","","","","","","","","","","","","2864","[""SV_PolicingMSA/CO_1308/IMG_4_1308.jpg"",""SV_PolicingMSA/CO_1308/IMG_3_1308.jpg"",""SV_PolicingMSA/CO_1308/IMG_8_1308.jpg"",""SV_PolicingMSA/CO_1308/IMG_14_1308.jpg"",""SV_PolicingMSA/CO_1308/IMG_0_1308.jpg"",""SV_PolicingMSA/CO_1308/IMG_2_1308.jpg"",""SV_PolicingMSA/CO_1308/IMG_13_1308.jpg"",""SV_PolicingMSA/CO_1308/IMG_11_1308.jpg""]","4","","","","","","3","","4","[""./rc_img/cop_condGroup_19_SafeStreets_autoscaled.png"",""./rc_img/cop_condGroup_19_CommunitySafety_autoscaled.png""]","4","",""
"sliderTrial","html-slider-response","124","514140","0.0-124.0","","656776a7904ae00d6b91d1dd","6568ad1ef4db36474a5c1bf9","4","","","","","","","","","","","","4516","[""SV_PolicingMSA/CO_1308/IMG_4_1308.jpg"",""SV_PolicingMSA/CO_1308/IMG_3_1308.jpg"",""SV_PolicingMSA/CO_1308/IMG_8_1308.jpg"",""SV_PolicingMSA/CO_1308/IMG_14_1308.jpg"",""SV_PolicingMSA/CO_1308/IMG_0_1308.jpg"",""SV_PolicingMSA/CO_1308/IMG_2_1308.jpg"",""SV_PolicingMSA/CO_1308/IMG_13_1308.jpg"",""SV_PolicingMSA/CO_1308/IMG_11_1308.jpg""]","5","","","","","","3","","4","[""./rc_img/cop_condGroup_9_SafeStreets_autoscaled.png"",""./rc_img/cop_condGroup_9_CommunitySafety_autoscaled.png""]","3","",""
"sliderTrial","html-slider-response","125","516663","0.0-125.0","","656776a7904ae00d6b91d1dd","6568ad1ef4db36474a5c1bf9","4","","","","","","","","","","","","2521","[""SV_PolicingMSA/CO_1308/IMG_4_1308.jpg"",""SV_PolicingMSA/CO_1308/IMG_3_1308.jpg"",""SV_PolicingMSA/CO_1308/IMG_8_1308.jpg"",""SV_PolicingMSA/CO_1308/IMG_14_1308.jpg"",""SV_PolicingMSA/CO_1308/IMG_0_1308.jpg"",""SV_PolicingMSA/CO_1308/IMG_2_1308.jpg"",""SV_PolicingMSA/CO_1308/IMG_13_1308.jpg"",""SV_PolicingMSA/CO_1308/IMG_11_1308.jpg""]","5","","","","","","3","","4","[""./rc_img/cop_condGroup_8_SafeStreets_autoscaled.png"",""./rc_img/cop_condGroup_8_CommunitySafety_autoscaled.png""]","3","",""
"sliderTrial","html-slider-response","126","519186","0.0-126.0","","656776a7904ae00d6b91d1dd","6568ad1ef4db36474a5c1bf9","4","","","","","","","","","","","","2521","[""SV_PolicingMSA/CO_1308/IMG_4_1308.jpg"",""SV_PolicingMSA/CO_1308/IMG_3_1308.jpg"",""SV_PolicingMSA/CO_1308/IMG_8_1308.jpg"",""SV_PolicingMSA/CO_1308/IMG_14_1308.jpg"",""SV_PolicingMSA/CO_1308/IMG_0_1308.jpg"",""SV_PolicingMSA/CO_1308/IMG_2_1308.jpg"",""SV_PolicingMSA/CO_1308/IMG_13_1308.jpg"",""SV_PolicingMSA/CO_1308/IMG_11_1308.jpg""]","3","","","","","","3","","4","[""./rc_img/cop_condGroup_14_CommunitySafety_autoscaled.png"",""./rc_img/cop_condGroup_14_SafeStreets_autoscaled.png""]","3","",""
"sliderTrial","html-slider-response","127","521443","0.0-127.0","","656776a7904ae00d6b91d1dd","6568ad1ef4db36474a5c1bf9","4","","","","","","","","","","","","2256","[""SV_PolicingMSA/CO_1308/IMG_4_1308.jpg"",""SV_PolicingMSA/CO_1308/IMG_3_1308.jpg"",""SV_PolicingMSA/CO_1308/IMG_8_1308.jpg"",""SV_PolicingMSA/CO_1308/IMG_14_1308.jpg"",""SV_PolicingMSA/CO_1308/IMG_0_1308.jpg"",""SV_PolicingMSA/CO_1308/IMG_2_1308.jpg"",""SV_PolicingMSA/CO_1308/IMG_13_1308.jpg"",""SV_PolicingMSA/CO_1308/IMG_11_1308.jpg""]","4","","","","","","3","","4","[""./rc_img/cop_condGroup_7_SafeStreets_autoscaled.png"",""./rc_img/cop_condGroup_7_CommunitySafety_autoscaled.png""]","4","",""
"before_SVSlide_prompt","html-button-response","128","522547","0.0-128.0","","656776a7904ae00d6b91d1dd","6568ad1ef4db36474a5c1bf9","4","","","","","","","","","","","","1103","Click [Next] to see the next neighborhood!","0","","","","","","","","","","","",""
"street view slide show","image-button-response","129","523564","0.0-129.0","","656776a7904ae00d6b91d1dd","6568ad1ef4db36474a5c1bf9","4","","","","","","","","","","","","null","stimulus/SV_PolicingMSA/CO_649/IMG_11_649.jpg","null","","","","","","2","","","","","",""
"street view slide show","image-button-response","130","524567","0.0-130.0","","656776a7904ae00d6b91d1dd","6568ad1ef4db36474a5c1bf9","4","","","","","","","","","","","","null","stimulus/SV_PolicingMSA/CO_649/IMG_6_649.jpg","null","","","","","","2","","","","","",""
"street view slide show","image-button-response","131","525570","0.0-131.0","","656776a7904ae00d6b91d1dd","6568ad1ef4db36474a5c1bf9","4","","","","","","","","","","","","null","stimulus/SV_PolicingMSA/CO_649/IMG_14_649.jpg","null","","","","","","2","","","","","",""
"street view slide show","image-button-response","132","526586","0.0-132.0","","656776a7904ae00d6b91d1dd","6568ad1ef4db36474a5c1bf9","4","","","","","","","","","","","","null","stimulus/SV_PolicingMSA/CO_649/IMG_9_649.jpg","null","","","","","","2","","","","","",""
"street view slide show","image-button-response","133","527596","0.0-133.0","","656776a7904ae00d6b91d1dd","6568ad1ef4db36474a5c1bf9","4","","","","","","","","","","","","null","stimulus/SV_PolicingMSA/CO_649/IMG_12_649.jpg","null","","","","","","2","","","","","",""
"street view slide show","image-button-response","134","528610","0.0-134.0","","656776a7904ae00d6b91d1dd","6568ad1ef4db36474a5c1bf9","4","","","","","","","","","","","","null","stimulus/SV_PolicingMSA/CO_649/IMG_3_649.jpg","null","","","","","","2","","","","","",""
"street view slide show","image-button-response","135","529618","0.0-135.0","","656776a7904ae00d6b91d1dd","6568ad1ef4db36474a5c1bf9","4","","","","","","","","","","","","null","stimulus/SV_PolicingMSA/CO_649/IMG_4_649.jpg","null","","","","","","2","","","","","",""
"street view slide show","image-button-response","136","530634","0.0-136.0","","656776a7904ae00d6b91d1dd","6568ad1ef4db36474a5c1bf9","4","","","","","","","","","","","","null","stimulus/SV_PolicingMSA/CO_649/IMG_8_649.jpg","null","","","","","","2","","","","","",""
"dot matrix survey1","survey","137","544498","0.0-137.0","","656776a7904ae00d6b91d1dd","6568ad1ef4db36474a5c1bf9","4","","","","","","","","","","","","13849","","{""P0_Q0"":null,""P0_Q1"":{""wealthy"":2,""safe"":3,""walkable"":3,""traditional"":4,""diverse"":4}}","","","","","","2","[]","","","","",""
"dot matrix survey2","survey","138","555055","0.0-138.0","","656776a7904ae00d6b91d1dd","6568ad1ef4db36474a5c1bf9","4","","","","","","","","","","","","10552","","{""P0_Q0"":null,""P0_Q1"":{""violence"":2,""crime"":2,""drug"":2,""schools"":2,""opportunities"":2}}","","","","","","2","[]","","","","",""
"dot matrix survey3","survey","139","574003","0.0-139.0","","656776a7904ae00d6b91d1dd","6568ad1ef4db36474a5c1bf9","4","","","","","","","","","","","","18946","","{""P0_Q0"":null,""P0_Q1"":{""movein"":1,""moveout"":3,""shopping"":3,""walk"":2,""park"":3,""school"":2}}","","","","","","2","[]","","","","",""
"sliderTrial","html-slider-response","140","577955","0.0-140.0","","656776a7904ae00d6b91d1dd","6568ad1ef4db36474a5c1bf9","4","","","","","","","","","","","","3950","[""SV_PolicingMSA/CO_649/IMG_11_649.jpg"",""SV_PolicingMSA/CO_649/IMG_6_649.jpg"",""SV_PolicingMSA/CO_649/IMG_14_649.jpg"",""SV_PolicingMSA/CO_649/IMG_9_649.jpg"",""SV_PolicingMSA/CO_649/IMG_12_649.jpg"",""SV_PolicingMSA/CO_649/IMG_3_649.jpg"",""SV_PolicingMSA/CO_649/IMG_4_649.jpg"",""SV_PolicingMSA/CO_649/IMG_8_649.jpg""]","5","","","","","","2","","4","[""./rc_img/cop_condGroup_11_SafeStreets_autoscaled.png"",""./rc_img/cop_condGroup_11_CommunitySafety_autoscaled.png""]","3","",""
"sliderTrial","html-slider-response","141","580404","0.0-141.0","","656776a7904ae00d6b91d1dd","6568ad1ef4db36474a5c1bf9","4","","","","","","","","","","","","2446","[""SV_PolicingMSA/CO_649/IMG_11_649.jpg"",""SV_PolicingMSA/CO_649/IMG_6_649.jpg"",""SV_PolicingMSA/CO_649/IMG_14_649.jpg"",""SV_PolicingMSA/CO_649/IMG_9_649.jpg"",""SV_PolicingMSA/CO_649/IMG_12_649.jpg"",""SV_PolicingMSA/CO_649/IMG_3_649.jpg"",""SV_PolicingMSA/CO_649/IMG_4_649.jpg"",""SV_PolicingMSA/CO_649/IMG_8_649.jpg""]","5","","","","","","2","","4","[""./rc_img/cop_condGroup_12_SafeStreets_autoscaled.png"",""./rc_img/cop_condGroup_12_CommunitySafety_autoscaled.png""]","3","",""
"sliderTrial","html-slider-response","142","582599","0.0-142.0","","656776a7904ae00d6b91d1dd","6568ad1ef4db36474a5c1bf9","4","","","","","","","","","","","","2193","[""SV_PolicingMSA/CO_649/IMG_11_649.jpg"",""SV_PolicingMSA/CO_649/IMG_6_649.jpg"",""SV_PolicingMSA/CO_649/IMG_14_649.jpg"",""SV_PolicingMSA/CO_649/IMG_9_649.jpg"",""SV_PolicingMSA/CO_649/IMG_12_649.jpg"",""SV_PolicingMSA/CO_649/IMG_3_649.jpg"",""SV_PolicingMSA/CO_649/IMG_4_649.jpg"",""SV_PolicingMSA/CO_649/IMG_8_649.jpg""]","3","","","","","","2","","4","[""./rc_img/cop_condGroup_13_CommunitySafety_autoscaled.png"",""./rc_img/cop_condGroup_13_SafeStreets_autoscaled.png""]","3","",""
"sliderTrial","html-slider-response","143","584640","0.0-143.0","","656776a7904ae00d6b91d1dd","6568ad1ef4db36474a5c1bf9","4","","","","","","","","","","","","2039","[""SV_PolicingMSA/CO_649/IMG_11_649.jpg"",""SV_PolicingMSA/CO_649/IMG_6_649.jpg"",""SV_PolicingMSA/CO_649/IMG_14_649.jpg"",""SV_PolicingMSA/CO_649/IMG_9_649.jpg"",""SV_PolicingMSA/CO_649/IMG_12_649.jpg"",""SV_PolicingMSA/CO_649/IMG_3_649.jpg"",""SV_PolicingMSA/CO_649/IMG_4_649.jpg"",""SV_PolicingMSA/CO_649/IMG_8_649.jpg""]","5","","","","","","2","","4","[""./rc_img/cop_condGroup_5_SafeStreets_autoscaled.png"",""./rc_img/cop_condGroup_5_CommunitySafety_autoscaled.png""]","3","",""
"sliderTrial","html-slider-response","144","587902","0.0-144.0","","656776a7904ae00d6b91d1dd","6568ad1ef4db36474a5c1bf9","4","","","","","","","","","","","","3259","[""SV_PolicingMSA/CO_649/IMG_11_649.jpg"",""SV_PolicingMSA/CO_649/IMG_6_649.jpg"",""SV_PolicingMSA/CO_649/IMG_14_649.jpg"",""SV_PolicingMSA/CO_649/IMG_9_649.jpg"",""SV_PolicingMSA/CO_649/IMG_12_649.jpg"",""SV_PolicingMSA/CO_649/IMG_3_649.jpg"",""SV_PolicingMSA/CO_649/IMG_4_649.jpg"",""SV_PolicingMSA/CO_649/IMG_8_649.jpg""]","3","","","","","","2","","4","[""./rc_img/cop_condGroup_3_CommunitySafety_autoscaled.png"",""./rc_img/cop_condGroup_3_SafeStreets_autoscaled.png""]","3","",""
"demographics","survey-html-form","145","601373","0.0-145.0","","656776a7904ae00d6b91d1dd","6568ad1ef4db36474a5c1bf9","4","","","","","","","","","","","","13468","","{""age"":""49"",""sex"":""female"",""gender"":""woman"",""gender-self-describe"":"""",""zipcode"":""48134""}","","","","","","","","","","","",""
"demographics-list","survey","146","622746","0.0-146.0","","656776a7904ae00d6b91d1dd","6568ad1ef4db36474a5c1bf9","4","","","","","","","","","","","","21329","","{""P0_Q0"":null,""race-ethnicity"":[""White or of European ancestry""],""education"":""Some college"",""P1_Q0"":null,""ideology"":""Liberal"",""P2_Q0"":null,""num-moves"":1,""P3_Q0"":null,""social-ladder"":4}","","","","","","","[]","","","","",""
"end-survey","survey-text","147","624443","0.0-147.0","","656776a7904ae00d6b91d1dd","6568ad1ef4db36474a5c1bf9","4","","","","","","","","","","","","1683","","{""Q0"":""""}","","","","","","","","","","","","2"
"end-survey","html-button-response","148","625862","0.0-148.0","","656776a7904ae00d6b91d1dd","6568ad1ef4db36474a5c1bf9","4","","","","","","","","","","","","1415","
    You've reached the end of the survey. <br><br> 
    <b>Do not close or refresh this window.</b><br>
    On the next page, you will be automatically redirected to Prolific. <br><br>

    <div class=""alert alert-warning""><b>
    </div>
","0","","","","","","","","","","","",""
