"task","trial_type","trial_index","time_elapsed","internal_node_id","subject_id","study_id","session_id","section","width","height","webaudio","browser","browser_version","mobile","os","fullscreen","vsync_rate","webcam","microphone","rt","stimulus","response","success","timeout","failed_images","failed_audio","failed_video","block","accuracy","slider_start","choices","standardized_response","correct","num_attention_checks_correct"
"pavlovia-init","pavlovia","0","2560","0.0-0.0","","656776a7904ae00d6b91d1dd","6568a86b0cbcb4084b2158b2","7","","","","","","","","","","","","","","","","","","","","","","","","","",""
"browser-check","browser-check","1","5549","0.0-1.0","","656776a7904ae00d6b91d1dd","6568a86b0cbcb4084b2158b2","7","1600","751","true","chrome","119.0.0","false","Windows 10","true","60.92","true","true","","","","","","","","","","","","","","",""
"consent","html-button-response","2","50007","0.0-2.0","","656776a7904ae00d6b91d1dd","6568a86b0cbcb4084b2158b2","7","","","","","","","","","","","","44454","
        <div style=""font-size: 80%; max-width:700px"">
            <h2>CONSENT FORM</h2>
        
            <div style=""text-align: left"">
            <h4>DESCRIPTION</h4>
            <p>
            You will complete a short task where you give your impressions of various neighborhoods and assign individuals to those spaces, and answer some questions about your thoughts and opinions.<br>
            The University of Michigan Institutional Review Board Health Sciences and Behavioral Sciences has determined that this study is exempt from IRB oversight.
            </p>

            <h4>TIME INVOLVEMENT</h4>
            <p>Your participation will take approximately 15 minutes. You will receive $3.15 upon completion of the study.</p>
        
            <h4>RISKS AND BENEFITS</h4>
            <p>
            The risks associated with this study are minimal. The benefits which may reasonably be expected to result from this study are none. We cannot and do not guarantee or promise that you will receive any benefits from this study.
            </p>
          
            <h4>SUBJECT'S RIGHTS</h4>
            <p>
            If you have read this form and have decided to participate in this project, please understand your participation is voluntary and you have the right to withdraw your consent or discontinue participation at any time without penalty or loss of benefits to which you are otherwise entitled. The alternative is not to participate. You have the right to refuse to answer particular questions. Your individual privacy will be maintained in all published and written data resulting from the study.
            </p>

            <h4>HUMAN SUBJECT APPROVAL</h4>
            <p>
            This study is exempt from ongoing IRB review.
            </p>

            <h4>CONTACT INFORMATION</h4>
            If you have any questions, concerns or complaints about this research, its procedures, risks and benefits, contact the Protocol Director, Nicholas Camp, npcamp@umich.edu, (443) 851-6783. <br>

            If you have questions about your rights as a research participant, or wish to obtain information, ask questions or discuss any concerns about this study with someone other than the researcher(s), please contact the following:<br><br>
            University of Michigan<br>
            Health Sciences and Behavioral Sciences Institutional Review Board (IRB-HSBS)<br>
            2800 Plymouth Road<br>
            Building 520, Room 1169Ann Arbor, MI 48109-2800<br>
            Telephone: 734-936-0933 or toll free (866) 936-0933<br>
            Fax: 734-936-1852<br>
            E-mail: irbhsbs@umich.edu<br><br>

            You can also contact the University of Michigan Compliance Hotline at 1-866-990-0111. You may also print this consent form to keep.
            <br><br>
            <div class=""alert alert-warning""><b>
            Do you consent to participate in this study? If you consent to participate in this study, please click “Accept and Continue”. If you select ""Decline and Exit"", you will be exited from the survey. <br>
            </b></div>
            </div>
        </div>
    ","1","","","","","","","","","","","",""
"","preload","3","57040","0.0-3.0","","656776a7904ae00d6b91d1dd","6568a86b0cbcb4084b2158b2","7","","","","","","","","","","","","","","","true","false","[]","[]","[]","","","","","","",""
"instructions","html-button-response","4","163673","0.0-4.0","","656776a7904ae00d6b91d1dd","6568a86b0cbcb4084b2158b2","7","","","","","","","","","","","","106631","
        <div class=""text-container"">
        <h1>Welcome to the study!</h1>
        
        <div class=""text-left"">
            <p>
                In this study, we are interested in what people can tell about spaces from Google Street View images. <br> Google Street View takes pictures of streets used for Google Earth and Google Maps. <br>You’ll see Google Street View images of different places and answer some questions about each one.<br>
            </p>
        </div>
        <img src = ""assets/img/example.png"" width = 500px, height = auto>
        <br>
    <br>
    ","0","","","","","","","","","","","",""
"instructions","html-button-response","5","166079","0.0-5.0","","656776a7904ae00d6b91d1dd","6568a86b0cbcb4084b2158b2","7","","","","","","","","","","","","2405","
    <div class=""text-container"">
        <div class=""text-center"">
            <p>Please remember that your answers are completely anonymous.<br>Go with your gut response- there are no right or wrong answers!</p>
        </div>
    <br>
","0","","","","","","","","","","","",""
"before_SVSlide_prompt","html-button-response","6","167013","0.0-6.0","","656776a7904ae00d6b91d1dd","6568a86b0cbcb4084b2158b2","7","","","","","","","","","","","","933","Click [Next] to see the next neighborhood!","0","","","","","","","","","","","",""
"street view slide show","image-button-response","7","168063","0.0-7.0","","656776a7904ae00d6b91d1dd","6568a86b0cbcb4084b2158b2","7","","","","","","","","","","","","null","stimulus/SV_PolicingMSA/MO_60/IMG_7_60.jpg","null","","","","","","4","","","","","",""
"street view slide show","image-button-response","8","169066","0.0-8.0","","656776a7904ae00d6b91d1dd","6568a86b0cbcb4084b2158b2","7","","","","","","","","","","","","null","stimulus/SV_PolicingMSA/MO_60/IMG_10_60.jpg","null","","","","","","4","","","","","",""
"street view slide show","image-button-response","9","170074","0.0-9.0","","656776a7904ae00d6b91d1dd","6568a86b0cbcb4084b2158b2","7","","","","","","","","","","","","null","stimulus/SV_PolicingMSA/MO_60/IMG_14_60.jpg","null","","","","","","4","","","","","",""
"street view slide show","image-button-response","10","171082","0.0-10.0","","656776a7904ae00d6b91d1dd","6568a86b0cbcb4084b2158b2","7","","","","","","","","","","","","null","stimulus/SV_PolicingMSA/MO_60/IMG_3_60.jpg","null","","","","","","4","","","","","",""
"street view slide show","image-button-response","11","172091","0.0-11.0","","656776a7904ae00d6b91d1dd","6568a86b0cbcb4084b2158b2","7","","","","","","","","","","","","null","stimulus/SV_PolicingMSA/MO_60/IMG_0_60.jpg","null","","","","","","4","","","","","",""
"street view slide show","image-button-response","12","173102","0.0-12.0","","656776a7904ae00d6b91d1dd","6568a86b0cbcb4084b2158b2","7","","","","","","","","","","","","null","stimulus/SV_PolicingMSA/MO_60/IMG_12_60.jpg","null","","","","","","4","","","","","",""
"street view slide show","image-button-response","13","174110","0.0-13.0","","656776a7904ae00d6b91d1dd","6568a86b0cbcb4084b2158b2","7","","","","","","","","","","","","null","stimulus/SV_PolicingMSA/MO_60/IMG_5_60.jpg","null","","","","","","4","","","","","",""
"street view slide show","image-button-response","14","175117","0.0-14.0","","656776a7904ae00d6b91d1dd","6568a86b0cbcb4084b2158b2","7","","","","","","","","","","","","null","stimulus/SV_PolicingMSA/MO_60/IMG_13_60.jpg","null","","","","","","4","","","","","",""
"dot matrix survey1","survey","15","191946","0.0-15.0","","656776a7904ae00d6b91d1dd","6568a86b0cbcb4084b2158b2","7","","","","","","","","","","","","16584","","{""P0_Q0"":null,""P0_Q1"":{""wealthy"":1,""safe"":3,""walkable"":2,""traditional"":4,""diverse"":2}}","","","","","","4","[]","","","","",""
"dot matrix survey2","survey","16","206220","0.0-16.0","","656776a7904ae00d6b91d1dd","6568a86b0cbcb4084b2158b2","7","","","","","","","","","","","","14251","","{""P0_Q0"":null,""P0_Q1"":{""violence"":2,""crime"":2,""drug"":3,""schools"":1,""opportunities"":1}}","","","","","","4","[]","","","","",""
"dot matrix survey3","survey","17","228444","0.0-17.0","","656776a7904ae00d6b91d1dd","6568a86b0cbcb4084b2158b2","7","","","","","","","","","","","","22210","","{""P0_Q0"":null,""P0_Q1"":{""movein"":1,""moveout"":3,""shopping"":2,""walk"":1,""park"":1,""school"":1}}","","","","","","4","[]","","","","",""
"sliderTrial","html-slider-response","18","240248","0.0-18.0","","656776a7904ae00d6b91d1dd","6568a86b0cbcb4084b2158b2","7","","","","","","","","","","","","11699","[""SV_PolicingMSA/MO_60/IMG_7_60.jpg"",""SV_PolicingMSA/MO_60/IMG_10_60.jpg"",""SV_PolicingMSA/MO_60/IMG_14_60.jpg"",""SV_PolicingMSA/MO_60/IMG_3_60.jpg"",""SV_PolicingMSA/MO_60/IMG_0_60.jpg"",""SV_PolicingMSA/MO_60/IMG_12_60.jpg"",""SV_PolicingMSA/MO_60/IMG_5_60.jpg"",""SV_PolicingMSA/MO_60/IMG_13_60.jpg""]","5","","","","","","4","","4","[""./rc_img/cop_condGroup_2_SafeStreets_autoscaled.png"",""./rc_img/cop_condGroup_2_CommunitySafety_autoscaled.png""]","3","",""
"sliderTrial","html-slider-response","19","243715","0.0-19.0","","656776a7904ae00d6b91d1dd","6568a86b0cbcb4084b2158b2","7","","","","","","","","","","","","3464","[""SV_PolicingMSA/MO_60/IMG_7_60.jpg"",""SV_PolicingMSA/MO_60/IMG_10_60.jpg"",""SV_PolicingMSA/MO_60/IMG_14_60.jpg"",""SV_PolicingMSA/MO_60/IMG_3_60.jpg"",""SV_PolicingMSA/MO_60/IMG_0_60.jpg"",""SV_PolicingMSA/MO_60/IMG_12_60.jpg"",""SV_PolicingMSA/MO_60/IMG_5_60.jpg"",""SV_PolicingMSA/MO_60/IMG_13_60.jpg""]","5","","","","","","4","","4","[""./rc_img/cop_condGroup_14_SafeStreets_autoscaled.png"",""./rc_img/cop_condGroup_14_CommunitySafety_autoscaled.png""]","3","",""
"sliderTrial","html-slider-response","20","246576","0.0-20.0","","656776a7904ae00d6b91d1dd","6568a86b0cbcb4084b2158b2","7","","","","","","","","","","","","2858","[""SV_PolicingMSA/MO_60/IMG_7_60.jpg"",""SV_PolicingMSA/MO_60/IMG_10_60.jpg"",""SV_PolicingMSA/MO_60/IMG_14_60.jpg"",""SV_PolicingMSA/MO_60/IMG_3_60.jpg"",""SV_PolicingMSA/MO_60/IMG_0_60.jpg"",""SV_PolicingMSA/MO_60/IMG_12_60.jpg"",""SV_PolicingMSA/MO_60/IMG_5_60.jpg"",""SV_PolicingMSA/MO_60/IMG_13_60.jpg""]","3","","","","","","4","","4","[""./rc_img/cop_condGroup_18_CommunitySafety_autoscaled.png"",""./rc_img/cop_condGroup_18_SafeStreets_autoscaled.png""]","3","",""
"sliderTrial","html-slider-response","21","249912","0.0-21.0","","656776a7904ae00d6b91d1dd","6568a86b0cbcb4084b2158b2","7","","","","","","","","","","","","3332","[""SV_PolicingMSA/MO_60/IMG_7_60.jpg"",""SV_PolicingMSA/MO_60/IMG_10_60.jpg"",""SV_PolicingMSA/MO_60/IMG_14_60.jpg"",""SV_PolicingMSA/MO_60/IMG_3_60.jpg"",""SV_PolicingMSA/MO_60/IMG_0_60.jpg"",""SV_PolicingMSA/MO_60/IMG_12_60.jpg"",""SV_PolicingMSA/MO_60/IMG_5_60.jpg"",""SV_PolicingMSA/MO_60/IMG_13_60.jpg""]","3","","","","","","4","","4","[""./rc_img/cop_condGroup_19_CommunitySafety_autoscaled.png"",""./rc_img/cop_condGroup_19_SafeStreets_autoscaled.png""]","3","",""
"sliderTrial","html-slider-response","22","252038","0.0-22.0","","656776a7904ae00d6b91d1dd","6568a86b0cbcb4084b2158b2","7","","","","","","","","","","","","2122","[""SV_PolicingMSA/MO_60/IMG_7_60.jpg"",""SV_PolicingMSA/MO_60/IMG_10_60.jpg"",""SV_PolicingMSA/MO_60/IMG_14_60.jpg"",""SV_PolicingMSA/MO_60/IMG_3_60.jpg"",""SV_PolicingMSA/MO_60/IMG_0_60.jpg"",""SV_PolicingMSA/MO_60/IMG_12_60.jpg"",""SV_PolicingMSA/MO_60/IMG_5_60.jpg"",""SV_PolicingMSA/MO_60/IMG_13_60.jpg""]","3","","","","","","4","","4","[""./rc_img/cop_condGroup_13_CommunitySafety_autoscaled.png"",""./rc_img/cop_condGroup_13_SafeStreets_autoscaled.png""]","3","",""
"before_SVSlide_prompt","html-button-response","23","253383","0.0-23.0","","656776a7904ae00d6b91d1dd","6568a86b0cbcb4084b2158b2","7","","","","","","","","","","","","1343","Click [Next] to see the next neighborhood!","0","","","","","","","","","","","",""
"street view slide show","image-button-response","24","254386","0.0-24.0","","656776a7904ae00d6b91d1dd","6568a86b0cbcb4084b2158b2","7","","","","","","","","","","","","null","stimulus/SV_PolicingMSA/MO_1278/IMG_6_1278.jpg","null","","","","","","5","","","","","",""
"street view slide show","image-button-response","25","255392","0.0-25.0","","656776a7904ae00d6b91d1dd","6568a86b0cbcb4084b2158b2","7","","","","","","","","","","","","null","stimulus/SV_PolicingMSA/MO_1278/IMG_0_1278.jpg","null","","","","","","5","","","","","",""
"street view slide show","image-button-response","26","256395","0.0-26.0","","656776a7904ae00d6b91d1dd","6568a86b0cbcb4084b2158b2","7","","","","","","","","","","","","null","stimulus/SV_PolicingMSA/MO_1278/IMG_14_1278.jpg","null","","","","","","5","","","","","",""
"street view slide show","image-button-response","27","257404","0.0-27.0","","656776a7904ae00d6b91d1dd","6568a86b0cbcb4084b2158b2","7","","","","","","","","","","","","null","stimulus/SV_PolicingMSA/MO_1278/IMG_4_1278.jpg","null","","","","","","5","","","","","",""
"street view slide show","image-button-response","28","258409","0.0-28.0","","656776a7904ae00d6b91d1dd","6568a86b0cbcb4084b2158b2","7","","","","","","","","","","","","null","stimulus/SV_PolicingMSA/MO_1278/IMG_9_1278.jpg","null","","","","","","5","","","","","",""
"street view slide show","image-button-response","29","259419","0.0-29.0","","656776a7904ae00d6b91d1dd","6568a86b0cbcb4084b2158b2","7","","","","","","","","","","","","null","stimulus/SV_PolicingMSA/MO_1278/IMG_1_1278.jpg","null","","","","","","5","","","","","",""
"street view slide show","image-button-response","30","260425","0.0-30.0","","656776a7904ae00d6b91d1dd","6568a86b0cbcb4084b2158b2","7","","","","","","","","","","","","null","stimulus/SV_PolicingMSA/MO_1278/IMG_2_1278.jpg","null","","","","","","5","","","","","",""
"street view slide show","image-button-response","31","261481","0.0-31.0","","656776a7904ae00d6b91d1dd","6568a86b0cbcb4084b2158b2","7","","","","","","","","","","","","null","stimulus/SV_PolicingMSA/MO_1278/IMG_12_1278.jpg","null","","","","","","5","","","","","",""
"dot matrix survey1","survey","32","271833","0.0-32.0","","656776a7904ae00d6b91d1dd","6568a86b0cbcb4084b2158b2","7","","","","","","","","","","","","10319","","{""P0_Q0"":null,""P0_Q1"":{""wealthy"":3,""safe"":3,""walkable"":2,""traditional"":3,""diverse"":2}}","","","","","","5","[]","","","","",""
"dot matrix survey2","survey","33","282411","0.0-33.0","","656776a7904ae00d6b91d1dd","6568a86b0cbcb4084b2158b2","7","","","","","","","","","","","","10562","","{""P0_Q0"":null,""P0_Q1"":{""violence"":2,""crime"":3,""drug"":3,""schools"":2,""opportunities"":2}}","","","","","","5","[]","","","","",""
"dot matrix survey3","survey","34","347943","0.0-34.0","","656776a7904ae00d6b91d1dd","6568a86b0cbcb4084b2158b2","7","","","","","","","","","","","","65520","","{""P0_Q0"":null,""P0_Q1"":{""movein"":2,""moveout"":3,""shopping"":2,""walk"":2,""park"":2,""school"":2}}","","","","","","5","[]","","","","",""
"sliderTrial","html-slider-response","35","362358","0.0-35.0","","656776a7904ae00d6b91d1dd","6568a86b0cbcb4084b2158b2","7","","","","","","","","","","","","14411","[""SV_PolicingMSA/MO_1278/IMG_6_1278.jpg"",""SV_PolicingMSA/MO_1278/IMG_0_1278.jpg"",""SV_PolicingMSA/MO_1278/IMG_14_1278.jpg"",""SV_PolicingMSA/MO_1278/IMG_4_1278.jpg"",""SV_PolicingMSA/MO_1278/IMG_9_1278.jpg"",""SV_PolicingMSA/MO_1278/IMG_1_1278.jpg"",""SV_PolicingMSA/MO_1278/IMG_2_1278.jpg"",""SV_PolicingMSA/MO_1278/IMG_12_1278.jpg""]","5","","","","","","5","","4","[""./rc_img/cop_condGroup_1_CommunitySafety_autoscaled.png"",""./rc_img/cop_condGroup_1_SafeStreets_autoscaled.png""]","5","",""
"sliderTrial","html-slider-response","36","369261","0.0-36.0","","656776a7904ae00d6b91d1dd","6568a86b0cbcb4084b2158b2","7","","","","","","","","","","","","6900","[""SV_PolicingMSA/MO_1278/IMG_6_1278.jpg"",""SV_PolicingMSA/MO_1278/IMG_0_1278.jpg"",""SV_PolicingMSA/MO_1278/IMG_14_1278.jpg"",""SV_PolicingMSA/MO_1278/IMG_4_1278.jpg"",""SV_PolicingMSA/MO_1278/IMG_9_1278.jpg"",""SV_PolicingMSA/MO_1278/IMG_1_1278.jpg"",""SV_PolicingMSA/MO_1278/IMG_2_1278.jpg"",""SV_PolicingMSA/MO_1278/IMG_12_1278.jpg""]","6","","","","","","5","","4","[""./rc_img/cop_condGroup_8_SafeStreets_autoscaled.png"",""./rc_img/cop_condGroup_8_CommunitySafety_autoscaled.png""]","2","",""
"sliderTrial","html-slider-response","37","372225","0.0-37.0","","656776a7904ae00d6b91d1dd","6568a86b0cbcb4084b2158b2","7","","","","","","","","","","","","2962","[""SV_PolicingMSA/MO_1278/IMG_6_1278.jpg"",""SV_PolicingMSA/MO_1278/IMG_0_1278.jpg"",""SV_PolicingMSA/MO_1278/IMG_14_1278.jpg"",""SV_PolicingMSA/MO_1278/IMG_4_1278.jpg"",""SV_PolicingMSA/MO_1278/IMG_9_1278.jpg"",""SV_PolicingMSA/MO_1278/IMG_1_1278.jpg"",""SV_PolicingMSA/MO_1278/IMG_2_1278.jpg"",""SV_PolicingMSA/MO_1278/IMG_12_1278.jpg""]","2","","","","","","5","","4","[""./rc_img/cop_condGroup_20_CommunitySafety_autoscaled.png"",""./rc_img/cop_condGroup_20_SafeStreets_autoscaled.png""]","2","",""
"sliderTrial","html-slider-response","38","376235","0.0-38.0","","656776a7904ae00d6b91d1dd","6568a86b0cbcb4084b2158b2","7","","","","","","","","","","","","4007","[""SV_PolicingMSA/MO_1278/IMG_6_1278.jpg"",""SV_PolicingMSA/MO_1278/IMG_0_1278.jpg"",""SV_PolicingMSA/MO_1278/IMG_14_1278.jpg"",""SV_PolicingMSA/MO_1278/IMG_4_1278.jpg"",""SV_PolicingMSA/MO_1278/IMG_9_1278.jpg"",""SV_PolicingMSA/MO_1278/IMG_1_1278.jpg"",""SV_PolicingMSA/MO_1278/IMG_2_1278.jpg"",""SV_PolicingMSA/MO_1278/IMG_12_1278.jpg""]","2","","","","","","5","","4","[""./rc_img/cop_condGroup_12_CommunitySafety_autoscaled.png"",""./rc_img/cop_condGroup_12_SafeStreets_autoscaled.png""]","2","",""
"sliderTrial","html-slider-response","39","385327","0.0-39.0","","656776a7904ae00d6b91d1dd","6568a86b0cbcb4084b2158b2","7","","","","","","","","","","","","9089","[""SV_PolicingMSA/MO_1278/IMG_6_1278.jpg"",""SV_PolicingMSA/MO_1278/IMG_0_1278.jpg"",""SV_PolicingMSA/MO_1278/IMG_14_1278.jpg"",""SV_PolicingMSA/MO_1278/IMG_4_1278.jpg"",""SV_PolicingMSA/MO_1278/IMG_9_1278.jpg"",""SV_PolicingMSA/MO_1278/IMG_1_1278.jpg"",""SV_PolicingMSA/MO_1278/IMG_2_1278.jpg"",""SV_PolicingMSA/MO_1278/IMG_12_1278.jpg""]","2","","","","","","5","","4","[""./rc_img/cop_condGroup_15_CommunitySafety_autoscaled.png"",""./rc_img/cop_condGroup_15_SafeStreets_autoscaled.png""]","2","",""
"before_SVSlide_prompt","html-button-response","40","387602","0.0-40.0","","656776a7904ae00d6b91d1dd","6568a86b0cbcb4084b2158b2","7","","","","","","","","","","","","2274","Click [Next] to see the next neighborhood!","0","","","","","","","","","","","",""
"street view slide show","image-button-response","41","388614","0.0-41.0","","656776a7904ae00d6b91d1dd","6568a86b0cbcb4084b2158b2","7","","","","","","","","","","","","null","stimulus/SV_PolicingMSA/MO_982/IMG_0_982.jpg","null","","","","","","2","","","","","",""
"street view slide show","image-button-response","42","389616","0.0-42.0","","656776a7904ae00d6b91d1dd","6568a86b0cbcb4084b2158b2","7","","","","","","","","","","","","null","stimulus/SV_PolicingMSA/MO_982/IMG_12_982.jpg","null","","","","","","2","","","","","",""
"street view slide show","image-button-response","43","390621","0.0-43.0","","656776a7904ae00d6b91d1dd","6568a86b0cbcb4084b2158b2","7","","","","","","","","","","","","null","stimulus/SV_PolicingMSA/MO_982/IMG_10_982.jpg","null","","","","","","2","","","","","",""
"street view slide show","image-button-response","44","391745","0.0-44.0","","656776a7904ae00d6b91d1dd","6568a86b0cbcb4084b2158b2","7","","","","","","","","","","","","null","stimulus/SV_PolicingMSA/MO_982/IMG_7_982.jpg","null","","","","","","2","","","","","",""
"street view slide show","image-button-response","45","392746","0.0-45.0","","656776a7904ae00d6b91d1dd","6568a86b0cbcb4084b2158b2","7","","","","","","","","","","","","null","stimulus/SV_PolicingMSA/MO_982/IMG_14_982.jpg","null","","","","","","2","","","","","",""
"street view slide show","image-button-response","46","393754","0.0-46.0","","656776a7904ae00d6b91d1dd","6568a86b0cbcb4084b2158b2","7","","","","","","","","","","","","null","stimulus/SV_PolicingMSA/MO_982/IMG_13_982.jpg","null","","","","","","2","","","","","",""
"street view slide show","image-button-response","47","394759","0.0-47.0","","656776a7904ae00d6b91d1dd","6568a86b0cbcb4084b2158b2","7","","","","","","","","","","","","null","stimulus/SV_PolicingMSA/MO_982/IMG_8_982.jpg","null","","","","","","2","","","","","",""
"street view slide show","image-button-response","48","395765","0.0-48.0","","656776a7904ae00d6b91d1dd","6568a86b0cbcb4084b2158b2","7","","","","","","","","","","","","null","stimulus/SV_PolicingMSA/MO_982/IMG_2_982.jpg","null","","","","","","2","","","","","",""
"dot matrix survey1","survey","49","408946","0.0-49.0","","656776a7904ae00d6b91d1dd","6568a86b0cbcb4084b2158b2","7","","","","","","","","","","","","13164","","{""P0_Q0"":null,""P0_Q1"":{""wealthy"":3,""safe"":3,""walkable"":3,""traditional"":2,""diverse"":3}}","","","","","","2","[]","","","","",""
"dot matrix survey2","survey","50","422617","0.0-50.0","","656776a7904ae00d6b91d1dd","6568a86b0cbcb4084b2158b2","7","","","","","","","","","","","","13661","","{""P0_Q0"":null,""P0_Q1"":{""violence"":3,""crime"":2,""drug"":3,""schools"":3,""opportunities"":3}}","","","","","","2","[]","","","","",""
"dot matrix survey3","survey","51","452371","0.0-51.0","","656776a7904ae00d6b91d1dd","6568a86b0cbcb4084b2158b2","7","","","","","","","","","","","","29737","","{""P0_Q0"":null,""P0_Q1"":{""movein"":2,""moveout"":2,""shopping"":2,""walk"":3,""park"":3,""school"":2}}","","","","","","2","[]","","","","",""
"sliderTrial","html-slider-response","52","456434","0.0-52.0","","656776a7904ae00d6b91d1dd","6568a86b0cbcb4084b2158b2","7","","","","","","","","","","","","4060","[""SV_PolicingMSA/MO_982/IMG_0_982.jpg"",""SV_PolicingMSA/MO_982/IMG_12_982.jpg"",""SV_PolicingMSA/MO_982/IMG_10_982.jpg"",""SV_PolicingMSA/MO_982/IMG_7_982.jpg"",""SV_PolicingMSA/MO_982/IMG_14_982.jpg"",""SV_PolicingMSA/MO_982/IMG_13_982.jpg"",""SV_PolicingMSA/MO_982/IMG_8_982.jpg"",""SV_PolicingMSA/MO_982/IMG_2_982.jpg""]","6","","","","","","2","","4","[""./rc_img/cop_condGroup_2_SafeStreets_autoscaled.png"",""./rc_img/cop_condGroup_2_CommunitySafety_autoscaled.png""]","2","",""
"sliderTrial","html-slider-response","53","459017","0.0-53.0","","656776a7904ae00d6b91d1dd","6568a86b0cbcb4084b2158b2","7","","","","","","","","","","","","2580","[""SV_PolicingMSA/MO_982/IMG_0_982.jpg"",""SV_PolicingMSA/MO_982/IMG_12_982.jpg"",""SV_PolicingMSA/MO_982/IMG_10_982.jpg"",""SV_PolicingMSA/MO_982/IMG_7_982.jpg"",""SV_PolicingMSA/MO_982/IMG_14_982.jpg"",""SV_PolicingMSA/MO_982/IMG_13_982.jpg"",""SV_PolicingMSA/MO_982/IMG_8_982.jpg"",""SV_PolicingMSA/MO_982/IMG_2_982.jpg""]","6","","","","","","2","","4","[""./rc_img/cop_condGroup_14_SafeStreets_autoscaled.png"",""./rc_img/cop_condGroup_14_CommunitySafety_autoscaled.png""]","2","",""
"sliderTrial","html-slider-response","54","464742","0.0-54.0","","656776a7904ae00d6b91d1dd","6568a86b0cbcb4084b2158b2","7","","","","","","","","","","","","5722","[""SV_PolicingMSA/MO_982/IMG_0_982.jpg"",""SV_PolicingMSA/MO_982/IMG_12_982.jpg"",""SV_PolicingMSA/MO_982/IMG_10_982.jpg"",""SV_PolicingMSA/MO_982/IMG_7_982.jpg"",""SV_PolicingMSA/MO_982/IMG_14_982.jpg"",""SV_PolicingMSA/MO_982/IMG_13_982.jpg"",""SV_PolicingMSA/MO_982/IMG_8_982.jpg"",""SV_PolicingMSA/MO_982/IMG_2_982.jpg""]","1","","","","","","2","","4","[""./rc_img/cop_condGroup_18_CommunitySafety_autoscaled.png"",""./rc_img/cop_condGroup_18_SafeStreets_autoscaled.png""]","1","",""
"sliderTrial","html-slider-response","55","468386","0.0-55.0","","656776a7904ae00d6b91d1dd","6568a86b0cbcb4084b2158b2","7","","","","","","","","","","","","3642","[""SV_PolicingMSA/MO_982/IMG_0_982.jpg"",""SV_PolicingMSA/MO_982/IMG_12_982.jpg"",""SV_PolicingMSA/MO_982/IMG_10_982.jpg"",""SV_PolicingMSA/MO_982/IMG_7_982.jpg"",""SV_PolicingMSA/MO_982/IMG_14_982.jpg"",""SV_PolicingMSA/MO_982/IMG_13_982.jpg"",""SV_PolicingMSA/MO_982/IMG_8_982.jpg"",""SV_PolicingMSA/MO_982/IMG_2_982.jpg""]","3","","","","","","2","","4","[""./rc_img/cop_condGroup_19_CommunitySafety_autoscaled.png"",""./rc_img/cop_condGroup_19_SafeStreets_autoscaled.png""]","3","",""
"sliderTrial","html-slider-response","56","470849","0.0-56.0","","656776a7904ae00d6b91d1dd","6568a86b0cbcb4084b2158b2","7","","","","","","","","","","","","2460","[""SV_PolicingMSA/MO_982/IMG_0_982.jpg"",""SV_PolicingMSA/MO_982/IMG_12_982.jpg"",""SV_PolicingMSA/MO_982/IMG_10_982.jpg"",""SV_PolicingMSA/MO_982/IMG_7_982.jpg"",""SV_PolicingMSA/MO_982/IMG_14_982.jpg"",""SV_PolicingMSA/MO_982/IMG_13_982.jpg"",""SV_PolicingMSA/MO_982/IMG_8_982.jpg"",""SV_PolicingMSA/MO_982/IMG_2_982.jpg""]","2","","","","","","2","","4","[""./rc_img/cop_condGroup_13_CommunitySafety_autoscaled.png"",""./rc_img/cop_condGroup_13_SafeStreets_autoscaled.png""]","2","",""
"before_SVSlide_prompt","html-button-response","57","472212","0.0-57.0","","656776a7904ae00d6b91d1dd","6568a86b0cbcb4084b2158b2","7","","","","","","","","","","","","1362","Click [Next] to see the next neighborhood!","0","","","","","","","","","","","",""
"street view slide show","image-button-response","58","473214","0.0-58.0","","656776a7904ae00d6b91d1dd","6568a86b0cbcb4084b2158b2","7","","","","","","","","","","","","null","stimulus/SV_PolicingMSA/MO_1004/IMG_5_1004.jpg","null","","","","","","1","","","","","",""
"street view slide show","image-button-response","59","474218","0.0-59.0","","656776a7904ae00d6b91d1dd","6568a86b0cbcb4084b2158b2","7","","","","","","","","","","","","null","stimulus/SV_PolicingMSA/MO_1004/IMG_3_1004.jpg","null","","","","","","1","","","","","",""
"street view slide show","image-button-response","60","475225","0.0-60.0","","656776a7904ae00d6b91d1dd","6568a86b0cbcb4084b2158b2","7","","","","","","","","","","","","null","stimulus/SV_PolicingMSA/MO_1004/IMG_0_1004.jpg","null","","","","","","1","","","","","",""
"street view slide show","image-button-response","61","476227","0.0-61.0","","656776a7904ae00d6b91d1dd","6568a86b0cbcb4084b2158b2","7","","","","","","","","","","","","null","stimulus/SV_PolicingMSA/MO_1004/IMG_14_1004.jpg","null","","","","","","1","","","","","",""
"street view slide show","image-button-response","62","477230","0.0-62.0","","656776a7904ae00d6b91d1dd","6568a86b0cbcb4084b2158b2","7","","","","","","","","","","","","null","stimulus/SV_PolicingMSA/MO_1004/IMG_6_1004.jpg","null","","","","","","1","","","","","",""
"street view slide show","image-button-response","63","478234","0.0-63.0","","656776a7904ae00d6b91d1dd","6568a86b0cbcb4084b2158b2","7","","","","","","","","","","","","null","stimulus/SV_PolicingMSA/MO_1004/IMG_9_1004.jpg","null","","","","","","1","","","","","",""
"street view slide show","image-button-response","64","479237","0.0-64.0","","656776a7904ae00d6b91d1dd","6568a86b0cbcb4084b2158b2","7","","","","","","","","","","","","null","stimulus/SV_PolicingMSA/MO_1004/IMG_12_1004.jpg","null","","","","","","1","","","","","",""
"street view slide show","image-button-response","65","480247","0.0-65.0","","656776a7904ae00d6b91d1dd","6568a86b0cbcb4084b2158b2","7","","","","","","","","","","","","null","stimulus/SV_PolicingMSA/MO_1004/IMG_1_1004.jpg","null","","","","","","1","","","","","",""
"dot matrix survey1","survey","66","492546","0.0-66.0","","656776a7904ae00d6b91d1dd","6568a86b0cbcb4084b2158b2","7","","","","","","","","","","","","12284","","{""P0_Q0"":null,""P0_Q1"":{""wealthy"":2,""safe"":2,""walkable"":3,""traditional"":3,""diverse"":1}}","","","","","","1","[]","","","","",""
"dot matrix survey2","survey","67","503698","0.0-67.0","","656776a7904ae00d6b91d1dd","6568a86b0cbcb4084b2158b2","7","","","","","","","","","","","","11142","","{""P0_Q0"":null,""P0_Q1"":{""violence"":3,""crime"":3,""drug"":3,""schools"":1,""opportunities"":2}}","","","","","","1","[]","","","","",""
"dot matrix survey3","survey","68","515047","0.0-68.0","","656776a7904ae00d6b91d1dd","6568a86b0cbcb4084b2158b2","7","","","","","","","","","","","","11338","","{""P0_Q0"":null,""P0_Q1"":{""movein"":1,""moveout"":4,""shopping"":1,""walk"":1,""park"":1,""school"":0}}","","","","","","1","[]","","","","",""
"sliderTrial","html-slider-response","69","603785","0.0-69.0","","656776a7904ae00d6b91d1dd","6568a86b0cbcb4084b2158b2","7","","","","","","","","","","","","88735","[""SV_PolicingMSA/MO_1004/IMG_5_1004.jpg"",""SV_PolicingMSA/MO_1004/IMG_3_1004.jpg"",""SV_PolicingMSA/MO_1004/IMG_0_1004.jpg"",""SV_PolicingMSA/MO_1004/IMG_14_1004.jpg"",""SV_PolicingMSA/MO_1004/IMG_6_1004.jpg"",""SV_PolicingMSA/MO_1004/IMG_9_1004.jpg"",""SV_PolicingMSA/MO_1004/IMG_12_1004.jpg"",""SV_PolicingMSA/MO_1004/IMG_1_1004.jpg""]","1","","","","","","1","","4","[""./rc_img/cop_condGroup_3_CommunitySafety_autoscaled.png"",""./rc_img/cop_condGroup_3_SafeStreets_autoscaled.png""]","1","",""
"sliderTrial_attention","html-slider-response","70","613801","0.0-70.0","","656776a7904ae00d6b91d1dd","6568a86b0cbcb4084b2158b2","7","","","","","","","","","","","","null","[""SV_PolicingMSA/MO_1004/IMG_5_1004.jpg"",""SV_PolicingMSA/MO_1004/IMG_3_1004.jpg"",""SV_PolicingMSA/MO_1004/IMG_0_1004.jpg"",""SV_PolicingMSA/MO_1004/IMG_14_1004.jpg"",""SV_PolicingMSA/MO_1004/IMG_6_1004.jpg"",""SV_PolicingMSA/MO_1004/IMG_9_1004.jpg"",""SV_PolicingMSA/MO_1004/IMG_12_1004.jpg"",""SV_PolicingMSA/MO_1004/IMG_1_1004.jpg""]","null","","","","","","1","","4","[""./assets/img/attnchk.png"",""./assets/img/attnchk.png""]","","true",""
"sliderTrial","html-slider-response","71","618100","0.0-71.0","","656776a7904ae00d6b91d1dd","6568a86b0cbcb4084b2158b2","7","","","","","","","","","","","","4257","[""SV_PolicingMSA/MO_1004/IMG_5_1004.jpg"",""SV_PolicingMSA/MO_1004/IMG_3_1004.jpg"",""SV_PolicingMSA/MO_1004/IMG_0_1004.jpg"",""SV_PolicingMSA/MO_1004/IMG_14_1004.jpg"",""SV_PolicingMSA/MO_1004/IMG_6_1004.jpg"",""SV_PolicingMSA/MO_1004/IMG_9_1004.jpg"",""SV_PolicingMSA/MO_1004/IMG_12_1004.jpg"",""SV_PolicingMSA/MO_1004/IMG_1_1004.jpg""]","1","","","","","","1","","4","[""./rc_img/cop_condGroup_11_CommunitySafety_autoscaled.png"",""./rc_img/cop_condGroup_11_SafeStreets_autoscaled.png""]","1","",""
"sliderTrial","html-slider-response","72","620980","0.0-72.0","","656776a7904ae00d6b91d1dd","6568a86b0cbcb4084b2158b2","7","","","","","","","","","","","","2877","[""SV_PolicingMSA/MO_1004/IMG_5_1004.jpg"",""SV_PolicingMSA/MO_1004/IMG_3_1004.jpg"",""SV_PolicingMSA/MO_1004/IMG_0_1004.jpg"",""SV_PolicingMSA/MO_1004/IMG_14_1004.jpg"",""SV_PolicingMSA/MO_1004/IMG_6_1004.jpg"",""SV_PolicingMSA/MO_1004/IMG_9_1004.jpg"",""SV_PolicingMSA/MO_1004/IMG_12_1004.jpg"",""SV_PolicingMSA/MO_1004/IMG_1_1004.jpg""]","2","","","","","","1","","4","[""./rc_img/cop_condGroup_16_CommunitySafety_autoscaled.png"",""./rc_img/cop_condGroup_16_SafeStreets_autoscaled.png""]","2","",""
"sliderTrial","html-slider-response","73","623474","0.0-73.0","","656776a7904ae00d6b91d1dd","6568a86b0cbcb4084b2158b2","7","","","","","","","","","","","","2492","[""SV_PolicingMSA/MO_1004/IMG_5_1004.jpg"",""SV_PolicingMSA/MO_1004/IMG_3_1004.jpg"",""SV_PolicingMSA/MO_1004/IMG_0_1004.jpg"",""SV_PolicingMSA/MO_1004/IMG_14_1004.jpg"",""SV_PolicingMSA/MO_1004/IMG_6_1004.jpg"",""SV_PolicingMSA/MO_1004/IMG_9_1004.jpg"",""SV_PolicingMSA/MO_1004/IMG_12_1004.jpg"",""SV_PolicingMSA/MO_1004/IMG_1_1004.jpg""]","2","","","","","","1","","4","[""./rc_img/cop_condGroup_7_CommunitySafety_autoscaled.png"",""./rc_img/cop_condGroup_7_SafeStreets_autoscaled.png""]","2","",""
"sliderTrial","html-slider-response","74","626171","0.0-74.0","","656776a7904ae00d6b91d1dd","6568a86b0cbcb4084b2158b2","7","","","","","","","","","","","","2694","[""SV_PolicingMSA/MO_1004/IMG_5_1004.jpg"",""SV_PolicingMSA/MO_1004/IMG_3_1004.jpg"",""SV_PolicingMSA/MO_1004/IMG_0_1004.jpg"",""SV_PolicingMSA/MO_1004/IMG_14_1004.jpg"",""SV_PolicingMSA/MO_1004/IMG_6_1004.jpg"",""SV_PolicingMSA/MO_1004/IMG_9_1004.jpg"",""SV_PolicingMSA/MO_1004/IMG_12_1004.jpg"",""SV_PolicingMSA/MO_1004/IMG_1_1004.jpg""]","6","","","","","","1","","4","[""./rc_img/cop_condGroup_9_SafeStreets_autoscaled.png"",""./rc_img/cop_condGroup_9_CommunitySafety_autoscaled.png""]","2","",""
"half-way","html-button-response","75","632115","0.0-75.0","","656776a7904ae00d6b91d1dd","6568a86b0cbcb4084b2158b2","7","","","","","","","","","","","","5942","
    <h3>You are now half way through the study.</h3>
    <p>Please take a quick, 15-second break before you continue.</p>
    <img src='assets/img/countdown-15.gif'>
    <p>The study will automatically advance forward after the countdown is complete. <br> However, you may click ""Next"" to advance forward now if you wish.</p>
    ","0","","","","","","","","","","","",""
"before_SVSlide_prompt","html-button-response","76","635808","0.0-76.0","","656776a7904ae00d6b91d1dd","6568a86b0cbcb4084b2158b2","7","","","","","","","","","","","","3692","Click [Next] to see the next neighborhood!","0","","","","","","","","","","","",""
"street view slide show","image-button-response","77","636824","0.0-77.0","","656776a7904ae00d6b91d1dd","6568a86b0cbcb4084b2158b2","7","","","","","","","","","","","","null","stimulus/SV_PolicingMSA/MO_1289/IMG_7_1289.jpg","null","","","","","","3","","","","","",""
"street view slide show","image-button-response","78","637828","0.0-78.0","","656776a7904ae00d6b91d1dd","6568a86b0cbcb4084b2158b2","7","","","","","","","","","","","","null","stimulus/SV_PolicingMSA/MO_1289/IMG_11_1289.jpg","null","","","","","","3","","","","","",""
"street view slide show","image-button-response","79","638840","0.0-79.0","","656776a7904ae00d6b91d1dd","6568a86b0cbcb4084b2158b2","7","","","","","","","","","","","","null","stimulus/SV_PolicingMSA/MO_1289/IMG_5_1289.jpg","null","","","","","","3","","","","","",""
"street view slide show","image-button-response","80","639843","0.0-80.0","","656776a7904ae00d6b91d1dd","6568a86b0cbcb4084b2158b2","7","","","","","","","","","","","","null","stimulus/SV_PolicingMSA/MO_1289/IMG_4_1289.jpg","null","","","","","","3","","","","","",""
"street view slide show","image-button-response","81","640847","0.0-81.0","","656776a7904ae00d6b91d1dd","6568a86b0cbcb4084b2158b2","7","","","","","","","","","","","","null","stimulus/SV_PolicingMSA/MO_1289/IMG_6_1289.jpg","null","","","","","","3","","","","","",""
"street view slide show","image-button-response","82","641851","0.0-82.0","","656776a7904ae00d6b91d1dd","6568a86b0cbcb4084b2158b2","7","","","","","","","","","","","","null","stimulus/SV_PolicingMSA/MO_1289/IMG_3_1289.jpg","null","","","","","","3","","","","","",""
"street view slide show","image-button-response","83","642854","0.0-83.0","","656776a7904ae00d6b91d1dd","6568a86b0cbcb4084b2158b2","7","","","","","","","","","","","","null","stimulus/SV_PolicingMSA/MO_1289/IMG_1_1289.jpg","null","","","","","","3","","","","","",""
"street view slide show","image-button-response","84","643870","0.0-84.0","","656776a7904ae00d6b91d1dd","6568a86b0cbcb4084b2158b2","7","","","","","","","","","","","","null","stimulus/SV_PolicingMSA/MO_1289/IMG_8_1289.jpg","null","","","","","","3","","","","","",""
"dot matrix survey1","survey","85","681457","0.0-85.0","","656776a7904ae00d6b91d1dd","6568a86b0cbcb4084b2158b2","7","","","","","","","","","","","","37568","","{""P0_Q0"":null,""P0_Q1"":{""wealthy"":3,""safe"":4,""walkable"":2,""traditional"":4,""diverse"":1}}","","","","","","3","[]","","","","",""
"dot matrix survey2","survey","86","738445","0.0-86.0","","656776a7904ae00d6b91d1dd","6568a86b0cbcb4084b2158b2","7","","","","","","","","","","","","56974","","{""P0_Q0"":null,""P0_Q1"":{""violence"":2,""crime"":2,""drug"":2,""schools"":3,""opportunities"":3}}","","","","","","3","[]","","","","",""
"dot matrix survey3","survey","87","760644","0.0-87.0","","656776a7904ae00d6b91d1dd","6568a86b0cbcb4084b2158b2","7","","","","","","","","","","","","22179","","{""P0_Q0"":null,""P0_Q1"":{""movein"":3,""moveout"":1,""shopping"":4,""walk"":3,""park"":3,""school"":3}}","","","","","","3","[]","","","","",""
"sliderTrial","html-slider-response","88","764785","0.0-88.0","","656776a7904ae00d6b91d1dd","6568a86b0cbcb4084b2158b2","7","","","","","","","","","","","","4138","[""SV_PolicingMSA/MO_1289/IMG_7_1289.jpg"",""SV_PolicingMSA/MO_1289/IMG_11_1289.jpg"",""SV_PolicingMSA/MO_1289/IMG_5_1289.jpg"",""SV_PolicingMSA/MO_1289/IMG_4_1289.jpg"",""SV_PolicingMSA/MO_1289/IMG_6_1289.jpg"",""SV_PolicingMSA/MO_1289/IMG_3_1289.jpg"",""SV_PolicingMSA/MO_1289/IMG_1_1289.jpg"",""SV_PolicingMSA/MO_1289/IMG_8_1289.jpg""]","1","","","","","","3","","4","[""./rc_img/cop_condGroup_3_CommunitySafety_autoscaled.png"",""./rc_img/cop_condGroup_3_SafeStreets_autoscaled.png""]","1","",""
"sliderTrial","html-slider-response","89","767022","0.0-89.0","","656776a7904ae00d6b91d1dd","6568a86b0cbcb4084b2158b2","7","","","","","","","","","","","","2234","[""SV_PolicingMSA/MO_1289/IMG_7_1289.jpg"",""SV_PolicingMSA/MO_1289/IMG_11_1289.jpg"",""SV_PolicingMSA/MO_1289/IMG_5_1289.jpg"",""SV_PolicingMSA/MO_1289/IMG_4_1289.jpg"",""SV_PolicingMSA/MO_1289/IMG_6_1289.jpg"",""SV_PolicingMSA/MO_1289/IMG_3_1289.jpg"",""SV_PolicingMSA/MO_1289/IMG_1_1289.jpg"",""SV_PolicingMSA/MO_1289/IMG_8_1289.jpg""]","1","","","","","","3","","4","[""./rc_img/cop_condGroup_11_CommunitySafety_autoscaled.png"",""./rc_img/cop_condGroup_11_SafeStreets_autoscaled.png""]","1","",""
"sliderTrial","html-slider-response","90","769561","0.0-90.0","","656776a7904ae00d6b91d1dd","6568a86b0cbcb4084b2158b2","7","","","","","","","","","","","","2536","[""SV_PolicingMSA/MO_1289/IMG_7_1289.jpg"",""SV_PolicingMSA/MO_1289/IMG_11_1289.jpg"",""SV_PolicingMSA/MO_1289/IMG_5_1289.jpg"",""SV_PolicingMSA/MO_1289/IMG_4_1289.jpg"",""SV_PolicingMSA/MO_1289/IMG_6_1289.jpg"",""SV_PolicingMSA/MO_1289/IMG_3_1289.jpg"",""SV_PolicingMSA/MO_1289/IMG_1_1289.jpg"",""SV_PolicingMSA/MO_1289/IMG_8_1289.jpg""]","1","","","","","","3","","4","[""./rc_img/cop_condGroup_16_CommunitySafety_autoscaled.png"",""./rc_img/cop_condGroup_16_SafeStreets_autoscaled.png""]","1","",""
"sliderTrial","html-slider-response","91","771415","0.0-91.0","","656776a7904ae00d6b91d1dd","6568a86b0cbcb4084b2158b2","7","","","","","","","","","","","","1851","[""SV_PolicingMSA/MO_1289/IMG_7_1289.jpg"",""SV_PolicingMSA/MO_1289/IMG_11_1289.jpg"",""SV_PolicingMSA/MO_1289/IMG_5_1289.jpg"",""SV_PolicingMSA/MO_1289/IMG_4_1289.jpg"",""SV_PolicingMSA/MO_1289/IMG_6_1289.jpg"",""SV_PolicingMSA/MO_1289/IMG_3_1289.jpg"",""SV_PolicingMSA/MO_1289/IMG_1_1289.jpg"",""SV_PolicingMSA/MO_1289/IMG_8_1289.jpg""]","1","","","","","","3","","4","[""./rc_img/cop_condGroup_7_CommunitySafety_autoscaled.png"",""./rc_img/cop_condGroup_7_SafeStreets_autoscaled.png""]","1","",""
"sliderTrial","html-slider-response","92","773448","0.0-92.0","","656776a7904ae00d6b91d1dd","6568a86b0cbcb4084b2158b2","7","","","","","","","","","","","","2031","[""SV_PolicingMSA/MO_1289/IMG_7_1289.jpg"",""SV_PolicingMSA/MO_1289/IMG_11_1289.jpg"",""SV_PolicingMSA/MO_1289/IMG_5_1289.jpg"",""SV_PolicingMSA/MO_1289/IMG_4_1289.jpg"",""SV_PolicingMSA/MO_1289/IMG_6_1289.jpg"",""SV_PolicingMSA/MO_1289/IMG_3_1289.jpg"",""SV_PolicingMSA/MO_1289/IMG_1_1289.jpg"",""SV_PolicingMSA/MO_1289/IMG_8_1289.jpg""]","7","","","","","","3","","4","[""./rc_img/cop_condGroup_9_SafeStreets_autoscaled.png"",""./rc_img/cop_condGroup_9_CommunitySafety_autoscaled.png""]","1","",""
"before_SVSlide_prompt","html-button-response","93","774942","0.0-93.0","","656776a7904ae00d6b91d1dd","6568a86b0cbcb4084b2158b2","7","","","","","","","","","","","","1492","Click [Next] to see the next neighborhood!","0","","","","","","","","","","","",""
"street view slide show","image-button-response","94","775956","0.0-94.0","","656776a7904ae00d6b91d1dd","6568a86b0cbcb4084b2158b2","7","","","","","","","","","","","","null","stimulus/SV_PolicingMSA/MO_1031/IMG_13_1031.jpg","null","","","","","","0","","","","","",""
"street view slide show","image-button-response","95","776958","0.0-95.0","","656776a7904ae00d6b91d1dd","6568a86b0cbcb4084b2158b2","7","","","","","","","","","","","","null","stimulus/SV_PolicingMSA/MO_1031/IMG_9_1031.jpg","null","","","","","","0","","","","","",""
"street view slide show","image-button-response","96","777961","0.0-96.0","","656776a7904ae00d6b91d1dd","6568a86b0cbcb4084b2158b2","7","","","","","","","","","","","","null","stimulus/SV_PolicingMSA/MO_1031/IMG_12_1031.jpg","null","","","","","","0","","","","","",""
"street view slide show","image-button-response","97","778965","0.0-97.0","","656776a7904ae00d6b91d1dd","6568a86b0cbcb4084b2158b2","7","","","","","","","","","","","","null","stimulus/SV_PolicingMSA/MO_1031/IMG_11_1031.jpg","null","","","","","","0","","","","","",""
"street view slide show","image-button-response","98","779978","0.0-98.0","","656776a7904ae00d6b91d1dd","6568a86b0cbcb4084b2158b2","7","","","","","","","","","","","","null","stimulus/SV_PolicingMSA/MO_1031/IMG_7_1031.jpg","null","","","","","","0","","","","","",""
"street view slide show","image-button-response","99","780988","0.0-99.0","","656776a7904ae00d6b91d1dd","6568a86b0cbcb4084b2158b2","7","","","","","","","","","","","","null","stimulus/SV_PolicingMSA/MO_1031/IMG_0_1031.jpg","null","","","","","","0","","","","","",""
"street view slide show","image-button-response","100","781996","0.0-100.0","","656776a7904ae00d6b91d1dd","6568a86b0cbcb4084b2158b2","7","","","","","","","","","","","","null","stimulus/SV_PolicingMSA/MO_1031/IMG_3_1031.jpg","null","","","","","","0","","","","","",""
"street view slide show","image-button-response","101","783010","0.0-101.0","","656776a7904ae00d6b91d1dd","6568a86b0cbcb4084b2158b2","7","","","","","","","","","","","","null","stimulus/SV_PolicingMSA/MO_1031/IMG_2_1031.jpg","null","","","","","","0","","","","","",""
"dot matrix survey1","survey","102","796202","0.0-102.0","","656776a7904ae00d6b91d1dd","6568a86b0cbcb4084b2158b2","7","","","","","","","","","","","","13154","","{""P0_Q0"":null,""P0_Q1"":{""wealthy"":2,""safe"":3,""walkable"":0,""traditional"":4,""diverse"":1}}","","","","","","0","[]","","","","",""
"dot matrix survey2","survey","103","804726","0.0-103.0","","656776a7904ae00d6b91d1dd","6568a86b0cbcb4084b2158b2","7","","","","","","","","","","","","8512","","{""P0_Q0"":null,""P0_Q1"":{""violence"":2,""crime"":2,""drug"":2,""schools"":1,""opportunities"":1}}","","","","","","0","[]","","","","",""
"dot matrix survey3","survey","104","858189","0.0-104.0","","656776a7904ae00d6b91d1dd","6568a86b0cbcb4084b2158b2","7","","","","","","","","","","","","53453","","{""P0_Q0"":null,""P0_Q1"":{""movein"":1,""moveout"":4,""shopping"":1,""walk"":2,""park"":1,""school"":2}}","","","","","","0","[]","","","","",""
"sliderTrial","html-slider-response","105","860942","0.0-105.0","","656776a7904ae00d6b91d1dd","6568a86b0cbcb4084b2158b2","7","","","","","","","","","","","","2750","[""SV_PolicingMSA/MO_1031/IMG_13_1031.jpg"",""SV_PolicingMSA/MO_1031/IMG_9_1031.jpg"",""SV_PolicingMSA/MO_1031/IMG_12_1031.jpg"",""SV_PolicingMSA/MO_1031/IMG_11_1031.jpg"",""SV_PolicingMSA/MO_1031/IMG_7_1031.jpg"",""SV_PolicingMSA/MO_1031/IMG_0_1031.jpg"",""SV_PolicingMSA/MO_1031/IMG_3_1031.jpg"",""SV_PolicingMSA/MO_1031/IMG_2_1031.jpg""]","7","","","","","","0","","4","[""./rc_img/cop_condGroup_17_SafeStreets_autoscaled.png"",""./rc_img/cop_condGroup_17_CommunitySafety_autoscaled.png""]","1","",""
"sliderTrial_attention","html-slider-response","106","870959","0.0-106.0","","656776a7904ae00d6b91d1dd","6568a86b0cbcb4084b2158b2","7","","","","","","","","","","","","null","[""SV_PolicingMSA/MO_1031/IMG_13_1031.jpg"",""SV_PolicingMSA/MO_1031/IMG_9_1031.jpg"",""SV_PolicingMSA/MO_1031/IMG_12_1031.jpg"",""SV_PolicingMSA/MO_1031/IMG_11_1031.jpg"",""SV_PolicingMSA/MO_1031/IMG_7_1031.jpg"",""SV_PolicingMSA/MO_1031/IMG_0_1031.jpg"",""SV_PolicingMSA/MO_1031/IMG_3_1031.jpg"",""SV_PolicingMSA/MO_1031/IMG_2_1031.jpg""]","null","","","","","","0","","4","[""./assets/img/attnchk.png"",""./assets/img/attnchk.png""]","","true",""
"sliderTrial","html-slider-response","107","875776","0.0-107.0","","656776a7904ae00d6b91d1dd","6568a86b0cbcb4084b2158b2","7","","","","","","","","","","","","4810","[""SV_PolicingMSA/MO_1031/IMG_13_1031.jpg"",""SV_PolicingMSA/MO_1031/IMG_9_1031.jpg"",""SV_PolicingMSA/MO_1031/IMG_12_1031.jpg"",""SV_PolicingMSA/MO_1031/IMG_11_1031.jpg"",""SV_PolicingMSA/MO_1031/IMG_7_1031.jpg"",""SV_PolicingMSA/MO_1031/IMG_0_1031.jpg"",""SV_PolicingMSA/MO_1031/IMG_3_1031.jpg"",""SV_PolicingMSA/MO_1031/IMG_2_1031.jpg""]","1","","","","","","0","","4","[""./rc_img/cop_condGroup_5_CommunitySafety_autoscaled.png"",""./rc_img/cop_condGroup_5_SafeStreets_autoscaled.png""]","1","",""
"sliderTrial","html-slider-response","108","878977","0.0-108.0","","656776a7904ae00d6b91d1dd","6568a86b0cbcb4084b2158b2","7","","","","","","","","","","","","3199","[""SV_PolicingMSA/MO_1031/IMG_13_1031.jpg"",""SV_PolicingMSA/MO_1031/IMG_9_1031.jpg"",""SV_PolicingMSA/MO_1031/IMG_12_1031.jpg"",""SV_PolicingMSA/MO_1031/IMG_11_1031.jpg"",""SV_PolicingMSA/MO_1031/IMG_7_1031.jpg"",""SV_PolicingMSA/MO_1031/IMG_0_1031.jpg"",""SV_PolicingMSA/MO_1031/IMG_3_1031.jpg"",""SV_PolicingMSA/MO_1031/IMG_2_1031.jpg""]","1","","","","","","0","","4","[""./rc_img/cop_condGroup_4_CommunitySafety_autoscaled.png"",""./rc_img/cop_condGroup_4_SafeStreets_autoscaled.png""]","1","",""
"sliderTrial","html-slider-response","109","882447","0.0-109.0","","656776a7904ae00d6b91d1dd","6568a86b0cbcb4084b2158b2","7","","","","","","","","","","","","3467","[""SV_PolicingMSA/MO_1031/IMG_13_1031.jpg"",""SV_PolicingMSA/MO_1031/IMG_9_1031.jpg"",""SV_PolicingMSA/MO_1031/IMG_12_1031.jpg"",""SV_PolicingMSA/MO_1031/IMG_11_1031.jpg"",""SV_PolicingMSA/MO_1031/IMG_7_1031.jpg"",""SV_PolicingMSA/MO_1031/IMG_0_1031.jpg"",""SV_PolicingMSA/MO_1031/IMG_3_1031.jpg"",""SV_PolicingMSA/MO_1031/IMG_2_1031.jpg""]","1","","","","","","0","","4","[""./rc_img/cop_condGroup_10_CommunitySafety_autoscaled.png"",""./rc_img/cop_condGroup_10_SafeStreets_autoscaled.png""]","1","",""
"sliderTrial","html-slider-response","110","884316","0.0-110.0","","656776a7904ae00d6b91d1dd","6568a86b0cbcb4084b2158b2","7","","","","","","","","","","","","1865","[""SV_PolicingMSA/MO_1031/IMG_13_1031.jpg"",""SV_PolicingMSA/MO_1031/IMG_9_1031.jpg"",""SV_PolicingMSA/MO_1031/IMG_12_1031.jpg"",""SV_PolicingMSA/MO_1031/IMG_11_1031.jpg"",""SV_PolicingMSA/MO_1031/IMG_7_1031.jpg"",""SV_PolicingMSA/MO_1031/IMG_0_1031.jpg"",""SV_PolicingMSA/MO_1031/IMG_3_1031.jpg"",""SV_PolicingMSA/MO_1031/IMG_2_1031.jpg""]","2","","","","","","0","","4","[""./rc_img/cop_condGroup_6_CommunitySafety_autoscaled.png"",""./rc_img/cop_condGroup_6_SafeStreets_autoscaled.png""]","2","",""
"before_SVSlide_prompt","html-button-response","111","885564","0.0-111.0","","656776a7904ae00d6b91d1dd","6568a86b0cbcb4084b2158b2","7","","","","","","","","","","","","1246","Click [Next] to see the next neighborhood!","0","","","","","","","","","","","",""
"street view slide show","image-button-response","112","886568","0.0-112.0","","656776a7904ae00d6b91d1dd","6568a86b0cbcb4084b2158b2","7","","","","","","","","","","","","null","stimulus/SV_PolicingMSA/MO_589/IMG_13_589.jpg","null","","","","","","2","","","","","",""
"street view slide show","image-button-response","113","887583","0.0-113.0","","656776a7904ae00d6b91d1dd","6568a86b0cbcb4084b2158b2","7","","","","","","","","","","","","null","stimulus/SV_PolicingMSA/MO_589/IMG_8_589.jpg","null","","","","","","2","","","","","",""
"street view slide show","image-button-response","114","888589","0.0-114.0","","656776a7904ae00d6b91d1dd","6568a86b0cbcb4084b2158b2","7","","","","","","","","","","","","null","stimulus/SV_PolicingMSA/MO_589/IMG_4_589.jpg","null","","","","","","2","","","","","",""
"street view slide show","image-button-response","115","889594","0.0-115.0","","656776a7904ae00d6b91d1dd","6568a86b0cbcb4084b2158b2","7","","","","","","","","","","","","null","stimulus/SV_PolicingMSA/MO_589/IMG_1_589.jpg","null","","","","","","2","","","","","",""
"street view slide show","image-button-response","116","890600","0.0-116.0","","656776a7904ae00d6b91d1dd","6568a86b0cbcb4084b2158b2","7","","","","","","","","","","","","null","stimulus/SV_PolicingMSA/MO_589/IMG_10_589.jpg","null","","","","","","2","","","","","",""
"street view slide show","image-button-response","117","891617","0.0-117.0","","656776a7904ae00d6b91d1dd","6568a86b0cbcb4084b2158b2","7","","","","","","","","","","","","null","stimulus/SV_PolicingMSA/MO_589/IMG_9_589.jpg","null","","","","","","2","","","","","",""
"street view slide show","image-button-response","118","892627","0.0-118.0","","656776a7904ae00d6b91d1dd","6568a86b0cbcb4084b2158b2","7","","","","","","","","","","","","null","stimulus/SV_PolicingMSA/MO_589/IMG_0_589.jpg","null","","","","","","2","","","","","",""
"street view slide show","image-button-response","119","893637","0.0-119.0","","656776a7904ae00d6b91d1dd","6568a86b0cbcb4084b2158b2","7","","","","","","","","","","","","null","stimulus/SV_PolicingMSA/MO_589/IMG_12_589.jpg","null","","","","","","2","","","","","",""
"dot matrix survey1","survey","120","924823","0.0-120.0","","656776a7904ae00d6b91d1dd","6568a86b0cbcb4084b2158b2","7","","","","","","","","","","","","31143","","{""P0_Q0"":null,""P0_Q1"":{""wealthy"":1,""safe"":2,""walkable"":0,""traditional"":4,""diverse"":1}}","","","","","","2","[]","","","","",""
"dot matrix survey2","survey","121","934621","0.0-121.0","","656776a7904ae00d6b91d1dd","6568a86b0cbcb4084b2158b2","7","","","","","","","","","","","","9788","","{""P0_Q0"":null,""P0_Q1"":{""violence"":2,""crime"":2,""drug"":1,""schools"":2,""opportunities"":1}}","","","","","","2","[]","","","","",""
"dot matrix survey3","survey","122","949308","0.0-122.0","","656776a7904ae00d6b91d1dd","6568a86b0cbcb4084b2158b2","7","","","","","","","","","","","","14674","","{""P0_Q0"":null,""P0_Q1"":{""movein"":1,""moveout"":3,""shopping"":1,""walk"":3,""park"":1,""school"":2}}","","","","","","2","[]","","","","",""
"sliderTrial","html-slider-response","123","962581","0.0-123.0","","656776a7904ae00d6b91d1dd","6568a86b0cbcb4084b2158b2","7","","","","","","","","","","","","13270","[""SV_PolicingMSA/MO_589/IMG_13_589.jpg"",""SV_PolicingMSA/MO_589/IMG_8_589.jpg"",""SV_PolicingMSA/MO_589/IMG_4_589.jpg"",""SV_PolicingMSA/MO_589/IMG_1_589.jpg"",""SV_PolicingMSA/MO_589/IMG_10_589.jpg"",""SV_PolicingMSA/MO_589/IMG_9_589.jpg"",""SV_PolicingMSA/MO_589/IMG_0_589.jpg"",""SV_PolicingMSA/MO_589/IMG_12_589.jpg""]","6","","","","","","2","","4","[""./rc_img/cop_condGroup_17_SafeStreets_autoscaled.png"",""./rc_img/cop_condGroup_17_CommunitySafety_autoscaled.png""]","2","",""
"sliderTrial","html-slider-response","124","968222","0.0-124.0","","656776a7904ae00d6b91d1dd","6568a86b0cbcb4084b2158b2","7","","","","","","","","","","","","5639","[""SV_PolicingMSA/MO_589/IMG_13_589.jpg"",""SV_PolicingMSA/MO_589/IMG_8_589.jpg"",""SV_PolicingMSA/MO_589/IMG_4_589.jpg"",""SV_PolicingMSA/MO_589/IMG_1_589.jpg"",""SV_PolicingMSA/MO_589/IMG_10_589.jpg"",""SV_PolicingMSA/MO_589/IMG_9_589.jpg"",""SV_PolicingMSA/MO_589/IMG_0_589.jpg"",""SV_PolicingMSA/MO_589/IMG_12_589.jpg""]","2","","","","","","2","","4","[""./rc_img/cop_condGroup_5_CommunitySafety_autoscaled.png"",""./rc_img/cop_condGroup_5_SafeStreets_autoscaled.png""]","2","",""
"sliderTrial","html-slider-response","125","992778","0.0-125.0","","656776a7904ae00d6b91d1dd","6568a86b0cbcb4084b2158b2","7","","","","","","","","","","","","24553","[""SV_PolicingMSA/MO_589/IMG_13_589.jpg"",""SV_PolicingMSA/MO_589/IMG_8_589.jpg"",""SV_PolicingMSA/MO_589/IMG_4_589.jpg"",""SV_PolicingMSA/MO_589/IMG_1_589.jpg"",""SV_PolicingMSA/MO_589/IMG_10_589.jpg"",""SV_PolicingMSA/MO_589/IMG_9_589.jpg"",""SV_PolicingMSA/MO_589/IMG_0_589.jpg"",""SV_PolicingMSA/MO_589/IMG_12_589.jpg""]","1","","","","","","2","","4","[""./rc_img/cop_condGroup_4_CommunitySafety_autoscaled.png"",""./rc_img/cop_condGroup_4_SafeStreets_autoscaled.png""]","1","",""
"sliderTrial","html-slider-response","126","1007148","0.0-126.0","","656776a7904ae00d6b91d1dd","6568a86b0cbcb4084b2158b2","7","","","","","","","","","","","","14367","[""SV_PolicingMSA/MO_589/IMG_13_589.jpg"",""SV_PolicingMSA/MO_589/IMG_8_589.jpg"",""SV_PolicingMSA/MO_589/IMG_4_589.jpg"",""SV_PolicingMSA/MO_589/IMG_1_589.jpg"",""SV_PolicingMSA/MO_589/IMG_10_589.jpg"",""SV_PolicingMSA/MO_589/IMG_9_589.jpg"",""SV_PolicingMSA/MO_589/IMG_0_589.jpg"",""SV_PolicingMSA/MO_589/IMG_12_589.jpg""]","1","","","","","","2","","4","[""./rc_img/cop_condGroup_10_CommunitySafety_autoscaled.png"",""./rc_img/cop_condGroup_10_SafeStreets_autoscaled.png""]","1","",""
"sliderTrial","html-slider-response","127","1010829","0.0-127.0","","656776a7904ae00d6b91d1dd","6568a86b0cbcb4084b2158b2","7","","","","","","","","","","","","3678","[""SV_PolicingMSA/MO_589/IMG_13_589.jpg"",""SV_PolicingMSA/MO_589/IMG_8_589.jpg"",""SV_PolicingMSA/MO_589/IMG_4_589.jpg"",""SV_PolicingMSA/MO_589/IMG_1_589.jpg"",""SV_PolicingMSA/MO_589/IMG_10_589.jpg"",""SV_PolicingMSA/MO_589/IMG_9_589.jpg"",""SV_PolicingMSA/MO_589/IMG_0_589.jpg"",""SV_PolicingMSA/MO_589/IMG_12_589.jpg""]","1","","","","","","2","","4","[""./rc_img/cop_condGroup_6_CommunitySafety_autoscaled.png"",""./rc_img/cop_condGroup_6_SafeStreets_autoscaled.png""]","1","",""
"before_SVSlide_prompt","html-button-response","128","1013236","0.0-128.0","","656776a7904ae00d6b91d1dd","6568a86b0cbcb4084b2158b2","7","","","","","","","","","","","","2406","Click [Next] to see the next neighborhood!","0","","","","","","","","","","","",""
"street view slide show","image-button-response","129","1014241","0.0-129.0","","656776a7904ae00d6b91d1dd","6568a86b0cbcb4084b2158b2","7","","","","","","","","","","","","null","stimulus/SV_PolicingMSA/MO_628/IMG_14_628.jpg","null","","","","","","3","","","","","",""
"street view slide show","image-button-response","130","1015257","0.0-130.0","","656776a7904ae00d6b91d1dd","6568a86b0cbcb4084b2158b2","7","","","","","","","","","","","","null","stimulus/SV_PolicingMSA/MO_628/IMG_10_628.jpg","null","","","","","","3","","","","","",""
"street view slide show","image-button-response","131","1016267","0.0-131.0","","656776a7904ae00d6b91d1dd","6568a86b0cbcb4084b2158b2","7","","","","","","","","","","","","null","stimulus/SV_PolicingMSA/MO_628/IMG_6_628.jpg","null","","","","","","3","","","","","",""
"street view slide show","image-button-response","132","1017271","0.0-132.0","","656776a7904ae00d6b91d1dd","6568a86b0cbcb4084b2158b2","7","","","","","","","","","","","","null","stimulus/SV_PolicingMSA/MO_628/IMG_9_628.jpg","null","","","","","","3","","","","","",""
"street view slide show","image-button-response","133","1018274","0.0-133.0","","656776a7904ae00d6b91d1dd","6568a86b0cbcb4084b2158b2","7","","","","","","","","","","","","null","stimulus/SV_PolicingMSA/MO_628/IMG_4_628.jpg","null","","","","","","3","","","","","",""
"street view slide show","image-button-response","134","1019289","0.0-134.0","","656776a7904ae00d6b91d1dd","6568a86b0cbcb4084b2158b2","7","","","","","","","","","","","","null","stimulus/SV_PolicingMSA/MO_628/IMG_1_628.jpg","null","","","","","","3","","","","","",""
"street view slide show","image-button-response","135","1020295","0.0-135.0","","656776a7904ae00d6b91d1dd","6568a86b0cbcb4084b2158b2","7","","","","","","","","","","","","null","stimulus/SV_PolicingMSA/MO_628/IMG_5_628.jpg","null","","","","","","3","","","","","",""
"street view slide show","image-button-response","136","1021305","0.0-136.0","","656776a7904ae00d6b91d1dd","6568a86b0cbcb4084b2158b2","7","","","","","","","","","","","","null","stimulus/SV_PolicingMSA/MO_628/IMG_0_628.jpg","null","","","","","","3","","","","","",""
"dot matrix survey1","survey","137","1054546","0.0-137.0","","656776a7904ae00d6b91d1dd","6568a86b0cbcb4084b2158b2","7","","","","","","","","","","","","33183","","{""P0_Q0"":null,""P0_Q1"":{""wealthy"":2,""safe"":3,""walkable"":3,""traditional"":3,""diverse"":2}}","","","","","","3","[]","","","","",""
"dot matrix survey2","survey","138","1064430","0.0-138.0","","656776a7904ae00d6b91d1dd","6568a86b0cbcb4084b2158b2","7","","","","","","","","","","","","9873","","{""P0_Q0"":null,""P0_Q1"":{""violence"":2,""crime"":2,""drug"":2,""schools"":2,""opportunities"":2}}","","","","","","3","[]","","","","",""
"dot matrix survey3","survey","139","1071166","0.0-139.0","","656776a7904ae00d6b91d1dd","6568a86b0cbcb4084b2158b2","7","","","","","","","","","","","","6726","","{""P0_Q0"":null,""P0_Q1"":{""movein"":2,""moveout"":2,""shopping"":2,""walk"":2,""park"":2,""school"":2}}","","","","","","3","[]","","","","",""
"sliderTrial","html-slider-response","140","1074282","0.0-140.0","","656776a7904ae00d6b91d1dd","6568a86b0cbcb4084b2158b2","7","","","","","","","","","","","","3113","[""SV_PolicingMSA/MO_628/IMG_14_628.jpg"",""SV_PolicingMSA/MO_628/IMG_10_628.jpg"",""SV_PolicingMSA/MO_628/IMG_6_628.jpg"",""SV_PolicingMSA/MO_628/IMG_9_628.jpg"",""SV_PolicingMSA/MO_628/IMG_4_628.jpg"",""SV_PolicingMSA/MO_628/IMG_1_628.jpg"",""SV_PolicingMSA/MO_628/IMG_5_628.jpg"",""SV_PolicingMSA/MO_628/IMG_0_628.jpg""]","1","","","","","","3","","4","[""./rc_img/cop_condGroup_1_CommunitySafety_autoscaled.png"",""./rc_img/cop_condGroup_1_SafeStreets_autoscaled.png""]","1","",""
"sliderTrial","html-slider-response","141","1076500","0.0-141.0","","656776a7904ae00d6b91d1dd","6568a86b0cbcb4084b2158b2","7","","","","","","","","","","","","2215","[""SV_PolicingMSA/MO_628/IMG_14_628.jpg"",""SV_PolicingMSA/MO_628/IMG_10_628.jpg"",""SV_PolicingMSA/MO_628/IMG_6_628.jpg"",""SV_PolicingMSA/MO_628/IMG_9_628.jpg"",""SV_PolicingMSA/MO_628/IMG_4_628.jpg"",""SV_PolicingMSA/MO_628/IMG_1_628.jpg"",""SV_PolicingMSA/MO_628/IMG_5_628.jpg"",""SV_PolicingMSA/MO_628/IMG_0_628.jpg""]","7","","","","","","3","","4","[""./rc_img/cop_condGroup_8_SafeStreets_autoscaled.png"",""./rc_img/cop_condGroup_8_CommunitySafety_autoscaled.png""]","1","",""
"sliderTrial","html-slider-response","142","1078503","0.0-142.0","","656776a7904ae00d6b91d1dd","6568a86b0cbcb4084b2158b2","7","","","","","","","","","","","","2000","[""SV_PolicingMSA/MO_628/IMG_14_628.jpg"",""SV_PolicingMSA/MO_628/IMG_10_628.jpg"",""SV_PolicingMSA/MO_628/IMG_6_628.jpg"",""SV_PolicingMSA/MO_628/IMG_9_628.jpg"",""SV_PolicingMSA/MO_628/IMG_4_628.jpg"",""SV_PolicingMSA/MO_628/IMG_1_628.jpg"",""SV_PolicingMSA/MO_628/IMG_5_628.jpg"",""SV_PolicingMSA/MO_628/IMG_0_628.jpg""]","1","","","","","","3","","4","[""./rc_img/cop_condGroup_20_CommunitySafety_autoscaled.png"",""./rc_img/cop_condGroup_20_SafeStreets_autoscaled.png""]","1","",""
"sliderTrial","html-slider-response","143","1082063","0.0-143.0","","656776a7904ae00d6b91d1dd","6568a86b0cbcb4084b2158b2","7","","","","","","","","","","","","3558","[""SV_PolicingMSA/MO_628/IMG_14_628.jpg"",""SV_PolicingMSA/MO_628/IMG_10_628.jpg"",""SV_PolicingMSA/MO_628/IMG_6_628.jpg"",""SV_PolicingMSA/MO_628/IMG_9_628.jpg"",""SV_PolicingMSA/MO_628/IMG_4_628.jpg"",""SV_PolicingMSA/MO_628/IMG_1_628.jpg"",""SV_PolicingMSA/MO_628/IMG_5_628.jpg"",""SV_PolicingMSA/MO_628/IMG_0_628.jpg""]","1","","","","","","3","","4","[""./rc_img/cop_condGroup_12_CommunitySafety_autoscaled.png"",""./rc_img/cop_condGroup_12_SafeStreets_autoscaled.png""]","1","",""
"sliderTrial","html-slider-response","144","1084674","0.0-144.0","","656776a7904ae00d6b91d1dd","6568a86b0cbcb4084b2158b2","7","","","","","","","","","","","","2608","[""SV_PolicingMSA/MO_628/IMG_14_628.jpg"",""SV_PolicingMSA/MO_628/IMG_10_628.jpg"",""SV_PolicingMSA/MO_628/IMG_6_628.jpg"",""SV_PolicingMSA/MO_628/IMG_9_628.jpg"",""SV_PolicingMSA/MO_628/IMG_4_628.jpg"",""SV_PolicingMSA/MO_628/IMG_1_628.jpg"",""SV_PolicingMSA/MO_628/IMG_5_628.jpg"",""SV_PolicingMSA/MO_628/IMG_0_628.jpg""]","2","","","","","","3","","4","[""./rc_img/cop_condGroup_15_CommunitySafety_autoscaled.png"",""./rc_img/cop_condGroup_15_SafeStreets_autoscaled.png""]","2","",""
"demographics","survey-html-form","145","1125988","0.0-145.0","","656776a7904ae00d6b91d1dd","6568a86b0cbcb4084b2158b2","7","","","","","","","","","","","","41186","","{""age"":""37"",""sex"":""male"",""gender"":""man"",""gender-self-describe"":"""",""zipcode"":""79924""}","","","","","","","","","","","",""
"demographics-list","survey","146","1154663","0.0-146.0","","656776a7904ae00d6b91d1dd","6568a86b0cbcb4084b2158b2","7","","","","","","","","","","","","28355","","{""P0_Q0"":null,""race-ethnicity"":[""Hispanic or Latinx""],""education"":"""",""P1_Q0"":null,""ideology"":""Moderate"",""P2_Q0"":null,""num-moves"":8,""P3_Q0"":null,""social-ladder"":3}","","","","","","","[]","","","","",""
"end-survey","survey-text","147","1156633","0.0-147.0","","656776a7904ae00d6b91d1dd","6568a86b0cbcb4084b2158b2","7","","","","","","","","","","","","1733","","{""Q0"":""""}","","","","","","","","","","","","2"
"end-survey","html-button-response","148","1160842","0.0-148.0","","656776a7904ae00d6b91d1dd","6568a86b0cbcb4084b2158b2","7","","","","","","","","","","","","4182","
    You've reached the end of the survey. <br><br> 
    <b>Do not close or refresh this window.</b><br>
    On the next page, you will be automatically redirected to Prolific. <br><br>

    <div class=""alert alert-warning""><b>
    </div>
","0","","","","","","","","","","","",""
