"task","trial_type","trial_index","time_elapsed","internal_node_id","subject_id","study_id","session_id","section","width","height","webaudio","browser","browser_version","mobile","os","fullscreen","vsync_rate","webcam","microphone","rt","stimulus","response","success","timeout","failed_images","failed_audio","failed_video","block","accuracy","slider_start","choices","standardized_response","num_attention_checks_correct"
"pavlovia-init","pavlovia","0","1245","0.0-0.0","","656776a7904ae00d6b91d1dd","0fbm7ypyh8va","10","","","","","","","","","","","","","","","","","","","","","","","","",""
"browser-check","browser-check","1","2243","0.0-1.0","","656776a7904ae00d6b91d1dd","0fbm7ypyh8va","10","1440","763","true","safari","17.1.0","false","Mac OS","true","60.48","true","true","","","","","","","","","","","","","",""
"consent","html-button-response","2","5663","0.0-2.0","","656776a7904ae00d6b91d1dd","0fbm7ypyh8va","10","","","","","","","","","","","","3417","
        <div style=""font-size: 80%; max-width:700px"">
            <h2>CONSENT FORM</h2>
        
            <div style=""text-align: left"">
            <h4>DESCRIPTION</h4>
            <p>
            You will complete a short task where you give your impressions of various neighborhoods and assign individuals to those spaces, and answer some questions about your thoughts and opinions.<br>
            The University of Michigan Institutional Review Board Health Sciences and Behavioral Sciences has determined that this study is exempt from IRB oversight.
            </p>

            <h4>TIME INVOLVEMENT</h4>
            <p>Your participation will take approximately 15 minutes. You will receive $3.25 upon completion of the study.</p>
        
            <h4>RISKS AND BENEFITS</h4>
            <p>
            The risks associated with this study are minimal. The benefits which may reasonably be expected to result from this study are none. We cannot and do not guarantee or promise that you will receive any benefits from this study.
            </p>
          
            <h4>SUBJECT'S RIGHTS</h4>
            <p>
            If you have read this form and have decided to participate in this project, please understand your participation is voluntary and you have the right to withdraw your consent or discontinue participation at any time without penalty or loss of benefits to which you are otherwise entitled. The alternative is not to participate. You have the right to refuse to answer particular questions. Your individual privacy will be maintained in all published and written data resulting from the study.
            </p>

            <h4>HUMAN SUBJECT APPROVAL</h4>
            <p>
            This study is exempt from ongoing IRB review.
            </p>

            <h4>CONTACT INFORMATION</h4>
            If you have any questions, concerns or complaints about this research, its procedures, risks and benefits, contact the Protocol Director, Nicholas Camp, npcamp@umich.edu, (443) 851-6783. <br>

            If you have questions about your rights as a research participant, or wish to obtain information, ask questions or discuss any concerns about this study with someone other than the researcher(s), please contact the following:<br><br>
            University of Michigan<br>
            Health Sciences and Behavioral Sciences Institutional Review Board (IRB-HSBS)<br>
            2800 Plymouth Road<br>
            Building 520, Room 1169Ann Arbor, MI 48109-2800<br>
            Telephone: 734-936-0933 or toll free (866) 936-0933<br>
            Fax: 734-936-1852<br>
            E-mail: irbhsbs@umich.edu<br><br>

            You can also contact the University of Michigan Compliance Hotline at 1-866-990-0111. You may also print this consent form to keep.
            <br><br>
            <div class=""alert alert-warning""><b>
            Do you consent to participate in this study? If you consent to participate in this study, please click “Accept and Continue”. If you select ""Decline and Exit"", you will be exited from the survey. <br>
            </b></div>
            </div>
        </div>
    ","1","","","","","","","","","","",""
"","preload","3","7523","0.0-3.0","","656776a7904ae00d6b91d1dd","0fbm7ypyh8va","10","","","","","","","","","","","","","","","true","false","[]","[]","[]","","","","","",""
"instructions","html-button-response","4","8579","0.0-4.0","","656776a7904ae00d6b91d1dd","0fbm7ypyh8va","10","","","","","","","","","","","","1054","
        <div class=""text-container"">
        <h1>Welcome to the study!</h1>
        
        <div class=""text-left"">
            <p>
                In this study, we are interested in how people think about different Google Street View images. <br> Google Street View takes pictures of streets used for Google Earth and Google Maps. <br>You’ll see Google Street View images of different places and answer some questions about each one.<br>
            </p>
        </div>
        <img src = ""assets/img/example.png"" width = 500px, height = auto>
        <br>
    <br>
    ","0","","","","","","","","","","",""
"instructions","html-button-response","5","9578","0.0-5.0","","656776a7904ae00d6b91d1dd","0fbm7ypyh8va","10","","","","","","","","","","","","998","
    <div class=""text-container"">
        <div class=""text-center"">
            <p>Please remember that your answers are completely anonymous. <br> (We can't trace them back to your name). <br>Please answer as honestly as you can.</p>
        </div>
    <br>
","0","","","","","","","","","","",""
"before_SVSlide_prompt","html-button-response","6","10795","0.0-6.0","","656776a7904ae00d6b91d1dd","0fbm7ypyh8va","10","","","","","","","","","","","","1215","Click [Next] to see the next neighborhood!","0","","","","","","","","","","",""
"street view slide show","image-button-response","7","11807","0.0-7.0","","656776a7904ae00d6b91d1dd","0fbm7ypyh8va","10","","","","","","","","","","","","null","stimulus/SV_PolicingMSA/FL_5080/IMG_8_5080.jpg","null","","","","","","2","","","","",""
"street view slide show","image-button-response","8","12816","0.0-8.0","","656776a7904ae00d6b91d1dd","0fbm7ypyh8va","10","","","","","","","","","","","","null","stimulus/SV_PolicingMSA/FL_5080/IMG_7_5080.jpg","null","","","","","","2","","","","",""
"street view slide show","image-button-response","9","13827","0.0-9.0","","656776a7904ae00d6b91d1dd","0fbm7ypyh8va","10","","","","","","","","","","","","null","stimulus/SV_PolicingMSA/FL_5080/IMG_3_5080.jpg","null","","","","","","2","","","","",""
"street view slide show","image-button-response","10","14834","0.0-10.0","","656776a7904ae00d6b91d1dd","0fbm7ypyh8va","10","","","","","","","","","","","","null","stimulus/SV_PolicingMSA/FL_5080/IMG_10_5080.jpg","null","","","","","","2","","","","",""
"street view slide show","image-button-response","11","15845","0.0-11.0","","656776a7904ae00d6b91d1dd","0fbm7ypyh8va","10","","","","","","","","","","","","null","stimulus/SV_PolicingMSA/FL_5080/IMG_9_5080.jpg","null","","","","","","2","","","","",""
"street view slide show","image-button-response","12","16853","0.0-12.0","","656776a7904ae00d6b91d1dd","0fbm7ypyh8va","10","","","","","","","","","","","","null","stimulus/SV_PolicingMSA/FL_5080/IMG_6_5080.jpg","null","","","","","","2","","","","",""
"street view slide show","image-button-response","13","17862","0.0-13.0","","656776a7904ae00d6b91d1dd","0fbm7ypyh8va","10","","","","","","","","","","","","null","stimulus/SV_PolicingMSA/FL_5080/IMG_13_5080.jpg","null","","","","","","2","","","","",""
"street view slide show","image-button-response","14","18869","0.0-14.0","","656776a7904ae00d6b91d1dd","0fbm7ypyh8va","10","","","","","","","","","","","","null","stimulus/SV_PolicingMSA/FL_5080/IMG_1_5080.jpg","null","","","","","","2","","","","",""
"dot matrix survey1","survey","15","143888","0.0-15.0","","656776a7904ae00d6b91d1dd","0fbm7ypyh8va","10","","","","","","","","","","","","124979","","{""P0_Q0"":null,""P0_Q1"":null}","","","","","","2","[]","","","",""
"dot matrix survey2","survey","16","144626","0.0-16.0","","656776a7904ae00d6b91d1dd","0fbm7ypyh8va","10","","","","","","","","","","","","721","","{""P0_Q0"":null,""P0_Q1"":null}","","","","","","2","[]","","","",""
"dot matrix survey3","survey","17","145410","0.0-17.0","","656776a7904ae00d6b91d1dd","0fbm7ypyh8va","10","","","","","","","","","","","","773","","{""P0_Q0"":null,""P0_Q1"":null}","","","","","","2","[]","","","",""
"sliderTrial","html-slider-response","18","146729","0.0-18.0","","656776a7904ae00d6b91d1dd","0fbm7ypyh8va","10","","","","","","","","","","","","1314","[""SV_PolicingMSA/FL_5080/IMG_8_5080.jpg"",""SV_PolicingMSA/FL_5080/IMG_7_5080.jpg"",""SV_PolicingMSA/FL_5080/IMG_3_5080.jpg"",""SV_PolicingMSA/FL_5080/IMG_10_5080.jpg"",""SV_PolicingMSA/FL_5080/IMG_9_5080.jpg"",""SV_PolicingMSA/FL_5080/IMG_6_5080.jpg"",""SV_PolicingMSA/FL_5080/IMG_13_5080.jpg"",""SV_PolicingMSA/FL_5080/IMG_1_5080.jpg""]","4","","","","","","2","","4","[""./rc_img/cop_condGroup_3_CommunitySafety_autoscaled.png"",""./rc_img/cop_condGroup_3_SafeStreets_autoscaled.png""]","4",""
"sliderTrial","html-slider-response","19","147247","0.0-19.0","","656776a7904ae00d6b91d1dd","0fbm7ypyh8va","10","","","","","","","","","","","","515","[""SV_PolicingMSA/FL_5080/IMG_8_5080.jpg"",""SV_PolicingMSA/FL_5080/IMG_7_5080.jpg"",""SV_PolicingMSA/FL_5080/IMG_3_5080.jpg"",""SV_PolicingMSA/FL_5080/IMG_10_5080.jpg"",""SV_PolicingMSA/FL_5080/IMG_9_5080.jpg"",""SV_PolicingMSA/FL_5080/IMG_6_5080.jpg"",""SV_PolicingMSA/FL_5080/IMG_13_5080.jpg"",""SV_PolicingMSA/FL_5080/IMG_1_5080.jpg""]","4","","","","","","2","","4","[""./rc_img/cop_condGroup_13_SafeStreets_autoscaled.png"",""./rc_img/cop_condGroup_13_CommunitySafety_autoscaled.png""]","4",""
"sliderTrial","html-slider-response","20","147664","0.0-20.0","","656776a7904ae00d6b91d1dd","0fbm7ypyh8va","10","","","","","","","","","","","","414","[""SV_PolicingMSA/FL_5080/IMG_8_5080.jpg"",""SV_PolicingMSA/FL_5080/IMG_7_5080.jpg"",""SV_PolicingMSA/FL_5080/IMG_3_5080.jpg"",""SV_PolicingMSA/FL_5080/IMG_10_5080.jpg"",""SV_PolicingMSA/FL_5080/IMG_9_5080.jpg"",""SV_PolicingMSA/FL_5080/IMG_6_5080.jpg"",""SV_PolicingMSA/FL_5080/IMG_13_5080.jpg"",""SV_PolicingMSA/FL_5080/IMG_1_5080.jpg""]","4","","","","","","2","","4","[""./rc_img/cop_condGroup_14_CommunitySafety_autoscaled.png"",""./rc_img/cop_condGroup_14_SafeStreets_autoscaled.png""]","4",""
"sliderTrial","html-slider-response","21","147845","0.0-21.0","","656776a7904ae00d6b91d1dd","0fbm7ypyh8va","10","","","","","","","","","","","","177","[""SV_PolicingMSA/FL_5080/IMG_8_5080.jpg"",""SV_PolicingMSA/FL_5080/IMG_7_5080.jpg"",""SV_PolicingMSA/FL_5080/IMG_3_5080.jpg"",""SV_PolicingMSA/FL_5080/IMG_10_5080.jpg"",""SV_PolicingMSA/FL_5080/IMG_9_5080.jpg"",""SV_PolicingMSA/FL_5080/IMG_6_5080.jpg"",""SV_PolicingMSA/FL_5080/IMG_13_5080.jpg"",""SV_PolicingMSA/FL_5080/IMG_1_5080.jpg""]","4","","","","","","2","","4","[""./rc_img/cop_condGroup_2_SafeStreets_autoscaled.png"",""./rc_img/cop_condGroup_2_CommunitySafety_autoscaled.png""]","4",""
"sliderTrial","html-slider-response","22","147999","0.0-22.0","","656776a7904ae00d6b91d1dd","0fbm7ypyh8va","10","","","","","","","","","","","","152","[""SV_PolicingMSA/FL_5080/IMG_8_5080.jpg"",""SV_PolicingMSA/FL_5080/IMG_7_5080.jpg"",""SV_PolicingMSA/FL_5080/IMG_3_5080.jpg"",""SV_PolicingMSA/FL_5080/IMG_10_5080.jpg"",""SV_PolicingMSA/FL_5080/IMG_9_5080.jpg"",""SV_PolicingMSA/FL_5080/IMG_6_5080.jpg"",""SV_PolicingMSA/FL_5080/IMG_13_5080.jpg"",""SV_PolicingMSA/FL_5080/IMG_1_5080.jpg""]","4","","","","","","2","","4","[""./rc_img/cop_condGroup_17_SafeStreets_autoscaled.png"",""./rc_img/cop_condGroup_17_CommunitySafety_autoscaled.png""]","4",""
"before_SVSlide_prompt","html-button-response","23","149246","0.0-23.0","","656776a7904ae00d6b91d1dd","0fbm7ypyh8va","10","","","","","","","","","","","","1245","Click [Next] to see the next neighborhood!","0","","","","","","","","","","",""
"street view slide show","image-button-response","24","150255","0.0-24.0","","656776a7904ae00d6b91d1dd","0fbm7ypyh8va","10","","","","","","","","","","","","null","stimulus/SV_PolicingMSA/FL_4062/IMG_9_4062.jpg","null","","","","","","3","","","","",""
"street view slide show","image-button-response","25","151262","0.0-25.0","","656776a7904ae00d6b91d1dd","0fbm7ypyh8va","10","","","","","","","","","","","","null","stimulus/SV_PolicingMSA/FL_4062/IMG_7_4062.jpg","null","","","","","","3","","","","",""
"street view slide show","image-button-response","26","152269","0.0-26.0","","656776a7904ae00d6b91d1dd","0fbm7ypyh8va","10","","","","","","","","","","","","null","stimulus/SV_PolicingMSA/FL_4062/IMG_11_4062.jpg","null","","","","","","3","","","","",""
"street view slide show","image-button-response","27","153278","0.0-27.0","","656776a7904ae00d6b91d1dd","0fbm7ypyh8va","10","","","","","","","","","","","","null","stimulus/SV_PolicingMSA/FL_4062/IMG_8_4062.jpg","null","","","","","","3","","","","",""
"street view slide show","image-button-response","28","154287","0.0-28.0","","656776a7904ae00d6b91d1dd","0fbm7ypyh8va","10","","","","","","","","","","","","null","stimulus/SV_PolicingMSA/FL_4062/IMG_6_4062.jpg","null","","","","","","3","","","","",""
"street view slide show","image-button-response","29","155294","0.0-29.0","","656776a7904ae00d6b91d1dd","0fbm7ypyh8va","10","","","","","","","","","","","","null","stimulus/SV_PolicingMSA/FL_4062/IMG_14_4062.jpg","null","","","","","","3","","","","",""
"street view slide show","image-button-response","30","156304","0.0-30.0","","656776a7904ae00d6b91d1dd","0fbm7ypyh8va","10","","","","","","","","","","","","null","stimulus/SV_PolicingMSA/FL_4062/IMG_2_4062.jpg","null","","","","","","3","","","","",""
"street view slide show","image-button-response","31","157314","0.0-31.0","","656776a7904ae00d6b91d1dd","0fbm7ypyh8va","10","","","","","","","","","","","","null","stimulus/SV_PolicingMSA/FL_4062/IMG_3_4062.jpg","null","","","","","","3","","","","",""
"dot matrix survey1","survey","32","183120","0.0-32.0","","656776a7904ae00d6b91d1dd","0fbm7ypyh8va","10","","","","","","","","","","","","25771","","{""P0_Q0"":null,""P0_Q1"":null}","","","","","","3","[]","","","",""
"dot matrix survey2","survey","33","183890","0.0-33.0","","656776a7904ae00d6b91d1dd","0fbm7ypyh8va","10","","","","","","","","","","","","758","","{""P0_Q0"":null,""P0_Q1"":null}","","","","","","3","[]","","","",""
"dot matrix survey3","survey","34","185111","0.0-34.0","","656776a7904ae00d6b91d1dd","0fbm7ypyh8va","10","","","","","","","","","","","","1212","","{""P0_Q0"":null,""P0_Q1"":null}","","","","","","3","[]","","","",""
"sliderTrial","html-slider-response","35","186245","0.0-35.0","","656776a7904ae00d6b91d1dd","0fbm7ypyh8va","10","","","","","","","","","","","","1131","[""SV_PolicingMSA/FL_4062/IMG_9_4062.jpg"",""SV_PolicingMSA/FL_4062/IMG_7_4062.jpg"",""SV_PolicingMSA/FL_4062/IMG_11_4062.jpg"",""SV_PolicingMSA/FL_4062/IMG_8_4062.jpg"",""SV_PolicingMSA/FL_4062/IMG_6_4062.jpg"",""SV_PolicingMSA/FL_4062/IMG_14_4062.jpg"",""SV_PolicingMSA/FL_4062/IMG_2_4062.jpg"",""SV_PolicingMSA/FL_4062/IMG_3_4062.jpg""]","4","","","","","","3","","4","[""./rc_img/cop_condGroup_15_CommunitySafety_autoscaled.png"",""./rc_img/cop_condGroup_15_SafeStreets_autoscaled.png""]","4",""
"sliderTrial","html-slider-response","36","186679","0.0-36.0","","656776a7904ae00d6b91d1dd","0fbm7ypyh8va","10","","","","","","","","","","","","433","[""SV_PolicingMSA/FL_4062/IMG_9_4062.jpg"",""SV_PolicingMSA/FL_4062/IMG_7_4062.jpg"",""SV_PolicingMSA/FL_4062/IMG_11_4062.jpg"",""SV_PolicingMSA/FL_4062/IMG_8_4062.jpg"",""SV_PolicingMSA/FL_4062/IMG_6_4062.jpg"",""SV_PolicingMSA/FL_4062/IMG_14_4062.jpg"",""SV_PolicingMSA/FL_4062/IMG_2_4062.jpg"",""SV_PolicingMSA/FL_4062/IMG_3_4062.jpg""]","4","","","","","","3","","4","[""./rc_img/cop_condGroup_9_SafeStreets_autoscaled.png"",""./rc_img/cop_condGroup_9_CommunitySafety_autoscaled.png""]","4",""
"sliderTrial","html-slider-response","37","186865","0.0-37.0","","656776a7904ae00d6b91d1dd","0fbm7ypyh8va","10","","","","","","","","","","","","181","[""SV_PolicingMSA/FL_4062/IMG_9_4062.jpg"",""SV_PolicingMSA/FL_4062/IMG_7_4062.jpg"",""SV_PolicingMSA/FL_4062/IMG_11_4062.jpg"",""SV_PolicingMSA/FL_4062/IMG_8_4062.jpg"",""SV_PolicingMSA/FL_4062/IMG_6_4062.jpg"",""SV_PolicingMSA/FL_4062/IMG_14_4062.jpg"",""SV_PolicingMSA/FL_4062/IMG_2_4062.jpg"",""SV_PolicingMSA/FL_4062/IMG_3_4062.jpg""]","4","","","","","","3","","4","[""./rc_img/cop_condGroup_18_CommunitySafety_autoscaled.png"",""./rc_img/cop_condGroup_18_SafeStreets_autoscaled.png""]","4",""
"sliderTrial","html-slider-response","38","187013","0.0-38.0","","656776a7904ae00d6b91d1dd","0fbm7ypyh8va","10","","","","","","","","","","","","146","[""SV_PolicingMSA/FL_4062/IMG_9_4062.jpg"",""SV_PolicingMSA/FL_4062/IMG_7_4062.jpg"",""SV_PolicingMSA/FL_4062/IMG_11_4062.jpg"",""SV_PolicingMSA/FL_4062/IMG_8_4062.jpg"",""SV_PolicingMSA/FL_4062/IMG_6_4062.jpg"",""SV_PolicingMSA/FL_4062/IMG_14_4062.jpg"",""SV_PolicingMSA/FL_4062/IMG_2_4062.jpg"",""SV_PolicingMSA/FL_4062/IMG_3_4062.jpg""]","4","","","","","","3","","4","[""./rc_img/cop_condGroup_11_SafeStreets_autoscaled.png"",""./rc_img/cop_condGroup_11_CommunitySafety_autoscaled.png""]","4",""
"sliderTrial","html-slider-response","39","187179","0.0-39.0","","656776a7904ae00d6b91d1dd","0fbm7ypyh8va","10","","","","","","","","","","","","164","[""SV_PolicingMSA/FL_4062/IMG_9_4062.jpg"",""SV_PolicingMSA/FL_4062/IMG_7_4062.jpg"",""SV_PolicingMSA/FL_4062/IMG_11_4062.jpg"",""SV_PolicingMSA/FL_4062/IMG_8_4062.jpg"",""SV_PolicingMSA/FL_4062/IMG_6_4062.jpg"",""SV_PolicingMSA/FL_4062/IMG_14_4062.jpg"",""SV_PolicingMSA/FL_4062/IMG_2_4062.jpg"",""SV_PolicingMSA/FL_4062/IMG_3_4062.jpg""]","4","","","","","","3","","4","[""./rc_img/cop_condGroup_5_SafeStreets_autoscaled.png"",""./rc_img/cop_condGroup_5_CommunitySafety_autoscaled.png""]","4",""
"before_SVSlide_prompt","html-button-response","40","188346","0.0-40.0","","656776a7904ae00d6b91d1dd","0fbm7ypyh8va","10","","","","","","","","","","","","1164","Click [Next] to see the next neighborhood!","0","","","","","","","","","","",""
"street view slide show","image-button-response","41","189354","0.0-41.0","","656776a7904ae00d6b91d1dd","0fbm7ypyh8va","10","","","","","","","","","","","","null","stimulus/SV_PolicingMSA/FL_2544/IMG_2_2544.jpg","null","","","","","","3","","","","",""
"street view slide show","image-button-response","42","190363","0.0-42.0","","656776a7904ae00d6b91d1dd","0fbm7ypyh8va","10","","","","","","","","","","","","null","stimulus/SV_PolicingMSA/FL_2544/IMG_14_2544.jpg","null","","","","","","3","","","","",""
"street view slide show","image-button-response","43","191372","0.0-43.0","","656776a7904ae00d6b91d1dd","0fbm7ypyh8va","10","","","","","","","","","","","","null","stimulus/SV_PolicingMSA/FL_2544/IMG_11_2544.jpg","null","","","","","","3","","","","",""
"street view slide show","image-button-response","44","192380","0.0-44.0","","656776a7904ae00d6b91d1dd","0fbm7ypyh8va","10","","","","","","","","","","","","null","stimulus/SV_PolicingMSA/FL_2544/IMG_6_2544.jpg","null","","","","","","3","","","","",""
"street view slide show","image-button-response","45","193389","0.0-45.0","","656776a7904ae00d6b91d1dd","0fbm7ypyh8va","10","","","","","","","","","","","","null","stimulus/SV_PolicingMSA/FL_2544/IMG_12_2544.jpg","null","","","","","","3","","","","",""
"street view slide show","image-button-response","46","194397","0.0-46.0","","656776a7904ae00d6b91d1dd","0fbm7ypyh8va","10","","","","","","","","","","","","null","stimulus/SV_PolicingMSA/FL_2544/IMG_10_2544.jpg","null","","","","","","3","","","","",""
"street view slide show","image-button-response","47","195405","0.0-47.0","","656776a7904ae00d6b91d1dd","0fbm7ypyh8va","10","","","","","","","","","","","","null","stimulus/SV_PolicingMSA/FL_2544/IMG_1_2544.jpg","null","","","","","","3","","","","",""
"street view slide show","image-button-response","48","196414","0.0-48.0","","656776a7904ae00d6b91d1dd","0fbm7ypyh8va","10","","","","","","","","","","","","null","stimulus/SV_PolicingMSA/FL_2544/IMG_3_2544.jpg","null","","","","","","3","","","","",""
"dot matrix survey1","survey","49","197777","0.0-49.0","","656776a7904ae00d6b91d1dd","0fbm7ypyh8va","10","","","","","","","","","","","","1340","","{""P0_Q0"":null,""P0_Q1"":null}","","","","","","3","[]","","","",""
"dot matrix survey2","survey","50","198239","0.0-50.0","","656776a7904ae00d6b91d1dd","0fbm7ypyh8va","10","","","","","","","","","","","","452","","{""P0_Q0"":null,""P0_Q1"":null}","","","","","","3","[]","","","",""
"dot matrix survey3","survey","51","198855","0.0-51.0","","656776a7904ae00d6b91d1dd","0fbm7ypyh8va","10","","","","","","","","","","","","606","","{""P0_Q0"":null,""P0_Q1"":null}","","","","","","3","[]","","","",""
"sliderTrial","html-slider-response","52","199678","0.0-52.0","","656776a7904ae00d6b91d1dd","0fbm7ypyh8va","10","","","","","","","","","","","","821","[""SV_PolicingMSA/FL_2544/IMG_2_2544.jpg"",""SV_PolicingMSA/FL_2544/IMG_14_2544.jpg"",""SV_PolicingMSA/FL_2544/IMG_11_2544.jpg"",""SV_PolicingMSA/FL_2544/IMG_6_2544.jpg"",""SV_PolicingMSA/FL_2544/IMG_12_2544.jpg"",""SV_PolicingMSA/FL_2544/IMG_10_2544.jpg"",""SV_PolicingMSA/FL_2544/IMG_1_2544.jpg"",""SV_PolicingMSA/FL_2544/IMG_3_2544.jpg""]","4","","","","","","3","","4","[""./rc_img/cop_condGroup_1_CommunitySafety_autoscaled.png"",""./rc_img/cop_condGroup_1_SafeStreets_autoscaled.png""]","4",""
"sliderTrial","html-slider-response","53","199847","0.0-53.0","","656776a7904ae00d6b91d1dd","0fbm7ypyh8va","10","","","","","","","","","","","","168","[""SV_PolicingMSA/FL_2544/IMG_2_2544.jpg"",""SV_PolicingMSA/FL_2544/IMG_14_2544.jpg"",""SV_PolicingMSA/FL_2544/IMG_11_2544.jpg"",""SV_PolicingMSA/FL_2544/IMG_6_2544.jpg"",""SV_PolicingMSA/FL_2544/IMG_12_2544.jpg"",""SV_PolicingMSA/FL_2544/IMG_10_2544.jpg"",""SV_PolicingMSA/FL_2544/IMG_1_2544.jpg"",""SV_PolicingMSA/FL_2544/IMG_3_2544.jpg""]","4","","","","","","3","","4","[""./rc_img/cop_condGroup_7_CommunitySafety_autoscaled.png"",""./rc_img/cop_condGroup_7_SafeStreets_autoscaled.png""]","4",""
"sliderTrial","html-slider-response","54","199994","0.0-54.0","","656776a7904ae00d6b91d1dd","0fbm7ypyh8va","10","","","","","","","","","","","","144","[""SV_PolicingMSA/FL_2544/IMG_2_2544.jpg"",""SV_PolicingMSA/FL_2544/IMG_14_2544.jpg"",""SV_PolicingMSA/FL_2544/IMG_11_2544.jpg"",""SV_PolicingMSA/FL_2544/IMG_6_2544.jpg"",""SV_PolicingMSA/FL_2544/IMG_12_2544.jpg"",""SV_PolicingMSA/FL_2544/IMG_10_2544.jpg"",""SV_PolicingMSA/FL_2544/IMG_1_2544.jpg"",""SV_PolicingMSA/FL_2544/IMG_3_2544.jpg""]","4","","","","","","3","","4","[""./rc_img/cop_condGroup_6_SafeStreets_autoscaled.png"",""./rc_img/cop_condGroup_6_CommunitySafety_autoscaled.png""]","4",""
"sliderTrial","html-slider-response","55","200162","0.0-55.0","","656776a7904ae00d6b91d1dd","0fbm7ypyh8va","10","","","","","","","","","","","","167","[""SV_PolicingMSA/FL_2544/IMG_2_2544.jpg"",""SV_PolicingMSA/FL_2544/IMG_14_2544.jpg"",""SV_PolicingMSA/FL_2544/IMG_11_2544.jpg"",""SV_PolicingMSA/FL_2544/IMG_6_2544.jpg"",""SV_PolicingMSA/FL_2544/IMG_12_2544.jpg"",""SV_PolicingMSA/FL_2544/IMG_10_2544.jpg"",""SV_PolicingMSA/FL_2544/IMG_1_2544.jpg"",""SV_PolicingMSA/FL_2544/IMG_3_2544.jpg""]","4","","","","","","3","","4","[""./rc_img/cop_condGroup_8_SafeStreets_autoscaled.png"",""./rc_img/cop_condGroup_8_CommunitySafety_autoscaled.png""]","4",""
"sliderTrial","html-slider-response","56","200797","0.0-56.0","","656776a7904ae00d6b91d1dd","0fbm7ypyh8va","10","","","","","","","","","","","","632","[""SV_PolicingMSA/FL_2544/IMG_2_2544.jpg"",""SV_PolicingMSA/FL_2544/IMG_14_2544.jpg"",""SV_PolicingMSA/FL_2544/IMG_11_2544.jpg"",""SV_PolicingMSA/FL_2544/IMG_6_2544.jpg"",""SV_PolicingMSA/FL_2544/IMG_12_2544.jpg"",""SV_PolicingMSA/FL_2544/IMG_10_2544.jpg"",""SV_PolicingMSA/FL_2544/IMG_1_2544.jpg"",""SV_PolicingMSA/FL_2544/IMG_3_2544.jpg""]","4","","","","","","3","","4","[""./rc_img/cop_condGroup_4_SafeStreets_autoscaled.png"",""./rc_img/cop_condGroup_4_CommunitySafety_autoscaled.png""]","4",""
"before_SVSlide_prompt","html-button-response","57","201945","0.0-57.0","","656776a7904ae00d6b91d1dd","0fbm7ypyh8va","10","","","","","","","","","","","","1147","Click [Next] to see the next neighborhood!","0","","","","","","","","","","",""
"street view slide show","image-button-response","58","202950","0.0-58.0","","656776a7904ae00d6b91d1dd","0fbm7ypyh8va","10","","","","","","","","","","","","null","stimulus/SV_PolicingMSA/FL_4515/IMG_8_4515.jpg","null","","","","","","0","","","","",""
"street view slide show","image-button-response","59","203958","0.0-59.0","","656776a7904ae00d6b91d1dd","0fbm7ypyh8va","10","","","","","","","","","","","","null","stimulus/SV_PolicingMSA/FL_4515/IMG_10_4515.jpg","null","","","","","","0","","","","",""
"street view slide show","image-button-response","60","204965","0.0-60.0","","656776a7904ae00d6b91d1dd","0fbm7ypyh8va","10","","","","","","","","","","","","null","stimulus/SV_PolicingMSA/FL_4515/IMG_4_4515.jpg","null","","","","","","0","","","","",""
"street view slide show","image-button-response","61","205972","0.0-61.0","","656776a7904ae00d6b91d1dd","0fbm7ypyh8va","10","","","","","","","","","","","","null","stimulus/SV_PolicingMSA/FL_4515/IMG_13_4515.jpg","null","","","","","","0","","","","",""
"street view slide show","image-button-response","62","206979","0.0-62.0","","656776a7904ae00d6b91d1dd","0fbm7ypyh8va","10","","","","","","","","","","","","null","stimulus/SV_PolicingMSA/FL_4515/IMG_0_4515.jpg","null","","","","","","0","","","","",""
"street view slide show","image-button-response","63","207984","0.0-63.0","","656776a7904ae00d6b91d1dd","0fbm7ypyh8va","10","","","","","","","","","","","","null","stimulus/SV_PolicingMSA/FL_4515/IMG_6_4515.jpg","null","","","","","","0","","","","",""
"street view slide show","image-button-response","64","208992","0.0-64.0","","656776a7904ae00d6b91d1dd","0fbm7ypyh8va","10","","","","","","","","","","","","null","stimulus/SV_PolicingMSA/FL_4515/IMG_1_4515.jpg","null","","","","","","0","","","","",""
"street view slide show","image-button-response","65","209998","0.0-65.0","","656776a7904ae00d6b91d1dd","0fbm7ypyh8va","10","","","","","","","","","","","","null","stimulus/SV_PolicingMSA/FL_4515/IMG_12_4515.jpg","null","","","","","","0","","","","",""
"dot matrix survey1","survey","66","220862","0.0-66.0","","656776a7904ae00d6b91d1dd","0fbm7ypyh8va","10","","","","","","","","","","","","10830","","{""P0_Q0"":null,""P0_Q1"":null}","","","","","","0","[]","","","",""
"dot matrix survey2","survey","67","221512","0.0-67.0","","656776a7904ae00d6b91d1dd","0fbm7ypyh8va","10","","","","","","","","","","","","636","","{""P0_Q0"":null,""P0_Q1"":null}","","","","","","0","[]","","","",""
"dot matrix survey3","survey","68","222238","0.0-68.0","","656776a7904ae00d6b91d1dd","0fbm7ypyh8va","10","","","","","","","","","","","","715","","{""P0_Q0"":null,""P0_Q1"":null}","","","","","","0","[]","","","",""
"sliderTrial","html-slider-response","69","223479","0.0-69.0","","656776a7904ae00d6b91d1dd","0fbm7ypyh8va","10","","","","","","","","","","","","1240","[""SV_PolicingMSA/FL_4515/IMG_8_4515.jpg"",""SV_PolicingMSA/FL_4515/IMG_10_4515.jpg"",""SV_PolicingMSA/FL_4515/IMG_4_4515.jpg"",""SV_PolicingMSA/FL_4515/IMG_13_4515.jpg"",""SV_PolicingMSA/FL_4515/IMG_0_4515.jpg"",""SV_PolicingMSA/FL_4515/IMG_6_4515.jpg"",""SV_PolicingMSA/FL_4515/IMG_1_4515.jpg"",""SV_PolicingMSA/FL_4515/IMG_12_4515.jpg""]","4","","","","","","0","","4","[""./rc_img/cop_condGroup_10_CommunitySafety_autoscaled.png"",""./rc_img/cop_condGroup_10_SafeStreets_autoscaled.png""]","4",""
"sliderTrial","html-slider-response","70","223945","0.0-70.0","","656776a7904ae00d6b91d1dd","0fbm7ypyh8va","10","","","","","","","","","","","","463","[""SV_PolicingMSA/FL_4515/IMG_8_4515.jpg"",""SV_PolicingMSA/FL_4515/IMG_10_4515.jpg"",""SV_PolicingMSA/FL_4515/IMG_4_4515.jpg"",""SV_PolicingMSA/FL_4515/IMG_13_4515.jpg"",""SV_PolicingMSA/FL_4515/IMG_0_4515.jpg"",""SV_PolicingMSA/FL_4515/IMG_6_4515.jpg"",""SV_PolicingMSA/FL_4515/IMG_1_4515.jpg"",""SV_PolicingMSA/FL_4515/IMG_12_4515.jpg""]","4","","","","","","0","","4","[""./rc_img/cop_condGroup_16_CommunitySafety_autoscaled.png"",""./rc_img/cop_condGroup_16_SafeStreets_autoscaled.png""]","4",""
"sliderTrial","html-slider-response","71","224114","0.0-71.0","","656776a7904ae00d6b91d1dd","0fbm7ypyh8va","10","","","","","","","","","","","","165","[""SV_PolicingMSA/FL_4515/IMG_8_4515.jpg"",""SV_PolicingMSA/FL_4515/IMG_10_4515.jpg"",""SV_PolicingMSA/FL_4515/IMG_4_4515.jpg"",""SV_PolicingMSA/FL_4515/IMG_13_4515.jpg"",""SV_PolicingMSA/FL_4515/IMG_0_4515.jpg"",""SV_PolicingMSA/FL_4515/IMG_6_4515.jpg"",""SV_PolicingMSA/FL_4515/IMG_1_4515.jpg"",""SV_PolicingMSA/FL_4515/IMG_12_4515.jpg""]","4","","","","","","0","","4","[""./rc_img/cop_condGroup_19_SafeStreets_autoscaled.png"",""./rc_img/cop_condGroup_19_CommunitySafety_autoscaled.png""]","4",""
"sliderTrial_attention","html-slider-response","72","224278","0.0-72.0","","656776a7904ae00d6b91d1dd","0fbm7ypyh8va","10","","","","","","","","","","","","162","[""SV_PolicingMSA/FL_4515/IMG_8_4515.jpg"",""SV_PolicingMSA/FL_4515/IMG_10_4515.jpg"",""SV_PolicingMSA/FL_4515/IMG_4_4515.jpg"",""SV_PolicingMSA/FL_4515/IMG_13_4515.jpg"",""SV_PolicingMSA/FL_4515/IMG_0_4515.jpg"",""SV_PolicingMSA/FL_4515/IMG_6_4515.jpg"",""SV_PolicingMSA/FL_4515/IMG_1_4515.jpg"",""SV_PolicingMSA/FL_4515/IMG_12_4515.jpg""]","4","","","","","","0","","4","[""./assets/img/attnchk.png"",""./assets/img/attnchk.png""]","",""
"sliderTrial","html-slider-response","73","224429","0.0-73.0","","656776a7904ae00d6b91d1dd","0fbm7ypyh8va","10","","","","","","","","","","","","148","[""SV_PolicingMSA/FL_4515/IMG_8_4515.jpg"",""SV_PolicingMSA/FL_4515/IMG_10_4515.jpg"",""SV_PolicingMSA/FL_4515/IMG_4_4515.jpg"",""SV_PolicingMSA/FL_4515/IMG_13_4515.jpg"",""SV_PolicingMSA/FL_4515/IMG_0_4515.jpg"",""SV_PolicingMSA/FL_4515/IMG_6_4515.jpg"",""SV_PolicingMSA/FL_4515/IMG_1_4515.jpg"",""SV_PolicingMSA/FL_4515/IMG_12_4515.jpg""]","4","","","","","","0","","4","[""./rc_img/cop_condGroup_20_SafeStreets_autoscaled.png"",""./rc_img/cop_condGroup_20_CommunitySafety_autoscaled.png""]","4",""
"sliderTrial","html-slider-response","74","224713","0.0-74.0","","656776a7904ae00d6b91d1dd","0fbm7ypyh8va","10","","","","","","","","","","","","281","[""SV_PolicingMSA/FL_4515/IMG_8_4515.jpg"",""SV_PolicingMSA/FL_4515/IMG_10_4515.jpg"",""SV_PolicingMSA/FL_4515/IMG_4_4515.jpg"",""SV_PolicingMSA/FL_4515/IMG_13_4515.jpg"",""SV_PolicingMSA/FL_4515/IMG_0_4515.jpg"",""SV_PolicingMSA/FL_4515/IMG_6_4515.jpg"",""SV_PolicingMSA/FL_4515/IMG_1_4515.jpg"",""SV_PolicingMSA/FL_4515/IMG_12_4515.jpg""]","4","","","","","","0","","4","[""./rc_img/cop_condGroup_12_CommunitySafety_autoscaled.png"",""./rc_img/cop_condGroup_12_SafeStreets_autoscaled.png""]","4",""
"half-way","html-button-response","75","226064","0.0-75.0","","656776a7904ae00d6b91d1dd","0fbm7ypyh8va","10","","","","","","","","","","","","1349","
    <h3>You are now half way through the study.</h3>
    <p>Please take a quick, 15-second break before you continue.</p>
    <img src='assets/img/countdown-15.gif'>
    <p>The study will automatically advance forward after the countdown is complete. <br> However, you may click ""Next"" to advance forward now if you wish.</p>
    ","0","","","","","","","","","","",""
"before_SVSlide_prompt","html-button-response","76","227045","0.0-76.0","","656776a7904ae00d6b91d1dd","0fbm7ypyh8va","10","","","","","","","","","","","","981","Click [Next] to see the next neighborhood!","0","","","","","","","","","","",""
"street view slide show","image-button-response","77","228051","0.0-77.0","","656776a7904ae00d6b91d1dd","0fbm7ypyh8va","10","","","","","","","","","","","","null","stimulus/SV_PolicingMSA/FL_4887/IMG_11_4887.jpg","null","","","","","","5","","","","",""
"street view slide show","image-button-response","78","229059","0.0-78.0","","656776a7904ae00d6b91d1dd","0fbm7ypyh8va","10","","","","","","","","","","","","null","stimulus/SV_PolicingMSA/FL_4887/IMG_7_4887.jpg","null","","","","","","5","","","","",""
"street view slide show","image-button-response","79","230069","0.0-79.0","","656776a7904ae00d6b91d1dd","0fbm7ypyh8va","10","","","","","","","","","","","","null","stimulus/SV_PolicingMSA/FL_4887/IMG_9_4887.jpg","null","","","","","","5","","","","",""
"street view slide show","image-button-response","80","231077","0.0-80.0","","656776a7904ae00d6b91d1dd","0fbm7ypyh8va","10","","","","","","","","","","","","null","stimulus/SV_PolicingMSA/FL_4887/IMG_6_4887.jpg","null","","","","","","5","","","","",""
"street view slide show","image-button-response","81","232085","0.0-81.0","","656776a7904ae00d6b91d1dd","0fbm7ypyh8va","10","","","","","","","","","","","","null","stimulus/SV_PolicingMSA/FL_4887/IMG_10_4887.jpg","null","","","","","","5","","","","",""
"street view slide show","image-button-response","82","233093","0.0-82.0","","656776a7904ae00d6b91d1dd","0fbm7ypyh8va","10","","","","","","","","","","","","null","stimulus/SV_PolicingMSA/FL_4887/IMG_2_4887.jpg","null","","","","","","5","","","","",""
"street view slide show","image-button-response","83","234102","0.0-83.0","","656776a7904ae00d6b91d1dd","0fbm7ypyh8va","10","","","","","","","","","","","","null","stimulus/SV_PolicingMSA/FL_4887/IMG_0_4887.jpg","null","","","","","","5","","","","",""
"street view slide show","image-button-response","84","235111","0.0-84.0","","656776a7904ae00d6b91d1dd","0fbm7ypyh8va","10","","","","","","","","","","","","null","stimulus/SV_PolicingMSA/FL_4887/IMG_8_4887.jpg","null","","","","","","5","","","","",""
"dot matrix survey1","survey","85","236495","0.0-85.0","","656776a7904ae00d6b91d1dd","0fbm7ypyh8va","10","","","","","","","","","","","","1368","","{""P0_Q0"":null,""P0_Q1"":null}","","","","","","5","[]","","","",""
"dot matrix survey2","survey","86","237030","0.0-86.0","","656776a7904ae00d6b91d1dd","0fbm7ypyh8va","10","","","","","","","","","","","","521","","{""P0_Q0"":null,""P0_Q1"":null}","","","","","","5","[]","","","",""
"dot matrix survey3","survey","87","237806","0.0-87.0","","656776a7904ae00d6b91d1dd","0fbm7ypyh8va","10","","","","","","","","","","","","767","","{""P0_Q0"":null,""P0_Q1"":null}","","","","","","5","[]","","","",""
"sliderTrial","html-slider-response","88","238794","0.0-88.0","","656776a7904ae00d6b91d1dd","0fbm7ypyh8va","10","","","","","","","","","","","","986","[""SV_PolicingMSA/FL_4887/IMG_11_4887.jpg"",""SV_PolicingMSA/FL_4887/IMG_7_4887.jpg"",""SV_PolicingMSA/FL_4887/IMG_9_4887.jpg"",""SV_PolicingMSA/FL_4887/IMG_6_4887.jpg"",""SV_PolicingMSA/FL_4887/IMG_10_4887.jpg"",""SV_PolicingMSA/FL_4887/IMG_2_4887.jpg"",""SV_PolicingMSA/FL_4887/IMG_0_4887.jpg"",""SV_PolicingMSA/FL_4887/IMG_8_4887.jpg""]","4","","","","","","5","","4","[""./rc_img/cop_condGroup_1_CommunitySafety_autoscaled.png"",""./rc_img/cop_condGroup_1_SafeStreets_autoscaled.png""]","4",""
"sliderTrial","html-slider-response","89","238947","0.0-89.0","","656776a7904ae00d6b91d1dd","0fbm7ypyh8va","10","","","","","","","","","","","","150","[""SV_PolicingMSA/FL_4887/IMG_11_4887.jpg"",""SV_PolicingMSA/FL_4887/IMG_7_4887.jpg"",""SV_PolicingMSA/FL_4887/IMG_9_4887.jpg"",""SV_PolicingMSA/FL_4887/IMG_6_4887.jpg"",""SV_PolicingMSA/FL_4887/IMG_10_4887.jpg"",""SV_PolicingMSA/FL_4887/IMG_2_4887.jpg"",""SV_PolicingMSA/FL_4887/IMG_0_4887.jpg"",""SV_PolicingMSA/FL_4887/IMG_8_4887.jpg""]","4","","","","","","5","","4","[""./rc_img/cop_condGroup_7_CommunitySafety_autoscaled.png"",""./rc_img/cop_condGroup_7_SafeStreets_autoscaled.png""]","4",""
"sliderTrial","html-slider-response","90","239096","0.0-90.0","","656776a7904ae00d6b91d1dd","0fbm7ypyh8va","10","","","","","","","","","","","","147","[""SV_PolicingMSA/FL_4887/IMG_11_4887.jpg"",""SV_PolicingMSA/FL_4887/IMG_7_4887.jpg"",""SV_PolicingMSA/FL_4887/IMG_9_4887.jpg"",""SV_PolicingMSA/FL_4887/IMG_6_4887.jpg"",""SV_PolicingMSA/FL_4887/IMG_10_4887.jpg"",""SV_PolicingMSA/FL_4887/IMG_2_4887.jpg"",""SV_PolicingMSA/FL_4887/IMG_0_4887.jpg"",""SV_PolicingMSA/FL_4887/IMG_8_4887.jpg""]","4","","","","","","5","","4","[""./rc_img/cop_condGroup_6_SafeStreets_autoscaled.png"",""./rc_img/cop_condGroup_6_CommunitySafety_autoscaled.png""]","4",""
"sliderTrial","html-slider-response","91","239178","0.0-91.0","","656776a7904ae00d6b91d1dd","0fbm7ypyh8va","10","","","","","","","","","","","","80","[""SV_PolicingMSA/FL_4887/IMG_11_4887.jpg"",""SV_PolicingMSA/FL_4887/IMG_7_4887.jpg"",""SV_PolicingMSA/FL_4887/IMG_9_4887.jpg"",""SV_PolicingMSA/FL_4887/IMG_6_4887.jpg"",""SV_PolicingMSA/FL_4887/IMG_10_4887.jpg"",""SV_PolicingMSA/FL_4887/IMG_2_4887.jpg"",""SV_PolicingMSA/FL_4887/IMG_0_4887.jpg"",""SV_PolicingMSA/FL_4887/IMG_8_4887.jpg""]","4","","","","","","5","","4","[""./rc_img/cop_condGroup_8_SafeStreets_autoscaled.png"",""./rc_img/cop_condGroup_8_CommunitySafety_autoscaled.png""]","4",""
"sliderTrial","html-slider-response","92","239278","0.0-92.0","","656776a7904ae00d6b91d1dd","0fbm7ypyh8va","10","","","","","","","","","","","","98","[""SV_PolicingMSA/FL_4887/IMG_11_4887.jpg"",""SV_PolicingMSA/FL_4887/IMG_7_4887.jpg"",""SV_PolicingMSA/FL_4887/IMG_9_4887.jpg"",""SV_PolicingMSA/FL_4887/IMG_6_4887.jpg"",""SV_PolicingMSA/FL_4887/IMG_10_4887.jpg"",""SV_PolicingMSA/FL_4887/IMG_2_4887.jpg"",""SV_PolicingMSA/FL_4887/IMG_0_4887.jpg"",""SV_PolicingMSA/FL_4887/IMG_8_4887.jpg""]","4","","","","","","5","","4","[""./rc_img/cop_condGroup_4_SafeStreets_autoscaled.png"",""./rc_img/cop_condGroup_4_CommunitySafety_autoscaled.png""]","4",""
"before_SVSlide_prompt","html-button-response","93","240346","0.0-93.0","","656776a7904ae00d6b91d1dd","0fbm7ypyh8va","10","","","","","","","","","","","","1067","Click [Next] to see the next neighborhood!","0","","","","","","","","","","",""
"street view slide show","image-button-response","94","241352","0.0-94.0","","656776a7904ae00d6b91d1dd","0fbm7ypyh8va","10","","","","","","","","","","","","null","stimulus/SV_PolicingMSA/FL_4528/IMG_7_4528.jpg","null","","","","","","1","","","","",""
"street view slide show","image-button-response","95","242358","0.0-95.0","","656776a7904ae00d6b91d1dd","0fbm7ypyh8va","10","","","","","","","","","","","","null","stimulus/SV_PolicingMSA/FL_4528/IMG_6_4528.jpg","null","","","","","","1","","","","",""
"street view slide show","image-button-response","96","243366","0.0-96.0","","656776a7904ae00d6b91d1dd","0fbm7ypyh8va","10","","","","","","","","","","","","null","stimulus/SV_PolicingMSA/FL_4528/IMG_10_4528.jpg","null","","","","","","1","","","","",""
"street view slide show","image-button-response","97","244374","0.0-97.0","","656776a7904ae00d6b91d1dd","0fbm7ypyh8va","10","","","","","","","","","","","","null","stimulus/SV_PolicingMSA/FL_4528/IMG_9_4528.jpg","null","","","","","","1","","","","",""
"street view slide show","image-button-response","98","245383","0.0-98.0","","656776a7904ae00d6b91d1dd","0fbm7ypyh8va","10","","","","","","","","","","","","null","stimulus/SV_PolicingMSA/FL_4528/IMG_8_4528.jpg","null","","","","","","1","","","","",""
"street view slide show","image-button-response","99","246391","0.0-99.0","","656776a7904ae00d6b91d1dd","0fbm7ypyh8va","10","","","","","","","","","","","","null","stimulus/SV_PolicingMSA/FL_4528/IMG_1_4528.jpg","null","","","","","","1","","","","",""
"street view slide show","image-button-response","100","247399","0.0-100.0","","656776a7904ae00d6b91d1dd","0fbm7ypyh8va","10","","","","","","","","","","","","null","stimulus/SV_PolicingMSA/FL_4528/IMG_14_4528.jpg","null","","","","","","1","","","","",""
"street view slide show","image-button-response","101","248408","0.0-101.0","","656776a7904ae00d6b91d1dd","0fbm7ypyh8va","10","","","","","","","","","","","","null","stimulus/SV_PolicingMSA/FL_4528/IMG_3_4528.jpg","null","","","","","","1","","","","",""
"dot matrix survey1","survey","102","249690","0.0-102.0","","656776a7904ae00d6b91d1dd","0fbm7ypyh8va","10","","","","","","","","","","","","1267","","{""P0_Q0"":null,""P0_Q1"":null}","","","","","","1","[]","","","",""
"dot matrix survey2","survey","103","249833","0.0-103.0","","656776a7904ae00d6b91d1dd","0fbm7ypyh8va","10","","","","","","","","","","","","135","","{""P0_Q0"":null,""P0_Q1"":null}","","","","","","1","[]","","","",""
"dot matrix survey3","survey","104","250626","0.0-104.0","","656776a7904ae00d6b91d1dd","0fbm7ypyh8va","10","","","","","","","","","","","","790","","{""P0_Q0"":null,""P0_Q1"":null}","","","","","","1","[]","","","",""
"sliderTrial","html-slider-response","105","251649","0.0-105.0","","656776a7904ae00d6b91d1dd","0fbm7ypyh8va","10","","","","","","","","","","","","1022","[""SV_PolicingMSA/FL_4528/IMG_7_4528.jpg"",""SV_PolicingMSA/FL_4528/IMG_6_4528.jpg"",""SV_PolicingMSA/FL_4528/IMG_10_4528.jpg"",""SV_PolicingMSA/FL_4528/IMG_9_4528.jpg"",""SV_PolicingMSA/FL_4528/IMG_8_4528.jpg"",""SV_PolicingMSA/FL_4528/IMG_1_4528.jpg"",""SV_PolicingMSA/FL_4528/IMG_14_4528.jpg"",""SV_PolicingMSA/FL_4528/IMG_3_4528.jpg""]","4","","","","","","1","","4","[""./rc_img/cop_condGroup_15_CommunitySafety_autoscaled.png"",""./rc_img/cop_condGroup_15_SafeStreets_autoscaled.png""]","4",""
"sliderTrial_attention","html-slider-response","106","251796","0.0-106.0","","656776a7904ae00d6b91d1dd","0fbm7ypyh8va","10","","","","","","","","","","","","143","[""SV_PolicingMSA/FL_4528/IMG_7_4528.jpg"",""SV_PolicingMSA/FL_4528/IMG_6_4528.jpg"",""SV_PolicingMSA/FL_4528/IMG_10_4528.jpg"",""SV_PolicingMSA/FL_4528/IMG_9_4528.jpg"",""SV_PolicingMSA/FL_4528/IMG_8_4528.jpg"",""SV_PolicingMSA/FL_4528/IMG_1_4528.jpg"",""SV_PolicingMSA/FL_4528/IMG_14_4528.jpg"",""SV_PolicingMSA/FL_4528/IMG_3_4528.jpg""]","4","","","","","","1","","4","[""./assets/img/attnchk.png"",""./assets/img/attnchk.png""]","",""
"sliderTrial","html-slider-response","107","251928","0.0-107.0","","656776a7904ae00d6b91d1dd","0fbm7ypyh8va","10","","","","","","","","","","","","129","[""SV_PolicingMSA/FL_4528/IMG_7_4528.jpg"",""SV_PolicingMSA/FL_4528/IMG_6_4528.jpg"",""SV_PolicingMSA/FL_4528/IMG_10_4528.jpg"",""SV_PolicingMSA/FL_4528/IMG_9_4528.jpg"",""SV_PolicingMSA/FL_4528/IMG_8_4528.jpg"",""SV_PolicingMSA/FL_4528/IMG_1_4528.jpg"",""SV_PolicingMSA/FL_4528/IMG_14_4528.jpg"",""SV_PolicingMSA/FL_4528/IMG_3_4528.jpg""]","4","","","","","","1","","4","[""./rc_img/cop_condGroup_9_SafeStreets_autoscaled.png"",""./rc_img/cop_condGroup_9_CommunitySafety_autoscaled.png""]","4",""
"sliderTrial","html-slider-response","108","252045","0.0-108.0","","656776a7904ae00d6b91d1dd","0fbm7ypyh8va","10","","","","","","","","","","","","114","[""SV_PolicingMSA/FL_4528/IMG_7_4528.jpg"",""SV_PolicingMSA/FL_4528/IMG_6_4528.jpg"",""SV_PolicingMSA/FL_4528/IMG_10_4528.jpg"",""SV_PolicingMSA/FL_4528/IMG_9_4528.jpg"",""SV_PolicingMSA/FL_4528/IMG_8_4528.jpg"",""SV_PolicingMSA/FL_4528/IMG_1_4528.jpg"",""SV_PolicingMSA/FL_4528/IMG_14_4528.jpg"",""SV_PolicingMSA/FL_4528/IMG_3_4528.jpg""]","4","","","","","","1","","4","[""./rc_img/cop_condGroup_18_CommunitySafety_autoscaled.png"",""./rc_img/cop_condGroup_18_SafeStreets_autoscaled.png""]","4",""
"sliderTrial","html-slider-response","109","252514","0.0-109.0","","656776a7904ae00d6b91d1dd","0fbm7ypyh8va","10","","","","","","","","","","","","466","[""SV_PolicingMSA/FL_4528/IMG_7_4528.jpg"",""SV_PolicingMSA/FL_4528/IMG_6_4528.jpg"",""SV_PolicingMSA/FL_4528/IMG_10_4528.jpg"",""SV_PolicingMSA/FL_4528/IMG_9_4528.jpg"",""SV_PolicingMSA/FL_4528/IMG_8_4528.jpg"",""SV_PolicingMSA/FL_4528/IMG_1_4528.jpg"",""SV_PolicingMSA/FL_4528/IMG_14_4528.jpg"",""SV_PolicingMSA/FL_4528/IMG_3_4528.jpg""]","4","","","","","","1","","4","[""./rc_img/cop_condGroup_11_SafeStreets_autoscaled.png"",""./rc_img/cop_condGroup_11_CommunitySafety_autoscaled.png""]","4",""
"sliderTrial","html-slider-response","110","252944","0.0-110.0","","656776a7904ae00d6b91d1dd","0fbm7ypyh8va","10","","","","","","","","","","","","428","[""SV_PolicingMSA/FL_4528/IMG_7_4528.jpg"",""SV_PolicingMSA/FL_4528/IMG_6_4528.jpg"",""SV_PolicingMSA/FL_4528/IMG_10_4528.jpg"",""SV_PolicingMSA/FL_4528/IMG_9_4528.jpg"",""SV_PolicingMSA/FL_4528/IMG_8_4528.jpg"",""SV_PolicingMSA/FL_4528/IMG_1_4528.jpg"",""SV_PolicingMSA/FL_4528/IMG_14_4528.jpg"",""SV_PolicingMSA/FL_4528/IMG_3_4528.jpg""]","4","","","","","","1","","4","[""./rc_img/cop_condGroup_5_SafeStreets_autoscaled.png"",""./rc_img/cop_condGroup_5_CommunitySafety_autoscaled.png""]","4",""
"before_SVSlide_prompt","html-button-response","111","253663","0.0-111.0","","656776a7904ae00d6b91d1dd","0fbm7ypyh8va","10","","","","","","","","","","","","717","Click [Next] to see the next neighborhood!","0","","","","","","","","","","",""
"street view slide show","image-button-response","112","254672","0.0-112.0","","656776a7904ae00d6b91d1dd","0fbm7ypyh8va","10","","","","","","","","","","","","null","stimulus/SV_PolicingMSA/FL_4023/IMG_4_4023.jpg","null","","","","","","4","","","","",""
"street view slide show","image-button-response","113","255680","0.0-113.0","","656776a7904ae00d6b91d1dd","0fbm7ypyh8va","10","","","","","","","","","","","","null","stimulus/SV_PolicingMSA/FL_4023/IMG_10_4023.jpg","null","","","","","","4","","","","",""
"street view slide show","image-button-response","114","256689","0.0-114.0","","656776a7904ae00d6b91d1dd","0fbm7ypyh8va","10","","","","","","","","","","","","null","stimulus/SV_PolicingMSA/FL_4023/IMG_1_4023.jpg","null","","","","","","4","","","","",""
"street view slide show","image-button-response","115","257697","0.0-115.0","","656776a7904ae00d6b91d1dd","0fbm7ypyh8va","10","","","","","","","","","","","","null","stimulus/SV_PolicingMSA/FL_4023/IMG_2_4023.jpg","null","","","","","","4","","","","",""
"street view slide show","image-button-response","116","258704","0.0-116.0","","656776a7904ae00d6b91d1dd","0fbm7ypyh8va","10","","","","","","","","","","","","null","stimulus/SV_PolicingMSA/FL_4023/IMG_5_4023.jpg","null","","","","","","4","","","","",""
"street view slide show","image-button-response","117","259716","0.0-117.0","","656776a7904ae00d6b91d1dd","0fbm7ypyh8va","10","","","","","","","","","","","","null","stimulus/SV_PolicingMSA/FL_4023/IMG_12_4023.jpg","null","","","","","","4","","","","",""
"street view slide show","image-button-response","118","260723","0.0-118.0","","656776a7904ae00d6b91d1dd","0fbm7ypyh8va","10","","","","","","","","","","","","null","stimulus/SV_PolicingMSA/FL_4023/IMG_6_4023.jpg","null","","","","","","4","","","","",""
"street view slide show","image-button-response","119","261732","0.0-119.0","","656776a7904ae00d6b91d1dd","0fbm7ypyh8va","10","","","","","","","","","","","","null","stimulus/SV_PolicingMSA/FL_4023/IMG_9_4023.jpg","null","","","","","","4","","","","",""
"dot matrix survey1","survey","120","264646","0.0-120.0","","656776a7904ae00d6b91d1dd","0fbm7ypyh8va","10","","","","","","","","","","","","2891","","{""P0_Q0"":null,""P0_Q1"":null}","","","","","","4","[]","","","",""
"dot matrix survey2","survey","121","265595","0.0-121.0","","656776a7904ae00d6b91d1dd","0fbm7ypyh8va","10","","","","","","","","","","","","939","","{""P0_Q0"":null,""P0_Q1"":null}","","","","","","4","[]","","","",""
"dot matrix survey3","survey","122","266259","0.0-122.0","","656776a7904ae00d6b91d1dd","0fbm7ypyh8va","10","","","","","","","","","","","","651","","{""P0_Q0"":null,""P0_Q1"":null}","","","","","","4","[]","","","",""
"sliderTrial","html-slider-response","123","267412","0.0-123.0","","656776a7904ae00d6b91d1dd","0fbm7ypyh8va","10","","","","","","","","","","","","1151","[""SV_PolicingMSA/FL_4023/IMG_4_4023.jpg"",""SV_PolicingMSA/FL_4023/IMG_10_4023.jpg"",""SV_PolicingMSA/FL_4023/IMG_1_4023.jpg"",""SV_PolicingMSA/FL_4023/IMG_2_4023.jpg"",""SV_PolicingMSA/FL_4023/IMG_5_4023.jpg"",""SV_PolicingMSA/FL_4023/IMG_12_4023.jpg"",""SV_PolicingMSA/FL_4023/IMG_6_4023.jpg"",""SV_PolicingMSA/FL_4023/IMG_9_4023.jpg""]","4","","","","","","4","","4","[""./rc_img/cop_condGroup_3_CommunitySafety_autoscaled.png"",""./rc_img/cop_condGroup_3_SafeStreets_autoscaled.png""]","4",""
"sliderTrial","html-slider-response","124","267561","0.0-124.0","","656776a7904ae00d6b91d1dd","0fbm7ypyh8va","10","","","","","","","","","","","","146","[""SV_PolicingMSA/FL_4023/IMG_4_4023.jpg"",""SV_PolicingMSA/FL_4023/IMG_10_4023.jpg"",""SV_PolicingMSA/FL_4023/IMG_1_4023.jpg"",""SV_PolicingMSA/FL_4023/IMG_2_4023.jpg"",""SV_PolicingMSA/FL_4023/IMG_5_4023.jpg"",""SV_PolicingMSA/FL_4023/IMG_12_4023.jpg"",""SV_PolicingMSA/FL_4023/IMG_6_4023.jpg"",""SV_PolicingMSA/FL_4023/IMG_9_4023.jpg""]","4","","","","","","4","","4","[""./rc_img/cop_condGroup_13_SafeStreets_autoscaled.png"",""./rc_img/cop_condGroup_13_CommunitySafety_autoscaled.png""]","4",""
"sliderTrial","html-slider-response","125","267700","0.0-125.0","","656776a7904ae00d6b91d1dd","0fbm7ypyh8va","10","","","","","","","","","","","","134","[""SV_PolicingMSA/FL_4023/IMG_4_4023.jpg"",""SV_PolicingMSA/FL_4023/IMG_10_4023.jpg"",""SV_PolicingMSA/FL_4023/IMG_1_4023.jpg"",""SV_PolicingMSA/FL_4023/IMG_2_4023.jpg"",""SV_PolicingMSA/FL_4023/IMG_5_4023.jpg"",""SV_PolicingMSA/FL_4023/IMG_12_4023.jpg"",""SV_PolicingMSA/FL_4023/IMG_6_4023.jpg"",""SV_PolicingMSA/FL_4023/IMG_9_4023.jpg""]","4","","","","","","4","","4","[""./rc_img/cop_condGroup_14_CommunitySafety_autoscaled.png"",""./rc_img/cop_condGroup_14_SafeStreets_autoscaled.png""]","4",""
"sliderTrial","html-slider-response","126","267798","0.0-126.0","","656776a7904ae00d6b91d1dd","0fbm7ypyh8va","10","","","","","","","","","","","","96","[""SV_PolicingMSA/FL_4023/IMG_4_4023.jpg"",""SV_PolicingMSA/FL_4023/IMG_10_4023.jpg"",""SV_PolicingMSA/FL_4023/IMG_1_4023.jpg"",""SV_PolicingMSA/FL_4023/IMG_2_4023.jpg"",""SV_PolicingMSA/FL_4023/IMG_5_4023.jpg"",""SV_PolicingMSA/FL_4023/IMG_12_4023.jpg"",""SV_PolicingMSA/FL_4023/IMG_6_4023.jpg"",""SV_PolicingMSA/FL_4023/IMG_9_4023.jpg""]","4","","","","","","4","","4","[""./rc_img/cop_condGroup_2_SafeStreets_autoscaled.png"",""./rc_img/cop_condGroup_2_CommunitySafety_autoscaled.png""]","4",""
"sliderTrial","html-slider-response","127","267928","0.0-127.0","","656776a7904ae00d6b91d1dd","0fbm7ypyh8va","10","","","","","","","","","","","","126","[""SV_PolicingMSA/FL_4023/IMG_4_4023.jpg"",""SV_PolicingMSA/FL_4023/IMG_10_4023.jpg"",""SV_PolicingMSA/FL_4023/IMG_1_4023.jpg"",""SV_PolicingMSA/FL_4023/IMG_2_4023.jpg"",""SV_PolicingMSA/FL_4023/IMG_5_4023.jpg"",""SV_PolicingMSA/FL_4023/IMG_12_4023.jpg"",""SV_PolicingMSA/FL_4023/IMG_6_4023.jpg"",""SV_PolicingMSA/FL_4023/IMG_9_4023.jpg""]","4","","","","","","4","","4","[""./rc_img/cop_condGroup_17_SafeStreets_autoscaled.png"",""./rc_img/cop_condGroup_17_CommunitySafety_autoscaled.png""]","4",""
"before_SVSlide_prompt","html-button-response","128","269113","0.0-128.0","","656776a7904ae00d6b91d1dd","0fbm7ypyh8va","10","","","","","","","","","","","","1183","Click [Next] to see the next neighborhood!","0","","","","","","","","","","",""
"street view slide show","image-button-response","129","270122","0.0-129.0","","656776a7904ae00d6b91d1dd","0fbm7ypyh8va","10","","","","","","","","","","","","null","stimulus/SV_PolicingMSA/FL_1410/IMG_8_1410.jpg","null","","","","","","2","","","","",""
"street view slide show","image-button-response","130","271130","0.0-130.0","","656776a7904ae00d6b91d1dd","0fbm7ypyh8va","10","","","","","","","","","","","","null","stimulus/SV_PolicingMSA/FL_1410/IMG_9_1410.jpg","null","","","","","","2","","","","",""
"street view slide show","image-button-response","131","272138","0.0-131.0","","656776a7904ae00d6b91d1dd","0fbm7ypyh8va","10","","","","","","","","","","","","null","stimulus/SV_PolicingMSA/FL_1410/IMG_1_1410.jpg","null","","","","","","2","","","","",""
"street view slide show","image-button-response","132","273147","0.0-132.0","","656776a7904ae00d6b91d1dd","0fbm7ypyh8va","10","","","","","","","","","","","","null","stimulus/SV_PolicingMSA/FL_1410/IMG_5_1410.jpg","null","","","","","","2","","","","",""
"street view slide show","image-button-response","133","274154","0.0-133.0","","656776a7904ae00d6b91d1dd","0fbm7ypyh8va","10","","","","","","","","","","","","null","stimulus/SV_PolicingMSA/FL_1410/IMG_10_1410.jpg","null","","","","","","2","","","","",""
"street view slide show","image-button-response","134","275163","0.0-134.0","","656776a7904ae00d6b91d1dd","0fbm7ypyh8va","10","","","","","","","","","","","","null","stimulus/SV_PolicingMSA/FL_1410/IMG_11_1410.jpg","null","","","","","","2","","","","",""
"street view slide show","image-button-response","135","276172","0.0-135.0","","656776a7904ae00d6b91d1dd","0fbm7ypyh8va","10","","","","","","","","","","","","null","stimulus/SV_PolicingMSA/FL_1410/IMG_4_1410.jpg","null","","","","","","2","","","","",""
"street view slide show","image-button-response","136","277182","0.0-136.0","","656776a7904ae00d6b91d1dd","0fbm7ypyh8va","10","","","","","","","","","","","","null","stimulus/SV_PolicingMSA/FL_1410/IMG_6_1410.jpg","null","","","","","","2","","","","",""
"dot matrix survey1","survey","137","278987","0.0-137.0","","656776a7904ae00d6b91d1dd","0fbm7ypyh8va","10","","","","","","","","","","","","1788","","{""P0_Q0"":null,""P0_Q1"":null}","","","","","","2","[]","","","",""
"dot matrix survey2","survey","138","279456","0.0-138.0","","656776a7904ae00d6b91d1dd","0fbm7ypyh8va","10","","","","","","","","","","","","457","","{""P0_Q0"":null,""P0_Q1"":null}","","","","","","2","[]","","","",""
"dot matrix survey3","survey","139","280091","0.0-139.0","","656776a7904ae00d6b91d1dd","0fbm7ypyh8va","10","","","","","","","","","","","","626","","{""P0_Q0"":null,""P0_Q1"":null}","","","","","","2","[]","","","",""
"sliderTrial","html-slider-response","140","280782","0.0-140.0","","656776a7904ae00d6b91d1dd","0fbm7ypyh8va","10","","","","","","","","","","","","688","[""SV_PolicingMSA/FL_1410/IMG_8_1410.jpg"",""SV_PolicingMSA/FL_1410/IMG_9_1410.jpg"",""SV_PolicingMSA/FL_1410/IMG_1_1410.jpg"",""SV_PolicingMSA/FL_1410/IMG_5_1410.jpg"",""SV_PolicingMSA/FL_1410/IMG_10_1410.jpg"",""SV_PolicingMSA/FL_1410/IMG_11_1410.jpg"",""SV_PolicingMSA/FL_1410/IMG_4_1410.jpg"",""SV_PolicingMSA/FL_1410/IMG_6_1410.jpg""]","4","","","","","","2","","4","[""./rc_img/cop_condGroup_10_CommunitySafety_autoscaled.png"",""./rc_img/cop_condGroup_10_SafeStreets_autoscaled.png""]","4",""
"sliderTrial","html-slider-response","141","280946","0.0-141.0","","656776a7904ae00d6b91d1dd","0fbm7ypyh8va","10","","","","","","","","","","","","161","[""SV_PolicingMSA/FL_1410/IMG_8_1410.jpg"",""SV_PolicingMSA/FL_1410/IMG_9_1410.jpg"",""SV_PolicingMSA/FL_1410/IMG_1_1410.jpg"",""SV_PolicingMSA/FL_1410/IMG_5_1410.jpg"",""SV_PolicingMSA/FL_1410/IMG_10_1410.jpg"",""SV_PolicingMSA/FL_1410/IMG_11_1410.jpg"",""SV_PolicingMSA/FL_1410/IMG_4_1410.jpg"",""SV_PolicingMSA/FL_1410/IMG_6_1410.jpg""]","4","","","","","","2","","4","[""./rc_img/cop_condGroup_16_CommunitySafety_autoscaled.png"",""./rc_img/cop_condGroup_16_SafeStreets_autoscaled.png""]","4",""
"sliderTrial","html-slider-response","142","281145","0.0-142.0","","656776a7904ae00d6b91d1dd","0fbm7ypyh8va","10","","","","","","","","","","","","197","[""SV_PolicingMSA/FL_1410/IMG_8_1410.jpg"",""SV_PolicingMSA/FL_1410/IMG_9_1410.jpg"",""SV_PolicingMSA/FL_1410/IMG_1_1410.jpg"",""SV_PolicingMSA/FL_1410/IMG_5_1410.jpg"",""SV_PolicingMSA/FL_1410/IMG_10_1410.jpg"",""SV_PolicingMSA/FL_1410/IMG_11_1410.jpg"",""SV_PolicingMSA/FL_1410/IMG_4_1410.jpg"",""SV_PolicingMSA/FL_1410/IMG_6_1410.jpg""]","4","","","","","","2","","4","[""./rc_img/cop_condGroup_19_SafeStreets_autoscaled.png"",""./rc_img/cop_condGroup_19_CommunitySafety_autoscaled.png""]","4",""
"sliderTrial","html-slider-response","143","281279","0.0-143.0","","656776a7904ae00d6b91d1dd","0fbm7ypyh8va","10","","","","","","","","","","","","131","[""SV_PolicingMSA/FL_1410/IMG_8_1410.jpg"",""SV_PolicingMSA/FL_1410/IMG_9_1410.jpg"",""SV_PolicingMSA/FL_1410/IMG_1_1410.jpg"",""SV_PolicingMSA/FL_1410/IMG_5_1410.jpg"",""SV_PolicingMSA/FL_1410/IMG_10_1410.jpg"",""SV_PolicingMSA/FL_1410/IMG_11_1410.jpg"",""SV_PolicingMSA/FL_1410/IMG_4_1410.jpg"",""SV_PolicingMSA/FL_1410/IMG_6_1410.jpg""]","4","","","","","","2","","4","[""./rc_img/cop_condGroup_20_SafeStreets_autoscaled.png"",""./rc_img/cop_condGroup_20_CommunitySafety_autoscaled.png""]","4",""
"sliderTrial","html-slider-response","144","281711","0.0-144.0","","656776a7904ae00d6b91d1dd","0fbm7ypyh8va","10","","","","","","","","","","","","430","[""SV_PolicingMSA/FL_1410/IMG_8_1410.jpg"",""SV_PolicingMSA/FL_1410/IMG_9_1410.jpg"",""SV_PolicingMSA/FL_1410/IMG_1_1410.jpg"",""SV_PolicingMSA/FL_1410/IMG_5_1410.jpg"",""SV_PolicingMSA/FL_1410/IMG_10_1410.jpg"",""SV_PolicingMSA/FL_1410/IMG_11_1410.jpg"",""SV_PolicingMSA/FL_1410/IMG_4_1410.jpg"",""SV_PolicingMSA/FL_1410/IMG_6_1410.jpg""]","4","","","","","","2","","4","[""./rc_img/cop_condGroup_12_CommunitySafety_autoscaled.png"",""./rc_img/cop_condGroup_12_SafeStreets_autoscaled.png""]","4",""
"demographics","survey-html-form","145","283411","0.0-145.0","","656776a7904ae00d6b91d1dd","0fbm7ypyh8va","10","","","","","","","","","","","","1697","","{""age"":"""",""gender-self-describe"":"""",""zipcode"":""""}","","","","","","","","","","",""
"demographics-list","survey","146","288444","0.0-146.0","","656776a7904ae00d6b91d1dd","0fbm7ypyh8va","10","","","","","","","","","","","","5005","","{""P0_Q0"":null,""race-ethnicity"":[],""education"":"""",""P1_Q0"":null,""ideology"":"""",""P2_Q0"":null,""num-moves"":"""",""P3_Q0"":null,""social-ladder"":null}","","","","","","","[]","","","",""
"end-survey","survey-text","147","294351","0.0-147.0","","656776a7904ae00d6b91d1dd","0fbm7ypyh8va","10","","","","","","","","","","","","5902","","{""Q0"":""""}","","","","","","","","","","","0"
"end-survey","html-button-response","148","373619","0.0-148.0","","656776a7904ae00d6b91d1dd","0fbm7ypyh8va","10","","","","","","","","","","","","79263","
    You've reached the end of the survey. <br><br> 
    <b>Do not close or refresh this window.</b><br>
    In the next page, you will be automatically redirected to Prolific. <br><br>

    <div class=""alert alert-warning""><b>
    <p>However, just in case, please keep the following completion code:</p> 
    <h3>C1GXQTQHundefined</h3>
    </div>
","0","","","","","","","","","","",""
